# Sensor position: Front pocket (trouser)
# Sensor side: Right
# Activity type: Climbing stairs
# Activity code: 12
# Subject id: s1704037
timestamp,seq,accel_x,accel_y,accel_z
1601999525264,0,-0.9333496,-0.5183716,0.11590576
1601999525342,1,-0.9355469,-0.49639893,0.12054443
1601999525421,2,-0.920166,-0.5076294,0.13201904
1601999525500,3,-0.921875,-0.5239868,0.15106201
1601999525579,4,-0.892334,-0.5249634,0.14764404
1601999525657,5,-0.9001465,-0.520813,0.13543701
1601999525736,6,-0.9177246,-0.49542236,0.13543701
1601999525815,7,-0.92041016,-0.49957275,0.16571045
1601999525894,8,-0.89331055,-0.5088501,0.15667725
1601999525972,9,-0.9338379,-0.49884033,0.13201904
1601999526051,10,-0.95043945,-0.51885986,0.07220459
1601999526130,11,-0.9145508,-0.5310669,-0.0010375977
1601999526209,12,-0.93774414,-0.4590454,-0.039611816
1601999526287,13,-0.9206543,-0.5701294,-0.11505127
1601999526366,14,-0.8959961,-0.5803833,-0.16265869
1601999526445,15,-0.91381836,-0.56988525,-0.13043213
1601999526524,16,-0.90844727,-0.5466919,-0.10284424
1601999526602,17,-0.9038086,-0.5918579,-0.08013916
1601999526681,18,-0.8935547,-0.565979,-0.097229004
1601999526760,19,-0.8828125,-0.5598755,-0.09893799
1601999526839,20,-0.9069824,-0.5523071,-0.07623291
1601999526917,21,-0.94262695,-0.579895,-0.14898682
1601999526996,22,-0.9782715,-0.56256104,-0.2354126
1601999527075,23,-1.0705566,-0.77227783,-0.17242432
1601999527154,24,-1.1486816,-0.6712036,0.07733154
1601999527232,25,-1.2766113,-0.5791626,0.10345459
1601999527311,26,-1.3806152,-0.6489868,0.012634277
1601999527390,27,-1.0,-0.69488525,0.15618896
1601999527469,28,-0.6550293,-0.3447876,0.11590576
1601999527547,29,-0.3774414,-0.1921997,0.14447021
1601999527626,30,-0.25854492,-0.24127197,0.32000732
1601999527705,31,-0.26171875,-0.5108032,0.5438843
1601999527784,32,-0.6315918,-0.78204346,0.7640991
1601999527862,33,-0.9855957,-0.8521118,0.25042725
1601999527941,34,-1.0493164,-0.82159424,0.09173584
1601999528020,35,-0.782959,-0.6411743,-0.027893066
1601999528099,36,-0.66137695,-0.4649048,-0.035461426
1601999528177,37,-0.79711914,-0.56622314,-0.07623291
1601999528256,38,-0.93603516,-0.8574829,0.15374756
1601999528335,39,-0.98876953,-0.6050415,-0.1428833
1601999528414,40,-1.1225586,-0.8452759,-0.09942627
1601999528492,41,-1.28125,-0.6765747,0.078308105
1601999528571,42,-1.3110352,-0.7647095,0.37225342
1601999528650,43,-1.090332,-0.48980713,-0.0413208
1601999528729,44,-0.7373047,-0.49127197,0.07098389
1601999528807,45,-0.42919922,-0.25299072,0.12567139
1601999528886,46,-0.27246094,-0.12359619,0.29412842
1601999528965,47,-0.18652344,-0.54571533,0.6766968
1601999529044,48,-1.0563965,-0.8533325,0.30706787
1601999529122,49,-1.1013184,-0.7942505,0.1486206
1601999529201,50,-0.9067383,-0.54693604,-0.06573486
1601999529280,51,-0.72802734,-0.6946411,-0.12286377
1601999529359,52,-0.7438965,-0.49884033,0.13201904
1601999529437,53,-0.7453613,-0.642395,0.105895996
1601999529516,54,-1.104248,-0.68951416,-0.17144775
1601999529595,55,-1.2758789,-0.84698486,-0.13922119
1601999529674,56,-1.2487793,-0.67022705,0.21478271
1601999529752,57,-1.3813477,-0.67144775,0.3012085
1601999529831,58,-1.2163086,-0.46636963,0.08026123
1601999529910,59,-0.6982422,-0.36895752,-0.040100098
1601999529989,60,-0.31347656,-0.17364502,0.093688965
1601999530067,61,-0.12792969,-0.16217041,0.39544678
1601999530146,62,-0.47998047,-0.27105713,0.57806396
1601999530225,63,-1.1518555,-1.1780396,0.26409912
1601999530304,64,-1.1135254,-0.736145,-0.05230713
1601999530382,65,-0.9091797,-0.61676025,0.046813965
1601999530461,66,-0.6140137,-0.6699829,-0.039611816
1601999530540,67,-0.72265625,-0.58013916,-0.014465332
1601999530619,68,-0.9145508,-0.6445923,0.013366699
1601999530697,69,-1.182373,-0.833313,-0.02960205
1601999530776,70,-1.3146973,-0.8184204,0.049987793
1601999530855,71,-1.2973633,-0.64727783,0.36761475
1601999530934,72,-1.3212891,-0.47296143,-0.037902832
1601999531012,73,-0.876709,-0.5437622,0.034362793
1601999531091,74,-0.4567871,-0.26690674,0.038024902
1601999531170,75,-0.19995117,-0.12823486,0.23602295
1601999531249,76,-0.2746582,-0.4192505,0.5531616
1601999531327,77,-1.1411133,-0.92144775,0.3234253
1601999531406,78,-0.9482422,-0.53790283,-0.027893066
1601999531485,79,-1.1323242,-0.6526489,0.050964355
1601999531564,80,-0.7961426,-0.800354,-0.13067627
1601999531642,81,-0.609375,-0.581604,0.010925293
1601999531721,82,-0.7636719,-0.5479126,0.02557373
1601999531800,83,-1.0307617,-0.57598877,-0.21392822
1601999531879,84,-1.3029785,-0.76763916,-0.13800049
1601999531957,85,-1.3220215,-0.6646118,0.23577881
1601999532036,86,-1.3630371,-0.66192627,0.21307373
1601999532115,87,-0.9953613,-0.5029907,0.11810303
1601999532194,88,-0.67993164,-0.43218994,0.038757324
1601999532272,89,-0.34765625,-0.1843872,0.152771
1601999532351,90,-0.13842773,-0.30352783,0.44036865
1601999532430,91,-0.44189453,-0.3303833,0.49993896
1601999532509,92,-1.2878418,-1.0899048,0.322937
1601999532587,93,-0.94189453,-0.616272,-0.027893066
1601999532666,94,-0.97558594,-0.60113525,-0.09185791
1601999532745,95,-0.82714844,-0.5774536,-0.004211426
1601999532824,96,-0.66186523,-0.536438,-0.008117676
1601999532902,97,-0.78149414,-0.64312744,-0.039611816
1601999532981,98,-1.1647949,-0.7112427,-0.0791626
1601999533060,99,-1.3388672,-0.77056885,-0.054748535
1601999533139,100,-1.295166,-0.5667114,0.32513428
1601999533217,101,-1.3691406,-0.64849854,-0.07330322
1601999533296,102,-0.9790039,-0.5767212,0.1696167
1601999533375,103,-0.55981445,-0.31280518,-0.020812988
1601999533454,104,-0.32104492,-0.09527588,0.13934326
1601999533532,105,-0.1965332,-0.31158447,0.4389038
1601999533611,106,-0.6347656,-0.6292114,0.33416748
1601999533690,107,-1.3244629,-0.93292236,0.37591553
1601999533769,108,-1.0771484,-0.71881104,-0.108947754
1601999533847,109,-0.8562012,-0.66119385,0.04852295
1601999533926,110,-0.6123047,-0.56817627,0.012634277
1601999534005,111,-0.6381836,-0.4902954,0.049743652
1601999534084,112,-0.9394531,-0.71417236,-0.0017700195
1601999534162,113,-1.3164062,-0.8284302,-0.1182251
1601999534241,114,-1.3635254,-0.7007446,0.101501465
1601999534320,115,-1.1728516,-0.6235962,0.3143921
1601999534399,116,-0.9033203,-0.74298096,0.4376831
1601999534477,117,-0.81347656,-0.4590454,0.15911865
1601999534556,118,-0.47021484,-0.33355713,0.14691162
1601999534635,119,-0.26660156,-0.21173096,0.25579834
1601999534714,120,-0.31713867,-0.4006958,0.41033936
1601999534792,121,-1.151123,-0.97076416,0.3012085
1601999534871,122,-1.0124512,-0.75177,0.20281982
1601999534950,123,-0.8586426,-0.5261841,-0.06817627
1601999535029,124,-0.6796875,-0.5967407,-0.09039307
1601999535107,125,-0.8078613,-0.583313,0.0289917
1601999535186,126,-0.8859863,-0.79937744,0.07562256
1601999535265,127,-1.0349121,-0.6358032,-0.11798096
1601999535344,128,-1.2043457,-0.76641846,-0.12677002
1601999535422,129,-1.2607422,-0.55010986,0.10345459
1601999535501,130,-1.2954102,-0.6831665,0.19476318
1601999535580,131,-1.1035156,-0.33551025,0.25482178
1601999535659,132,-0.8234863,-0.55596924,0.027282715
1601999535737,133,-0.48583984,-0.33770752,0.10345459
1601999535816,134,-0.27319336,-0.17218018,0.25872803
1601999535895,135,-0.24145508,-0.4631958,0.41888428
1601999535974,136,-1.076416,-1.0811157,0.11468506
1601999536052,137,-1.1281738,-0.6226196,0.11566162
1601999536131,138,-1.1149902,-0.6057739,-0.014465332
1601999536210,139,-0.65649414,-0.8377075,-0.13824463
1601999536289,140,-0.64868164,-0.43927002,0.0368042
1601999536367,141,-0.75390625,-0.5940552,-0.051574707
1601999536446,142,-1.0251465,-0.690979,-0.117248535
1601999536525,143,-1.2792969,-0.7739868,-0.04547119
1601999536604,144,-1.3518066,-0.6577759,0.14837646
1601999536682,145,-1.3544922,-0.5593872,0.17132568
1601999536761,146,-0.923584,-0.6773071,0.13275146
1601999536840,147,-0.673584,-0.43292236,0.027038574
1601999536919,148,-0.39282227,-0.28009033,0.09222412
1601999536997,149,-0.23291016,-0.2612915,0.2982788
1601999537076,150,-0.2956543,-0.56500244,0.5668335
1601999537155,151,-1.2285156,-1.1799927,0.4911499
1601999537234,152,-0.8745117,-0.5081177,0.010925293
1601999537312,153,-0.9589844,-0.6174927,-0.028625488
1601999537391,154,-0.6977539,-0.661438,-0.09063721
1601999537470,155,-0.6821289,-0.6182251,-0.031555176
1601999537549,156,-0.92626953,-0.6296997,0.06121826
1601999537627,157,-0.8815918,-0.66607666,-0.002746582
1601999537706,158,-0.94921875,-0.49273682,-0.11090088
1601999537785,159,-0.99902344,-0.56744385,-0.20343018
1601999537864,160,-1.2502441,-0.6409302,-0.16021729
1601999537942,161,-1.215332,-0.48858643,0.10809326
1601999538021,162,-1.2851562,-0.6218872,0.13372803
1601999538100,163,-0.9121094,-0.3965454,0.031188965
1601999538179,164,-0.72314453,-0.54937744,0.21087646
1601999538257,165,-0.9169922,-0.5100708,0.24969482
1601999538336,166,-0.63061523,-0.52423096,0.32806396
1601999538415,167,-0.3647461,-0.3008423,0.3307495
1601999538494,168,-0.22680664,-0.4031372,0.44403076
1601999538572,169,-0.2512207,-0.7461548,0.63494873
1601999538651,170,-0.50561523,-0.64727783,0.6312866
1601999538730,171,-1.0964355,-0.7666626,0.41107178
1601999538809,172,-1.0449219,-0.64019775,-0.047912598
1601999538887,173,-0.79296875,-0.87628174,-0.14190674
1601999538966,174,-0.7836914,-0.7124634,-0.008605957
1601999539045,175,-0.6635742,-0.6914673,-0.07183838
1601999539124,176,-0.82177734,-0.61846924,-0.0051879883
1601999539202,177,-0.75097656,-0.52838135,-0.039123535
1601999539281,178,-0.87402344,-0.46173096,-0.13848877
1601999539360,179,-0.99975586,-0.5388794,-0.253479
1601999539439,180,-1.1889648,-0.37872314,-0.36480713
1601999539517,181,-1.1831055,-0.7058716,-0.12677002
1601999539596,182,-1.1704102,-0.58599854,0.08270264
1601999539675,183,-1.092041,-0.74053955,0.07244873
1601999539754,184,-1.2714844,-0.18487549,0.18865967
1601999539832,185,-0.9182129,-0.3340454,0.11956787
1601999539911,186,-0.39892578,-0.37677002,-0.0869751
1601999539990,187,-0.14770508,-0.3328247,0.066345215
1601999540069,188,-0.28735352,-0.6897583,0.68865967
1601999540147,189,-1.1455078,-1.020813,0.96502686
1601999540226,190,-1.0915527,-0.39605713,0.34783936
1601999540305,191,-0.7873535,-0.52911377,-0.09967041
1601999540384,192,-0.74438477,-0.6567993,-0.070129395
1601999540462,193,-0.8864746,-0.49957275,-0.13433838
1601999540541,194,-0.8708496,-0.53741455,-0.25787354
1601999540620,195,-0.89624023,-0.36749268,-0.13458252
1601999540699,196,-0.9501953,-0.489563,-0.17584229
1601999540777,197,-0.9213867,-0.7803345,-0.23175049
1601999540856,198,-0.9560547,-0.9011841,-0.109191895
1601999540935,199,-1.1560059,-0.6848755,0.23309326
1601999541014,200,-1.3222656,-0.48443604,-0.13726807
1601999541092,201,-1.1486816,-0.4204712,-0.10455322
1601999541171,202,-0.7077637,-0.43878174,-0.038391113
1601999541250,203,-0.4975586,-0.15826416,6.713867E-4
1601999541329,204,-0.44628906,-0.6243286,0.41571045
1601999541407,205,-1.1115723,-1.2312622,0.795105
1601999541486,206,-1.0625,-0.28814697,0.22088623
1601999541565,207,-0.6052246,-0.473938,-0.23297119
1601999541644,208,-1.0395508,-0.60528564,-0.17901611
1601999541722,209,-0.93408203,-0.48028564,-0.26031494
1601999541801,210,-0.87402344,-0.47442627,-0.23712158
1601999541880,211,-0.8522949,-0.47833252,-0.124816895
1601999541959,212,-0.9421387,-0.6362915,-0.061340332
1601999542037,213,-0.88671875,-0.8723755,-0.19122314
1601999542116,214,-1.0932617,-0.93414307,0.21722412
1601999542195,215,-1.3286133,-0.21636963,-0.019348145
1601999542274,216,-1.2624512,-0.5322876,-0.0635376
1601999542352,217,-0.8063965,-0.36724854,-0.033996582
1601999542431,218,-0.60253906,-0.2432251,-0.008361816
1601999542510,219,-0.5114746,-0.47808838,0.06512451
1601999542589,220,-0.79541016,-1.0598755,0.7357788
1601999542667,221,-0.7739258,-0.7234497,0.49163818
1601999542746,222,-1.361084,-0.44439697,-0.007385254
1601999542825,223,-0.79541016,-0.35894775,-0.25933838
1601999542904,224,-0.8967285,-0.6663208,-0.2822876
1601999542982,225,-0.91137695,-0.53082275,-0.112854004
1601999543061,226,-0.89941406,-0.767395,-0.1675415
1601999543140,227,-0.92626953,-0.5564575,-0.08380127
1601999543219,228,-0.91845703,-0.59381104,-0.13897705
1601999543297,229,-1.0839844,-0.7144165,-0.17218018
1601999543376,230,-1.1643066,-0.61309814,-0.018371582
1601999543455,231,-1.1940918,-0.6856079,0.12371826
1601999543534,232,-1.4211426,-0.4710083,0.19232178
1601999543612,233,-0.96850586,-0.6694946,0.16766357
1601999543691,234,-0.5209961,-0.5010376,0.05218506
1601999543770,235,-0.21362305,-0.21783447,0.1437378
1601999543849,236,-0.21508789,-0.3706665,0.40740967
1601999543927,237,-0.35107422,-0.75567627,0.5253296
1601999544006,238,-0.7922363,-0.755188,0.48431396
1601999544085,239,-1.0073242,-0.8086548,0.1161499
1601999544164,240,-1.0061035,-0.7107544,-0.05987549
1601999544242,241,-0.6635742,-0.6897583,-0.19610596
1601999544321,242,-0.62719727,-0.6387329,-0.09234619
1601999544400,243,-0.9069824,-0.62677,0.03338623
1601999544479,244,-0.9016113,-0.6565552,0.046325684
1601999544557,245,-0.9885254,-0.62677,-0.08062744
1601999544636,246,-1.1877441,-0.6692505,-0.1975708
1601999544715,247,-1.2729492,-0.6343384,0.06829834
1601999544794,248,-1.1628418,-0.8255005,0.43548584
1601999544872,249,-1.0178223,-0.5886841,0.0053100586
1601999544951,250,-0.9206543,-0.57159424,0.2111206
1601999545030,251,-0.59521484,-0.4024048,0.121032715
1601999545109,252,-0.2578125,-0.25494385,0.19769287
1601999545187,253,-0.17260742,-0.35577393,0.37322998
1601999545266,254,-0.8339844,-0.767395,0.5199585
1601999545345,255,-0.93310547,-0.894104,0.1852417
1601999545424,256,-1.1237793,-0.73394775,0.04901123
1601999545502,257,-0.68896484,-0.61138916,-0.077697754
1601999545581,258,-0.66748047,-0.7168579,-0.06085205
1601999545660,259,-0.76953125,-0.55718994,-0.06085205
1601999545739,260,-0.9445801,-0.5811157,0.016784668
1601999545817,261,-1.0766602,-0.7485962,-0.082092285
1601999545896,262,-1.2316895,-0.77593994,-0.16925049
1601999545975,263,-1.253418,-0.56378174,0.24066162
1601999546054,264,-1.2946777,-0.7136841,0.08099365
1601999546132,265,-0.9562988,-0.6399536,0.1864624
1601999546211,266,-0.70874023,-0.4541626,0.04852295
1601999546290,267,-0.44213867,-0.24664307,0.10687256
1601999546369,268,-0.2607422,-0.29034424,0.28118896
1601999546447,269,-0.18164062,-0.6741333,0.43060303
1601999546526,270,-1.1032715,-0.940979,0.45477295
1601999546605,271,-0.970459,-0.7546997,0.07562256
1601999546684,272,-0.94506836,-0.66656494,-0.022033691
1601999546762,273,-0.6801758,-0.6165161,-0.07598877
1601999546841,274,-0.6435547,-0.581604,-0.00592041
1601999546920,275,-0.9387207,-0.8447876,0.09490967
1601999546999,276,-0.9375,-0.65509033,-0.10992432
1601999547077,277,-1.0983887,-0.5899048,-0.16070557
1601999547156,278,-1.3300781,-0.68878174,0.008972168
1601999547235,279,-1.267334,-0.81329346,0.20819092
1601999547314,280,-1.0095215,-0.61846924,0.12884521
1601999547392,281,-0.7192383,-0.5586548,0.11956787
1601999547471,282,-0.56469727,-0.4414673,0.12640381
1601999547550,283,-0.38012695,-0.32818604,0.18817139
1601999547629,284,-0.15966797,-0.40411377,0.3480835
1601999547707,285,-0.4404297,-0.43536377,0.53704834
1601999547786,286,-1.2385254,-1.3076782,0.22064209
1601999547865,287,-0.9675293,-0.69195557,0.016296387
1601999547944,288,-0.81225586,-0.69488525,-0.10821533
1601999548022,289,-0.64160156,-0.61553955,-0.019836426
1601999548101,290,-0.7312012,-0.54107666,-0.012512207
1601999548180,291,-0.93408203,-0.66973877,0.04852295
1601999548259,292,-0.9667969,-0.65802,-0.12628174
1601999548337,293,-1.2145996,-0.7317505,-0.21881104
1601999548416,294,-1.3974609,-0.60821533,0.22991943
1601999548495,295,-1.1184082,-0.7505493,0.13885498
1601999548574,296,-0.9404297,-0.6375122,0.18475342
1601999548652,297,-0.7504883,-0.50006104,0.11224365
1601999548731,298,-0.5102539,-0.4277954,0.14837646
1601999548810,299,-0.22583008,-0.23590088,0.21282959
1601999548889,300,-0.106933594,-0.49884033,0.41766357
1601999548967,301,-0.7871094,-0.83013916,0.44647217
1601999549046,302,-1.065918,-0.9702759,0.3619995
1601999549125,303,-1.0273438,-0.70025635,-0.06011963
1601999549204,304,-0.6328125,-0.62164307,-0.05279541
1601999549282,305,-0.6254883,-0.60479736,0.026306152
1601999549361,306,-0.93237305,-0.62506104,0.0211792
1601999549440,307,-0.9289551,-0.6760864,-0.0154418945
1601999549519,308,-0.9494629,-0.72735596,-0.06402588
1601999549597,309,-1.1665039,-0.79107666,-0.09112549
1601999549676,310,-1.1711426,-0.69244385,0.11419678
1601999549755,311,-1.1589355,-0.7180786,0.23919678
1601999549834,312,-1.1320801,-0.522522,0.09857178
1601999549912,313,-0.83618164,-0.5730591,0.12835693
1601999549991,314,-0.5305176,-0.41314697,0.11541748
1601999550070,315,-0.36083984,-0.2041626,0.18255615
1601999550149,316,-0.14282227,-0.55548096,0.45306396
1601999550227,317,-0.48364258,-0.57769775,0.5031128
1601999550306,318,-1.2050781,-1.1148071,0.32366943
1601999550385,319,-0.9836426,-0.6748657,-0.144104
1601999550464,320,-0.73461914,-0.7493286,-0.15167236
1601999550542,321,-0.6689453,-0.61846924,-0.019836426
1601999550621,322,-0.7626953,-0.5462036,0.015075684
1601999550700,323,-0.9628906,-0.7341919,0.08270264
1601999550779,324,-0.9602051,-0.62701416,-0.19244385
1601999550857,325,-1.2165527,-0.7481079,-0.12945557
1601999550936,326,-1.3173828,-0.5991821,0.16229248
1601999551015,327,-1.3505859,-0.65997314,0.24847412
1601999551094,328,-1.0722656,-0.4998169,0.12884521
1601999551172,329,-0.65063477,-0.65826416,0.0065307617
1601999551251,330,-0.36035156,-0.30743408,0.06976318
1601999551330,331,-0.25952148,-0.19366455,0.27679443
1601999551409,332,-0.1953125,-0.49102783,0.46331787
1601999551487,333,-0.986084,-0.9295044,0.5001831
1601999551566,334,-0.8029785,-0.8213501,0.1461792
1601999551645,335,-1.0253906,-0.75860596,0.031921387
1601999551724,336,-0.8222656,-0.6956177,-0.07110596
1601999551802,337,-0.69140625,-0.567688,-0.030334473
1601999551881,338,-0.78149414,-0.59552,4.272461E-4
1601999551960,339,-0.87646484,-0.5823364,0.029724121
1601999552039,340,-0.89208984,-0.6050415,-0.05230713
1601999552117,341,-1.0014648,-0.7124634,-0.23834229
1601999552196,342,-1.4536133,-0.569397,-0.023254395
1601999552275,343,-1.2978516,-0.7337036,0.17254639
1601999552354,344,-1.1750488,-0.548645,0.05609131
1601999552432,345,-0.8354492,-0.49517822,0.2592163
1601999552511,346,-0.64208984,-0.46636963,0.16131592
1601999552590,347,-0.61743164,-0.4649048,0.19940186
1601999552669,348,-0.31713867,-0.32061768,0.25482178
1601999552747,349,-0.1508789,-0.44805908,0.39569092
1601999552826,350,-0.5258789,-0.767395,0.5289917
1601999552905,351,-1.0507812,-0.97052,0.23309326
1601999552984,352,-1.0273438,-0.8225708,0.061950684
1601999553062,353,-0.8798828,-0.64141846,-0.07647705
1601999553141,354,-0.6020508,-0.63848877,-0.06866455
1601999553220,355,-0.7504883,-0.534729,0.0060424805
1601999553299,356,-0.9550781,-0.6392212,0.06561279
1601999553377,357,-0.9951172,-0.66363525,-0.11773682
1601999553456,358,-1.0742188,-0.78692627,-0.13653564
1601999553535,359,-1.2832031,-0.6704712,0.07757568
1601999553614,360,-1.2766113,-0.60528564,0.27825928
1601999553692,361,-1.0141602,-0.6165161,0.081970215
1601999553771,362,-0.7248535,-0.56500244,0.20599365
1601999553850,363,-0.6274414,-0.49224854,0.18011475
1601999553929,364,-0.32910156,-0.34454346,0.22454834
1601999554007,365,-0.13378906,-0.42193604,0.38787842
1601999554086,366,-0.29516602,-0.6062622,0.51898193
1601999554165,367,-1.1760254,-1.1148071,0.46063232
1601999554244,368,-0.9135742,-0.6399536,0.024841309
1601999554322,369,-0.8171387,-0.67071533,-0.08306885
1601999554401,370,-0.61621094,-0.64923096,-0.013000488
1601999554480,371,-0.7529297,-0.6633911,-0.0051879883
1601999554559,372,-0.9663086,-0.62872314,0.026306152
1601999554637,373,-0.8757324,-0.69366455,-0.031799316
1601999554716,374,-0.99780273,-0.65093994,-0.12237549
1601999554795,375,-1.1777344,-0.7053833,-0.113098145
1601999554874,376,-1.1489258,-0.7439575,-0.0051879883
1601999554952,377,-1.1809082,-0.6123657,0.3139038
1601999555031,378,-1.0664062,-0.6206665,0.038513184
1601999555110,379,-0.7861328,-0.55548096,0.27386475
1601999555189,380,-0.5932617,-0.55255127,0.1630249
1601999555267,381,-0.25097656,-0.30133057,0.23162842
1601999555346,382,-0.10083008,-0.40118408,0.38372803
1601999555425,383,-0.14404297,-0.6296997,0.5543823
