"# PDIoT walking data"
"# Start time: 20180925T194726"
"# Group: A"
"# Subject: Teo"
"# Activity type: Walking (level ground)"
"# Sensor position: Upper Leg"
"# Side of body: Right"
"# Sensor mounting: Body"
"# Number of steps: 100"
"# Notes: "
""
"timestamp","seq","accel_x","accel_y","accel_z","gyro_x","gyro_y","gyro_z"
"1537901246770","0","0.46191406","-0.9589844","0.39160156","-98.375","-71.46875","52.90625"
"1537901246771","1","-0.33691406","-0.921875","0.10839844","-51.625","-111.1875","39.65625"
"1537901246772","2","-0.29296875","-0.734375","0.021484375","-47.78125","38.5625","23.1875"
"1537901246772","3","-0.052734375","-0.6845703","-0.1875","-44.53125","131.21875","-3.0625"
"1537901246773","4","0.018554688","-0.80566406","-0.328125","-23.90625","99.6875","-12.40625"
"1537901246969","5","0.08984375","-0.68066406","-0.36328125","-0.21875","71.0625","-14.40625"
"1537901246970","6","0.14453125","-0.8457031","-0.40820312","31.5625","12.53125","-7.75"
"1537901246970","7","0.12792969","-1.0527344","-0.51660156","14.90625","6.40625","-1.59375"
"1537901246970","8","-0.103515625","-1.0410156","-0.54589844","-19.21875","3.96875","8.71875"
"1537901246971","9","-0.12109375","-0.94140625","-0.4580078","-32.625","26.3125","14.59375"
"1537901247168","10","-0.034179688","-0.9667969","-0.43652344","-30.25","27.46875","32.65625"
"1537901247169","11","0.24121094","-1.0048828","-0.35253906","-0.09375","13.25","23.125"
"1537901247169","12","0.2763672","-1.6503906","-0.93066406","-11.34375","-73.71875","6.53125"
"1537901247171","13","-0.22851562","-0.703125","0.53808594","12.96875","-9.75","-9.90625"
"1537901247171","14","0.005859375","-0.3515625","-0.12792969","74.125","-37.84375","2.4375"
"1537901247368","15","-0.18359375","-1.3925781","0.5097656","93.65625","9.46875","-24.28125"
"1537901247764","16","0.061523438","-0.99316406","0.11816406","46.71875","69.28125","-18.4375"
"1537901247765","17","0.33398438","-0.78027344","0.14160156","64.65625","20.21875","-5.375"
"1537901247765","18","0.19824219","-0.9296875","0.13378906","91.875","-101.875","-13.8125"
"1537901247766","19","-0.15332031","-1.1142578","0.18554688","93.09375","-133.3125","-11.96875"
"1537901247766","20","-0.24316406","-0.9003906","0.16992188","73.875","-85.25","-8.65625"
"1537901247766","21","-0.09667969","-0.9589844","0.18652344","76.5","-61.6875","-16.0"
"1537901247768","22","0.03515625","-0.9970703","0.15039062","78.375","-48.6875","-18.75"
"1537901247768","23","0.099609375","-0.89746094","0.20507812","82.28125","-54.6875","-26.6875"
"1537901247769","24","0.10546875","-0.9003906","0.18945312","91.625","-82.40625","-29.25"
"1537901247964","25","-9.765625E-4","-0.96777344","0.19921875","74.84375","-83.75","-28.5"
"1537901247964","26","-0.44628906","-1.5957031","-0.09472656","-12.5","-31.5625","22.75"
"1537901247965","27","-0.3173828","-1.2666016","-0.40820312","-85.25","20.5625","47.78125"
"1537901247966","28","0.37695312","-1.0107422","-0.2919922","-183.15625","-48.21875","49.9375"
"1537901247966","29","0.44726562","-1.3222656","0.9003906","-103.0625","15.375","80.3125"
"1537901247966","30","-0.13183594","-1.4902344","0.43066406","-123.9375","-2.4375","89.96875"
"1537901248361","31","0.0048828125","-1.4404297","0.42871094","-126.5625","60.96875","74.9375"
"1537901248361","32","0.25976562","-1.0097656","0.30664062","-117.46875","128.25","48.34375"
"1537901248362","33","0.26367188","-0.6767578","0.38671875","-72.375","106.09375","46.03125"
"1537901248362","34","0.25390625","-0.4609375","0.3388672","-33.90625","81.0","7.25"
"1537901248362","35","0.125","-0.421875","0.15722656","-9.75","90.46875","-9.03125"
"1537901248362","36","0.15820312","-0.6269531","0.13476562","-19.09375","103.875","-1.59375"
"1537901248363","37","0.0625","-0.8486328","-0.19335938","-5.15625","47.5625","10.875"
"1537901248365","38","-0.42871094","-0.9423828","-0.9091797","-10.59375","1.71875","16.71875"
"1537901248365","39","-0.21484375","-1.2958984","-0.6464844","5.9375","64.9375","7.1875"
"1537901248560","40","-0.024414062","-1.1230469","-0.4326172","-46.84375","80.9375","34.96875"
"1537901248560","41","0.14648438","-0.78515625","-0.09375","-21.90625","32.59375","29.0"
"1537901248759","42","0.14257812","-0.97558594","-0.09765625","39.625","-41.4375","5.71875"
"1537901248759","43","-0.86621094","-1.9980469","-0.81152344","1.375","79.84375","-30.53125"
"1537901248759","44","0.8076172","-0.296875","1.2441406","-79.9375","106.21875","-11.84375"
"1537901248759","45","0.06347656","-0.6386719","0.26953125","57.6875","-66.34375","13.65625"
"1537901248759","46","-0.14355469","-1.4277344","0.2841797","76.4375","-77.21875","-2.4375"
"1537901248760","47","-0.14941406","-0.9199219","0.26660156","85.53125","-54.0625","-20.5625"
"1537901248762","48","-0.015625","-0.96484375","0.16992188","98.09375","-34.3125","-24.90625"
"1537901248763","49","0.19628906","-0.90234375","0.1875","109.15625","-11.59375","-38.03125"
"1537901248763","50","0.12597656","-0.97265625","0.17871094","100.46875","-48.28125","-38.28125"
"1537901248956","51","-0.1171875","-0.9765625","0.06933594","93.78125","-63.90625","-38.625"
"1537901248957","52","-0.034179688","-0.9667969","0.13867188","93.78125","-59.6875","-31.8125"
"1537901249157","53","0.080078125","-0.93066406","0.14257812","72.15625","-59.375","-38.09375"
"1537901249353","54","0.04296875","-0.9394531","0.12011719","69.125","-61.28125","-38.15625"
"1537901249355","55","-0.1015625","-1.0654297","0.14453125","55.25","-48.15625","-29.84375"
"1537901249355","56","-0.10449219","-1.2822266","0.328125","30.53125","-40.84375","-16.25"
"1537901249355","57","0.0029296875","-1.2080078","0.22753906","23.8125","-40.59375","-7.15625"
"1537901249356","58","-0.13671875","-1.5947266","0.12011719","9.28125","-50.34375","-3.78125"
"1537901249357","59","-0.49023438","-1.3027344","-0.26953125","-47.71875","-0.375","29.78125"
"1537901249361","60","-0.13574219","-1.1074219","-0.09863281","-146.03125","11.59375","49.96875"
"1537901249361","61","0.41210938","-1.1376953","0.6308594","-129.5625","65.90625","75.375"
"1537901249362","62","0.42578125","-1.4306641","0.44628906","-120.15625","50.65625","84.59375"
"1537901249751","63","0.15625","-0.7783203","0.2919922","-98.375","123.65625","60.0625"
"1537901249952","64","0.17285156","-0.51464844","0.4033203","-66.4375","124.03125","33.03125"
"1537901249953","65","0.30371094","-0.49316406","0.21679688","-33.6875","114.5","-2.375"
"1537901250349","66","0.17480469","-0.5996094","-0.13574219","-15.375","110.65625","4.34375"
"1537901250349","67","0.109375","-0.9667969","-0.3076172","5.875","-14.8125","26.96875"
"1537901250351","68","-0.18652344","-0.7011719","-0.35546875","-10.59375","-43.5625","14.78125"
"1537901250352","69","-0.2919922","-0.94628906","-0.44921875","16.4375","50.46875","-3.46875"
"1537901250352","70","-0.4345703","-1.4052734","-0.37597656","20.84375","84.78125","27.34375"
"1537901250352","71","-0.017578125","-0.9814453","-0.45996094","-34.53125","54.9375","14.15625"
"1537901250354","72","-0.31152344","-1.9980469","-0.82714844","-44.96875","31.3125","-3.0625"
"1537901250355","73","0.036132812","-0.89160156","0.1875","100.3125","-22.75","-36.75"
"1537901250355","74","0.07324219","-0.9091797","0.15136719","108.125","-30.8125","-42.5"
"1537901250547","75","0.016601562","-0.9814453","0.19140625","104.5","-59.1875","-31.75"
"1537901250549","76","-0.21679688","-1.5214844","-0.00390625","-20.0","-61.40625","10.4375"
"1537901250549","77","-0.58496094","-1.2275391","-0.07324219","-77.75","-20.75","28.0625"
"1537901250549","78","0.1796875","-1.0234375","0.29785156","-147.75","87.59375","32.46875"
"1537901250549","79","0.17871094","-1.3017578","0.6513672","-115.46875","37.65625","52.65625"
"1537901250550","80","0.12988281","-1.2246094","0.3466797","-102.34375","52.125","65.125"
"1537901250746","81","-0.09082031","-1.1835938","0.48535156","-95.75","77.28125","65.90625"
"1537901250746","82","0.07128906","-0.8828125","0.37890625","-85.5","115.78125","54.375"
"1537901250746","83","0.049804688","-0.7246094","0.35253906","-66.15625","122.875","48.75"
"1537901250747","84","0.09082031","-0.6503906","0.3154297","-39.71875","151.3125","34.46875"
"1537901250748","85","0.18164062","-0.68652344","0.08105469","-21.78125","144.21875","22.6875"
"1537901250943","86","0.22753906","-0.8027344","-0.16210938","-0.84375","85.28125","16.65625"
"1537901250944","87","0.0126953125","-0.74902344","-0.24121094","-0.65625","48.59375","6.09375"
"1537901250945","88","-0.23535156","-0.84277344","-0.30273438","8.375","84.59375","-10.75"
"1537901250945","89","-0.17089844","-1.2109375","-0.32617188","10.8125","128.25","13.78125"
"1537901250946","90","-0.18066406","-1.1689453","-0.46777344","-33.78125","63.0625","24.15625"
"1537901251142","91","-0.020507812","-0.9267578","-0.28515625","-40.21875","108.59375","10.25"
"1537901251342","92","0.28125","-0.94921875","-0.04296875","-7.625","83.4375","24.65625"
"1537901251342","93","0.7265625","-1.4179688","-0.2265625","-16.65625","-49.8125","13.1875"
"1537901251343","94","-0.2685547","-0.96191406","-0.013671875","10.53125","-56.09375","29.28125"
"1537901251343","95","-0.076171875","-0.7597656","0.7832031","68.125","-49.75","-2.75"
"1537901251343","96","-0.0390625","-0.89746094","0.26464844","73.75","33.5","-15.5625"
"1537901251344","97","0.09375","-1.1474609","0.13476562","62.28125","89.125","-20.4375"
"1537901251345","98","0.2265625","-0.90527344","0.14550781","69.65625","19.71875","-10.6875"
"1537901251345","99","0.25683594","-0.90234375","0.13671875","104.5625","-82.5625","-3.1875"
"1537901251346","100","0.07128906","-0.92285156","0.25878906","107.75","-146.3125","6.28125"
"1537901251540","101","-0.13867188","-0.9892578","0.24023438","86.03125","-129.5","-5.0625"
"1537901251739","102","-0.27441406","-1.0283203","0.16601562","84.84375","-112.4375","-8.90625"
"1537901251741","103","-0.15917969","-0.9345703","0.19726562","88.15625","-85.1875","-11.34375"
"1537901251742","104","0.115234375","-0.9316406","0.3095703","64.96875","-45.46875","-18.0625"
"1537901251742","105","0.078125","-0.9638672","0.13964844","63.5","-84.65625","-13.375"
"1537901251742","106","-0.17285156","-1.0253906","0.080078125","58.78125","-91.65625","-1.21875"
"1537901251743","107","-0.31054688","-1.1455078","0.19433594","19.84375","-63.03125","12.15625"
"1537901251743","108","-0.0087890625","-1.1708984","0.18652344","8.75","-70.3125","32.03125"
"1537901251744","109","-0.099609375","-1.4267578","0.11816406","-13.84375","-67.6875","45.78125"
"1537901251745","110","-0.13378906","-1.3222656","-0.087890625","-67.4375","-23.4375","66.84375"
"1537901251938","111","0.7470703","-1.1728516","-0.051757812","-160.9375","5.625","70.1875"
"1537901252139","112","0.99316406","-1.5703125","0.640625","-118.28125","-79.78125","71.90625"
"1537901252140","113","0.6279297","-1.4375","0.36035156","-123.5625","-173.53125","81.1875"
"1537901252140","114","0.1796875","-1.2714844","0.33496094","-134.9375","-132.3125","62.75"
"1537901252140","115","0.21679688","-0.7910156","0.32617188","-128.8125","-64.375","35.59375"
"1537901252336","116","0.1796875","-0.5917969","0.37890625","-103.375","-53.21875","23.625"
"1537901252337","117","0.103515625","-0.53808594","0.4111328","-52.46875","-58.15625","-2.8125"
"1537901252337","118","9.765625E-4","-0.4970703","0.3408203","-23.28125","-13.96875","-13.8125"
"1537901252337","119","-0.15820312","-0.4267578","0.14941406","-9.625","-27.21875","4.8125"
"1537901252338","120","-0.4921875","-0.859375","-0.49121094","56.65625","-117.96875","27.875"
"1537901252338","121","-0.7480469","-1.0175781","-1.1035156","14.96875","-125.78125","7.1875"
"1537901252340","122","-0.38476562","-1.3222656","-0.76171875","24.8125","3.46875","-25.625"
"1537901252340","123","0.2548828","-0.96484375","-0.52246094","-35.375","52.5625","28.0"
"1537901252340","124","0.60058594","-0.58984375","0.14941406","-49.96875","-62.0","0.96875"
"1537901252534","125","-0.6171875","-1.7578125","-0.13964844","109.03125","-68.125","-50.40625"
"1537901252535","126","0.15332031","-1.1552734","0.14257812","-67.4375","26.0625","14.21875"
"1537901252535","127","0.328125","-0.43554688","0.6611328","71.1875","-32.09375","5.6875"
"1537901252535","128","-0.046875","-0.98535156","0.37402344","62.9375","-120.28125","-11.0"
"1537901252536","129","0.08300781","-1.1005859","0.2861328","74.65625","-109.4375","-24.59375"
"1537901252537","130","-0.028320312","-0.8574219","0.2919922","90.03125","-126.09375","-25.75"
"1537901252735","131","-0.07128906","-0.8769531","0.27734375","91.75","-112.65625","-41.03125"
"1537901252736","132","-0.16015625","-1.0576172","0.21582031","106.59375","-128.46875","-35.03125"
"1537901252736","133","-0.27929688","-0.9589844","0.23046875","88.9375","-128.59375","-27.59375"
"1537901252736","134","-0.17089844","-0.9794922","0.14648438","72.53125","-140.4375","-24.65625"
"1537901252736","135","-0.041015625","-1.0263672","0.22949219","61.40625","-78.3125","-33.75"
"1537901253130","136","-0.26367188","-1.0263672","0.029296875","41.46875","-34.0625","-20.375"
"1537901253133","137","-0.19726562","-1.0986328","0.12402344","31.625","-55.1875","-8.90625"
"1537901253133","138","-0.0546875","-1.1025391","0.16503906","0.375","-48.03125","21.0"
"1537901253134","139","0.13378906","-1.2119141","0.119140625","-6.875","-68.53125","27.875"
"1537901253134","140","-0.20117188","-1.3320312","-0.02734375","-32.625","-84.21875","43.21875"
"1537901253134","141","-0.15136719","-1.2548828","-0.13867188","-104.84375","-19.96875","63.96875"
"1537901253135","142","0.65527344","-1.1816406","0.01953125","-159.84375","11.0625","72.4375"
"1537901253135","143","0.9472656","-1.7265625","0.7421875","-143.0","-34.1875","73.375"
"1537901253135","144","0.33007812","-1.4375","0.26171875","-136.9375","-148.0","81.34375"
"1537901253330","145","0.080078125","-0.71191406","0.2109375","-118.21875","28.03125","51.75"
"1537901253330","146","0.12207031","-0.5263672","0.33007812","-90.3125","48.03125","37.15625"
"1537901253331","147","0.23046875","-0.4609375","0.3876953","-37.03125","33.21875","-8.4375"
"1537901253331","148","0.15625","-0.4140625","0.23144531","1.59375","37.40625","-17.875"
"1537901253331","149","-0.119140625","-0.62109375","-0.22167969","27.53125","-13.71875","-8.71875"
"1537901253528","150","-0.41992188","-1.1367188","-0.8330078","57.34375","-44.5","27.53125"
"1537901253529","151","-0.24023438","-1.0996094","-0.88964844","22.125","-49.8125","-24.125"
"1537901253529","152","-0.38476562","-1.5009766","-0.66796875","-10.59375","114.5625","-38.09375"
"1537901253529","153","0.3955078","-0.88378906","-0.0859375","-6.625","80.8125","10.6875"
"1537901253727","154","0.85546875","-1.3486328","0.31054688","24.5625","-117.78125","-4.40625"
"1537901253728","155","-0.7558594","-1.4287109","-0.22851562","37.1875","-53.46875","-9.34375"
"1537901253730","156","0.1640625","-0.36328125","0.6982422","20.34375","-90.34375","5.1875"
"1537901253732","157","-0.026367188","-0.82128906","0.33691406","43.46875","-64.375","-18.8125"
"1537901253732","158","-0.16113281","-1.2509766","0.2685547","74.59375","-13.5","-29.53125"
"1537901253732","159","0.13867188","-0.8671875","0.203125","82.78125","-35.59375","-27.34375"
"1537901253925","160","0.09082031","-0.8886719","0.18359375","110.6875","-82.40625","-30.03125"
"1537901253927","161","-0.0078125","-0.93847656","0.22363281","109.8125","-109.96875","-30.875"
"1537901253927","162","-0.07714844","-1.0400391","0.24023438","96.875","-126.53125","-22.84375"
"1537901253927","163","-0.19140625","-0.9736328","0.12890625","80.71875","-128.0625","-19.78125"
"1537901253927","164","-0.08984375","-0.9199219","0.21191406","62.21875","-101.75","-27.59375"
"1537901254126","165","-0.0126953125","-0.9794922","0.22265625","61.71875","-56.34375","-33.875"
"1537901254126","166","-0.14453125","-0.9560547","0.020507812","52.4375","-57.90625","-28.4375"
"1537901254127","167","-0.22851562","-1.2402344","0.18554688","18.5","-27.09375","-8.1875"
"1537901254127","168","0.038085938","-1.2744141","0.125","0.1875","-41.125","11.90625"
"1537901254127","169","-0.15234375","-1.5234375","0.051757812","-20.375","-39.5","18.3125"
"1537901254323","170","-0.41503906","-1.2958984","-0.14257812","-75.1875","28.3125","36.5625"
"1537901254324","171","0.2734375","-1.1474609","-0.12597656","-163.125","52.3125","36.9375"
"1537901254324","172","0.45507812","-1.3730469","0.8359375","-106.1875","50.96875","58.65625"
"1537901254325","173","0.09765625","-1.375","0.2890625","-124.625","-36.4375","74.09375"
"1537901254328","174","-0.16601562","-1.3857422","0.38671875","-124.0","38.625","66.65625"
"1537901254521","175","0.203125","-0.8544922","0.31445312","-119.625","102.125","44.5"
"1537901254522","176","0.17578125","-0.55078125","0.28222656","-94.46875","97.59375","39.375"
"1537901254523","177","0.15722656","-0.46875","0.33007812","-55.03125","86.1875","17.21875"
"1537901254523","178","0.2783203","-0.48535156","0.21484375","-20.25","109.125","-8.3125"
"1537901254720","179","0.26171875","-0.49902344","0.028320312","13.25","33.5","-0.90625"
"1537901254723","180","0.047851562","-0.8564453","-0.36914062","30.71875","-68.1875","6.21875"
"1537901254724","181","-0.41796875","-1.1503906","-0.7548828","21.5625","-17.40625","-8.65625"
"1537901254725","182","-0.40039062","-1.4248047","-0.6123047","26.09375","50.96875","7.25"
"1537901254919","183","-0.2109375","-1.1328125","-0.4501953","-40.75","50.96875","21.125"
"1537901254920","184","0.07910156","-0.6542969","0.056640625","-28.5","52.625","18.78125"
"1537901254921","185","0.24316406","-1.6767578","-0.33789062","14.96875","-11.53125","-26.90625"
"1537901254921","186","0.44140625","-1.0048828","0.4501953","-68.46875","49.3125","-22.09375"
"1537901254922","187","0.049804688","-0.48046875","0.7392578","81.125","-62.8125","2.875"
"1537901254922","188","-0.24023438","-1.0703125","0.25878906","84.625","-80.25","-5.6875"
"1537901255118","189","-0.11621094","-1.0986328","0.21484375","80.71875","-29.71875","-28.8125"
"1537901255119","190","-0.028320312","-0.89941406","0.18652344","100.3125","-22.59375","-30.03125"
"1537901255119","191","0.17675781","-0.84765625","0.12988281","103.65625","-3.34375","-42.96875"
"1537901255120","192","0.21875","-0.984375","0.15527344","116.78125","-43.15625","-46.8125"
"1537901255121","193","-0.049804688","-1.0039062","0.13574219","97.25","-79.40625","-39.5"
"1537901255317","194","-0.06738281","-0.91015625","0.13085938","89.375","-97.28125","-35.09375"
"1537901255317","195","0.10253906","-0.91796875","0.14648438","74.0625","-58.21875","-39.96875"
"1537901255317","196","-0.29882812","-1.21875","-0.08105469","40.78125","1.96875","-25.9375"
"1537901255318","197","-0.21289062","-1.1796875","0.28515625","17.53125","-59.5","-1.90625"
"1537901255319","198","-0.059570312","-1.3017578","0.15917969","3.4375","-16.0625","4.4375"
"1537901255517","199","-0.26953125","-1.3916016","-0.017578125","-29.53125","-3.71875","22.21875"
"1537901255518","200","-0.10546875","-1.203125","-0.4560547","-112.15625","23.3125","35.75"
"1537901255518","201","0.4248047","-1.0517578","0.27539062","-134.25","34.5","55.21875"
"1537901255518","202","0.50683594","-1.5527344","0.640625","-126.1875","-15.0","73.3125"
"1537901255519","203","0.053710938","-1.515625","0.21679688","-127.71875","22.09375","74.28125"
"1537901255716","204","0.16601562","-1.1162109","0.39160156","-113.3125","41.25","67.0"
"1537901255717","205","0.23632812","-0.6582031","0.26757812","-113.625","65.0625","48.875"
"1537901255717","206","0.14453125","-0.42773438","0.24902344","-72.625","45.53125","48.46875"
"1537901255717","207","0.15917969","-0.47265625","0.3125","-27.8125","57.1875","8.84375"
"1537901255718","208","0.2109375","-0.50097656","0.171875","-9.4375","92.96875","-1.65625"
"1537901256112","209","0.053710938","-0.8203125","-0.25683594","26.4375","17.34375","10.0"
"1537901256112","210","-0.31445312","-1.0488281","-0.7558594","0.6875","-54.0625","17.5625"
"1537901256310","211","-0.26953125","-1.0234375","-0.70703125","15.53125","28.09375","-16.1875"
"1537901256512","212","-0.3388672","-1.4414062","-0.5390625","26.3125","80.875","14.875"
"1537901256513","213","0.10839844","-0.890625","-0.16210938","-12.875","56.34375","25.75"
"1537901256513","214","0.24023438","-0.95703125","0.2265625","36.8125","-33.625","7.625"
"1537901256514","215","-0.46972656","-1.890625","-0.41015625","24.90625","64.59375","-36.75"
"1537901256514","216","0.828125","-0.33691406","0.56347656","-59.96875","42.96875","0.71875"
"1537901256515","217","-0.10449219","-0.73046875","0.63183594","84.75","-98.1875","9.8125"
"1537901256515","218","0.08105469","-1.03125","0.23535156","98.09375","-55.53125","-32.40625"
"1537901256515","219","-0.06738281","-0.87890625","0.15039062","104.3125","-51.21875","-32.0625"
"1537901256515","220","0.0087890625","-0.8222656","0.17089844","81.75","-92.78125","-37.40625"
"1537901256708","221","-0.32128906","-1.4140625","-0.1796875","-49.34375","-33.75","29.40625"
"1537901256709","222","-0.140625","-1.2275391","-0.24707031","-143.0","-8.125","38.5"
"1537901256709","223","0.4873047","-1.1152344","0.65625","-138.28125","89.125","59.3125"
"1537901256709","224","0.3798828","-1.4150391","0.37402344","-144.4375","-40.15625","61.75"
"1537901257107","225","-0.15136719","-1.4345703","0.36328125","-116.8125","8.96875","67.0"
"1537901257108","226","0.15917969","-0.9091797","0.36914062","-115.71875","65.96875","50.78125"
"1537901257108","227","0.10546875","-0.6279297","0.30273438","-100.1875","99.5","45.28125"
"1537901257108","228","0.11816406","-0.42382812","0.36816406","-71.03125","72.15625","34.65625"
"1537901257109","229","0.25195312","-0.4423828","0.3486328","-24.46875","78.75","5.5625"
"1537901257109","230","0.18359375","-0.54785156","0.13964844","9.25","63.90625","5.4375"
"1537901257110","231","0.060546875","-0.8183594","-0.23339844","34.6875","-27.21875","4.6875"
"1537901257110","232","-0.49414062","-1.1484375","-0.85058594","21.9375","-7.3125","5.96875"
"1537901257111","233","-0.40039062","-1.453125","-0.8876953","27.78125","52.6875","-3.375"
"1537901257305","234","-0.15820312","-1.1669922","-0.45410156","-53.09375","93.5625","31.5"
"1537901257305","235","0.33007812","-1.6044922","0.11230469","66.3125","-37.21875","-50.3125"
"1537901257306","236","0.20898438","-0.96875","0.27246094","-62.96875","104.9375","-24.0"
"1537901257306","237","0.21582031","-0.46289062","0.9160156","65.6875","-53.71875","-0.6875"
"1537901257307","238","-0.09082031","-1.0908203","0.32617188","94.25","-81.21875","-11.125"
"1537901257307","239","0.04296875","-1.0810547","0.23535156","96.09375","-49.875","-35.15625"
"1537901257704","240","0.041015625","-0.9248047","0.22851562","116.59375","-69.03125","-30.40625"
"1537901257705","241","0.040039062","-0.78515625","0.16503906","115.3125","-51.5625","-45.28125"
"1537901257705","242","0.09082031","-0.99902344","0.21582031","128.0","-88.0","-41.3125"
"1537901257705","243","-0.08105469","-0.96777344","0.22265625","86.6875","-114.0625","-33.75"
"1537901257705","244","-0.0107421875","-0.9375","0.10449219","81.1875","-62.9375","-45.15625"
"1537901257705","245","-0.203125","-1.109375","-0.095703125","62.03125","-9.9375","-33.15625"
"1537901257707","246","-0.24804688","-1.2011719","0.06933594","23.6875","-34.25","-14.59375"
"1537901257708","247","-0.06738281","-1.2832031","0.25585938","9.65625","-25.9375","6.71875"
"1537901257708","248","-0.0859375","-1.4199219","0.099609375","-8.03125","-9.03125","15.75"
"1537901257901","249","0.12011719","-1.1425781","-0.2783203","-158.3125","8.5625","47.3125"
"1537901257901","250","0.56347656","-1.3632812","0.91796875","-104.34375","121.40625","70.625"
"1537901257902","251","0.24804688","-1.4355469","0.22753906","-138.78125","-6.90625","73.3125"
"1537901257902","252","0.16503906","-1.3652344","0.36035156","-110.75","-5.125","77.4375"
"1537901257902","253","0.25585938","-0.875","0.31835938","-107.34375","51.40625","55.65625"
"1537901258100","254","0.09277344","-0.56152344","0.26953125","-101.40625","81.1875","45.59375"
"1537901258101","255","0.16210938","-0.42285156","0.32910156","-68.46875","68.125","20.0625"
"1537901258101","256","0.24511719","-0.45996094","0.21191406","-27.6875","81.5","1.59375"
"1537901258101","257","0.16015625","-0.57421875","-0.087890625","12.65625","27.03125","11.21875"
"1537901258103","258","-0.12988281","-0.8828125","-0.3515625","27.65625","-73.375","19.53125"
"1537901258298","259","-0.45117188","-1.0097656","-0.65722656","20.34375","-1.9375","-11.1875"
"1537901258298","260","-0.5751953","-1.3789062","-0.69140625","40.90625","76.125","1.40625"
"1537901258298","261","-0.060546875","-1.0566406","-0.41015625","-57.21875","97.15625","18.625"
"1537901258299","262","0.5839844","-1.1972656","9.765625E-4","22.34375","0.125","5.96875"
"1537901258299","263","-0.4921875","-1.3515625","-0.20507812","-58.34375","15.625","-10.8125"
"1537901258499","264","0.7890625","-0.13671875","0.87890625","28.875","21.90625","-3.0"
"1537901258501","265","-0.024414062","-0.8066406","0.63671875","71.96875","-117.625","1.71875"
"1537901258501","266","-0.22070312","-1.3076172","0.1953125","83.8125","-41.0","-26.4375"
"1537901258501","267","0.041992188","-0.9394531","0.2685547","93.15625","-33.4375","-34.84375"
"1537901258501","268","-0.015625","-0.87890625","0.18554688","116.65625","-41.25","-37.71875"
"1537901258698","269","0.06542969","-0.90234375","0.18554688","122.21875","-39.90625","-46.625"
"1537901258698","270","0.043945312","-1.0253906","0.16992188","117.625","-70.90625","-42.25"
"1537901258698","271","-0.16308594","-1.0263672","0.06738281","86.5","-110.71875","-32.53125"
"1537901258698","272","-0.00390625","-0.9267578","0.15722656","78.8125","-89.28125","-33.34375"
"1537901258698","273","-0.028320312","-1.0097656","0.14257812","56.28125","-23.0","-32.15625"
"1537901258894","274","-0.30371094","-1.1777344","-0.06347656","44.03125","-33.875","-19.15625"
"1537901258895","275","-0.068359375","-1.3027344","0.10644531","-4.375","-13.84375","3.65625"
"1537901258895","276","-0.053710938","-1.3222656","0.0068359375","-6.15625","-36.5625","20.8125"
"1537901258896","277","-0.20800781","-1.3710938","-0.21289062","-61.1875","-24.09375","29.125"
"1537901258897","278","0.09765625","-1.2011719","-0.0146484375","-132.96875","-11.84375","36.5625"
"1537901259093","279","0.19335938","-1.3105469","0.8173828","-115.53125","49.125","56.875"
"1537901259094","280","0.024414062","-1.4658203","0.34375","-126.25","34.96875","66.71875"
"1537901259094","281","-0.020507812","-1.3476562","0.37304688","-116.625","62.8125","71.59375"
"1537901259094","282","0.26367188","-0.91796875","0.34375","-114.25","110.53125","55.40625"
"1537901259095","283","0.13574219","-0.6513672","0.28125","-94.53125","84.40625","49.875"
"1537901259291","284","0.15234375","-0.47753906","0.3388672","-62.71875","97.96875","33.625"
"1537901259291","285","0.23632812","-0.4736328","0.25","-24.625","87.59375","13.4375"
"1537901259293","286","0.23242188","-0.54003906","0.109375","18.375","45.21875","12.6875"
"1537901259293","287","0.07128906","-0.734375","-0.0859375","33.03125","-41.9375","3.0625"
"1537901259294","288","-0.4716797","-1.1621094","-0.6503906","21.6875","26.5625","-9.53125"
"1537901259492","289","-0.3935547","-1.4970703","-0.796875","9.65625","72.75","17.34375"
"1537901259492","290","-0.049804688","-1.1523438","-0.4267578","-45.21875","59.34375","30.75"
"1537901259493","291","0.17285156","-0.59277344","0.051757812","-13.65625","15.03125","28.625"
"1537901259493","292","0.26660156","-1.7216797","-0.111328125","50.75","-53.71875","-22.21875"
"1537901259493","293","-0.18945312","-1.3544922","0.056640625","-41.65625","96.5","-26.25"
"1537901259690","294","0.4892578","-0.3046875","0.55566406","60.0625","-24.65625","0.65625"
"1537901259690","295","-0.025390625","-1.0488281","0.42285156","91.21875","-86.59375","2.375"
"1537901259690","296","-0.15332031","-1.1171875","0.24023438","72.84375","-54.6875","-20.9375"
"1537901259691","297","0.0068359375","-0.8935547","0.18164062","90.53125","-53.28125","-33.15625"
"1537901259691","298","9.765625E-4","-0.8876953","0.16699219","100.0625","-42.0","-36.125"
"1537901259888","299","0.13085938","-0.9667969","0.15039062","114.09375","-61.28125","-41.5"
"1537901259889","300","-0.05859375","-0.9736328","0.13769531","97.3125","-88.0","-39.0625"
"1537901259889","301","-0.19140625","-0.9746094","0.021484375","87.375","-97.53125","-36.375"
"1537901259889","302","0.041992188","-0.89941406","0.14355469","69.78125","-84.65625","-34.5625"
"1537901259890","303","-0.19921875","-1.0546875","0.0546875","59.59375","-17.8125","-31.875"
"1537901260087","304","-0.3046875","-1.1650391","0.09765625","25.21875","-22.15625","-10.125"
"1537901260286","305","0.10253906","-1.2392578","0.25","8.375","-14.71875","11.84375"
"1537901260286","306","-0.055664062","-1.5292969","0.0048828125","0.15625","-29.46875","17.9375"
"1537901260486","307","-0.37695312","-1.3867188","-0.2998047","-72.1875","5.25","33.3125"
"1537901260683","308","0.33496094","-1.1181641","0.03515625","-140.84375","21.96875","31.0"
"1537901260683","309","0.25097656","-1.3232422","0.63964844","-111.625","27.65625","49.25"
"1537901260683","310","-0.06542969","-1.3652344","0.2919922","-121.5","26.5","61.09375"
"1537901260684","311","-0.15234375","-1.3271484","0.39160156","-115.15625","52.3125","62.375"
"1537901260685","312","0.15625","-0.8828125","0.34277344","-109.53125","102.3125","45.59375"
"1537901260686","313","0.11230469","-0.6435547","0.23730469","-89.65625","92.90625","41.375"
"1537901260687","314","0.119140625","-0.57128906","0.25683594","-62.96875","92.84375","23.6875"
"1537901260687","315","0.21679688","-0.5263672","0.16308594","-28.90625","91.75","10.1875"
"1537901260687","316","-0.33007812","-1.1347656","-0.7207031","6.1875","47.5","-34.96875"
"1537901260883","317","-0.15722656","-0.796875","0.50683594","-47.78125","22.09375","-3.90625"
"1537901260884","318","0.24804688","-0.58496094","0.24707031","49.40625","-8.34375","9.53125"
"1537901260884","319","-0.07714844","-1.2617188","0.33496094","63.4375","-23.96875","-2.1875"
"1537901261082","320","-0.020507812","-1.0390625","0.28222656","64.40625","-10.5","-21.78125"
"1537901261082","321","0.08496094","-0.9482422","0.14941406","87.71875","-9.59375","-32.71875"
"1537901261083","322","0.11425781","-0.8925781","0.107421875","98.65625","2.9375","-43.78125"
"1537901261084","323","0.06933594","-0.9472656","0.14257812","104.4375","-16.90625","-45.15625"
"1537901261084","324","-0.16113281","-1.0058594","0.064453125","89.6875","-7.8125","-46.875"
"1537901261085","325","-0.13769531","-1.0136719","0.099609375","89.0625","-8.3125","-42.5"
"1537901261085","326","-0.001953125","-0.9238281","0.10058594","68.0625","-11.03125","-39.0625"
"1537901261278","327","0.038085938","-1.0400391","-0.076171875","39.09375","22.78125","-33.28125"
"1537901261280","328","-0.041015625","-1.2539062","0.087890625","19.5","15.6875","-16.25"
"1537901261281","329","0.099609375","-1.2167969","0.140625","-4.0","-19.28125","-1.40625"
"1537901261281","330","-0.3154297","-1.5839844","-0.21289062","-31.28125","-7.75","9.46875"
"1537901261281","331","-0.15527344","-1.1875","-0.4375","-118.8125","47.96875","23.4375"
"1537901261481","332","0.080078125","-1.2373047","0.64746094","-137.375","55.3125","39.0625"
"1537901261481","333","0.12988281","-1.3105469","0.61816406","-116.875","20.375","61.59375"
"1537901261481","334","-0.39941406","-1.5136719","0.3798828","-120.71875","68.84375","61.15625"
"1537901261481","335","0.044921875","-1.0332031","0.48632812","-111.375","157.40625","55.28125"
"1537901261481","336","0.22167969","-0.75390625","0.32421875","-91.65625","139.71875","45.59375"
"1537901261677","337","0.08105469","-0.5341797","0.2841797","-58.28125","101.1875","43.03125"
"1537901262076","338","0.16699219","-0.5722656","0.2763672","-20.78125","110.28125","23.1875"
"1537901262077","339","0.2626953","-0.6669922","0.13183594","-3.53125","116.9375","13.3125"
"1537901262078","340","0.2109375","-0.7138672","0.0146484375","27.375","32.21875","9.875"
"1537901262078","341","0.045898438","-0.9580078","-0.33984375","31.6875","-5.5625","-6.53125"
"1537901262079","342","-0.3779297","-1.296875","-0.6503906","14.3125","100.96875","-14.46875"
"1537901262079","343","-0.3359375","-1.3623047","-0.5595703","-34.03125","83.6875","49.4375"
"1537901262079","344","-0.051757812","-0.91503906","-0.27929688","-38.375","42.59375","41.1875"
"1537901262079","345","0.0146484375","-0.6875","0.123046875","13.875","27.03125","33.875"
"1537901262079","346","0.16503906","-1.6748047","-0.21484375","23.15625","43.53125","-30.59375"
"1537901262273","347","0.53125","-0.7841797","0.38183594","-52.90625","84.28125","-23.6875"
"1537901262273","348","0.14941406","-0.86621094","0.14648438","99.09375","-10.75","-39.75"
"1537901262274","349","0.08105469","-0.98828125","0.15917969","104.09375","-43.5625","-44.4375"
"1537901262276","350","-0.18847656","-0.9980469","0.091796875","82.28125","-19.78125","-42.25"
"1537901262277","351","-0.13964844","-0.98535156","0.08886719","77.53125","-19.53125","-34.3125"
"1537901262277","352","0.12402344","-0.9091797","0.0703125","64.28125","-34.46875","-29.0625"
"1537901262472","353","-0.09667969","-1.1318359","-0.125","43.0625","7.625","-21.0"
"1537901262472","354","-0.12011719","-1.2177734","0.3173828","14.1875","-39.125","-9.09375"
"1537901262472","355","-0.061523438","-1.2363281","0.19238281","6.96875","-20.75","0.0"
"1537901262473","356","-0.3642578","-1.3867188","-0.0107421875","-29.15625","-8.90625","18.5"
"1537901262473","357","-0.049804688","-1.1728516","-0.35253906","-104.03125","49.25","33.03125"
"1537901262670","358","0.3251953","-1.0439453","0.25976562","-129.25","40.53125","52.96875"
"1537901262670","359","0.60058594","-1.4589844","0.52441406","-102.40625","-3.59375","75.375"
"1537901262671","360","-0.036132812","-1.3779297","0.36523438","-102.09375","-22.9375","85.5"
"1537901262672","361","0.018554688","-1.15625","0.34570312","-94.03125","50.0625","79.78125"
"1537901262673","362","0.21191406","-0.8173828","0.23828125","-90.75","100.96875","52.5625"
"1537901262870","363","0.16699219","-0.59277344","0.296875","-60.09375","94.0625","43.625"
"1537901262870","364","0.17578125","-0.5859375","0.2705078","-25.375","87.59375","20.0625"
"1537901262870","365","0.31835938","-0.57128906","0.064453125","4.59375","93.5","6.03125"
"1537901262872","366","0.20605469","-0.7236328","-0.03125","40.1875","-33.5","15.875"
"1537901262872","367","-0.06738281","-0.8847656","-0.38964844","16.9375","-82.21875","5.5"
"1537901263070","368","-0.5800781","-1.0878906","-0.55566406","18.75","32.71875","-13.625"
"1537901263071","369","-0.3544922","-1.4003906","-0.47558594","15.9375","34.71875","30.5625"
"1537901263071","370","0.01171875","-1.0136719","-0.39746094","-33.3125","0.0","10.1875"
"1537901263071","371","0.13671875","-0.8222656","9.765625E-4","13.09375","-17.40625","2.75"
"1537901263071","372","0.33007812","-1.8007812","-0.24316406","20.84375","-8.90625","-28.875"
"1537901263267","373","-0.27148438","-1.0400391","0.3251953","-26.09375","14.40625","8.25"
"1537901263267","374","0.24609375","-0.3173828","0.52734375","28.21875","-83.25","16.40625"
"1537901263267","375","0.0048828125","-1.1484375","0.21289062","61.65625","-70.8125","-4.40625"
"1537901263267","376","-0.095703125","-1.1259766","0.296875","64.09375","-61.28125","-17.875"
"1537901263268","377","0.001953125","-0.8310547","0.2265625","78.4375","-70.5","-23.0"
"1537901263466","378","0.060546875","-0.9091797","0.19824219","95.78125","-93.625","-26.75"
"1537901263466","379","0.01953125","-1.0371094","0.1796875","89.1875","-122.8125","-26.1875"
"1537901263466","380","-0.24511719","-0.9980469","0.15722656","78.6875","-135.5","-22.28125"
"1537901263664","381","-0.29589844","-0.9667969","0.12011719","76.5","-115.28125","-18.4375"
"1537901263664","382","-0.04296875","-0.9589844","0.20019531","51.46875","-80.1875","-18.125"
"1537901263665","383","-0.091796875","-0.94628906","0.09667969","35.0","-57.96875","-14.46875"
"1537901263667","384","-0.09472656","-0.9970703","0.1953125","39.6875","-66.34375","-0.3125"
"1537901263667","385","-0.171875","-1.1386719","0.23535156","17.15625","-75.0625","7.0"
"1537901263669","386","-0.17089844","-1.1660156","0.034179688","-3.875","-55.0","16.90625"
"1537901263669","387","-0.25","-1.3193359","-0.0546875","-45.5625","-55.125","40.46875"
"1537901263863","388","0.026367188","-1.2353516","-0.15625","-97.5625","-32.34375","63.65625"
"1537901264062","389","0.7558594","-1.1816406","0.07128906","-138.71875","4.46875","72.5625"
"1537901264063","390","0.96875","-1.7050781","0.66015625","-126.75","-80.625","63.65625"
"1537901264065","391","0.36132812","-1.3828125","0.28515625","-114.375","-184.4375","67.1875"
"1537901264065","392","0.072265625","-1.0478516","0.26660156","-95.6875","-110.21875","54.625"
"1537901264066","393","0.044921875","-0.70703125","0.15136719","-95.875","-12.8125","33.6875"
"1537901264066","394","0.018554688","-0.57128906","0.28320312","-79.875","10.5","16.0625"
"1537901264066","395","0.14257812","-0.5625","0.26171875","-45.09375","19.15625","-15.03125"
"1537901264067","396","0.026367188","-0.49804688","0.09863281","-18.21875","19.09375","-9.84375"
"1537901264067","397","-0.30273438","-0.71972656","-0.20703125","20.15625","-45.90625","9.46875"
"1537901264260","398","-0.30273438","-0.89160156","-0.7451172","28.34375","-83.1875","0.375"
"1537901264261","399","-0.41015625","-1.0820312","-0.74902344","27.90625","-70.6875","-44.125"
"1537901264261","400","-0.13574219","-1.3222656","-0.63964844","5.875","58.09375","-16.1875"
"1537901264262","401","0.26171875","-0.9794922","-0.2841797","-3.71875","3.59375","19.90625"
"1537901264263","402","0.51953125","-1.3486328","0.02734375","19.0","-86.71875","-14.59375"
"1537901264459","403","-0.6425781","-1.1367188","-0.017578125","30.59375","-51.5","-10.625"
"1537901264460","404","0.40625","-0.5488281","0.28515625","-11.53125","-67.4375","8.90625"
"1537901264460","405","-0.12695312","-1.1738281","0.62890625","53.65625","-67.125","-12.625"
"1537901264461","406","0.026367188","-0.9863281","0.13378906","45.0625","-42.125","-12.21875"
"1537901264461","407","0.15820312","-0.93359375","0.25683594","73.5625","-87.03125","-20.625"
"1537901264660","408","-0.037109375","-0.9482422","0.24609375","87.0625","-117.5","-26.875"
"1537901264661","409","-0.0107421875","-0.9511719","0.2109375","87.71875","-121.9375","-27.03125"
"1537901264661","410","-0.08105469","-0.9746094","0.2265625","75.59375","-121.15625","-25.8125"
"1537901264661","411","-0.22558594","-1.0175781","0.16308594","71.78125","-124.3125","-23.25"
"1537901264661","412","-0.20507812","-0.984375","0.13574219","63.5","-100.65625","-20.5"
"1537901264857","413","-0.07910156","-0.9941406","0.18164062","44.9375","-70.1875","-24.90625"
"1537901264857","414","-0.0625","-0.9638672","0.12988281","34.5","-55.1875","-20.28125"
"1537901264857","415","-0.038085938","-0.9746094","0.20996094","38.46875","-54.0","-13.375"
"1537901264858","416","-0.11816406","-1.1025391","0.13378906","21.9375","-49.25","-6.90625"
"1537901264858","417","-0.12402344","-1.1533203","-0.01953125","2.53125","-51.5625","9.6875"
"1537901265057","418","-0.24902344","-1.3095703","-0.12695312","-21.78125","-58.03125","26.78125"
"1537901265057","419","-0.28515625","-1.2109375","-0.21582031","-92.625","-29.0","51.03125"
"1537901265057","420","0.31835938","-1.21875","0.0","-148.1875","15.625","72.375"
"1537901265058","421","0.73828125","-1.6269531","0.5986328","-122.46875","-16.34375","63.15625"
"1537901265058","422","0.484375","-1.3222656","0.34375","-113.5625","-99.53125","80.5"
"1537901265254","423","-0.15234375","-1.2626953","0.22753906","-89.15625","-70.0625","74.28125"
"1537901265255","424","0.0078125","-0.78808594","0.14550781","-87.6875","58.34375","38.9375"
"1537901265255","425","0.15917969","-0.5957031","0.28808594","-73.59375","80.875","27.03125"
"1537901265255","426","0.18945312","-0.58203125","0.35742188","-39.71875","66.71875","0.84375"
"1537901265257","427","0.18847656","-0.5839844","0.13183594","-16.65625","66.59375","-11.0"
"1537901265453","428","0.02734375","-0.71777344","-0.15527344","-0.96875","59.9375","-6.90625"
"1537901265455","429","0.041015625","-0.9941406","-0.4765625","29.4375","-68.78125","12.09375"
"1537901265455","430","-0.37890625","-0.9316406","-0.6357422","21.875","-68.71875","-14.96875"
"1537901265455","431","-0.3232422","-1.1503906","-0.5986328","35.0625","8.1875","-22.21875"
"1537901265455","432","-0.16601562","-1.3212891","-0.42773438","-47.78125","80.75","18.625"
"1537901265654","433","0.27148438","-0.54785156","-0.061523438","-8.28125","-3.65625","9.875"
"1537901265654","434","0.5234375","-1.484375","0.0","88.28125","-83.84375","-38.03125"
"1537901265654","435","-0.56640625","-1.6738281","-0.14550781","-8.84375","26.25","-25.40625"
"1537901265655","436","0.5644531","-0.22558594","0.5439453","1.78125","-59.6875","7.875"
"1537901266051","437","-0.2861328","-1.0107422","0.58203125","78.375","-122.8125","-12.53125"
"1537901266052","438","-0.13574219","-1.1474609","0.20019531","61.125","-9.8125","-27.15625"
"1537901266052","439","0.103515625","-0.89160156","0.19335938","69.90625","-38.625","-27.21875"
"1537901266052","440","0.0390625","-0.90527344","0.14941406","82.0","-53.15625","-27.03125"
"1537901266054","441","0.14160156","-0.94921875","0.18554688","83.5","-71.71875","-27.15625"
"1537901266055","442","-0.0087890625","-0.9941406","0.15136719","73.0625","-97.40625","-28.09375"
"1537901266055","443","-0.18847656","-1.0029297","0.06347656","73.1875","-102.53125","-28.375"
"1537901266055","444","-0.18066406","-0.97753906","0.080078125","73.4375","-73.40625","-31.75"
"1537901266056","445","-0.11425781","-0.9609375","0.11328125","50.0625","-37.59375","-37.0625"
"1537901266248","446","-0.14648438","-1.0224609","0.12109375","43.90625","-22.34375","-33.8125"
"1537901266249","447","-0.037109375","-1.1083984","0.16015625","17.84375","12.03125","-16.65625"
"1537901266447","448","0.2626953","-1.1748047","0.21289062","11.5","-26.25","-7.5"
"1537901266447","449","-0.10644531","-1.4951172","0.05078125","0.625","-47.25","0.25"
"1537901266447","450","-0.46191406","-1.3730469","-0.18066406","-63.03125","-11.09375","21.96875"
"1537901266448","451","0.09667969","-1.078125","-0.08496094","-145.84375","59.28125","33.03125"
"1537901266449","452","0.2861328","-1.3378906","0.72265625","-110.75","41.5625","54.625"
"1537901266450","453","0.140625","-1.2753906","0.22167969","-120.09375","35.71875","63.40625"
"1537901266451","454","-0.15917969","-1.2373047","0.3701172","-107.21875","57.125","65.3125"
"1537901266451","455","0.056640625","-0.88964844","0.3076172","-109.96875","104.25","52.71875"
"1537901266452","456","0.119140625","-0.7705078","0.2919922","-88.53125","119.03125","51.9375"
"1537901266645","457","0.111328125","-0.6660156","0.31445312","-62.0","106.875","32.28125"
"1537901266646","458","0.19824219","-0.5859375","0.2529297","-24.875","110.28125","19.46875"
"1537901266646","459","0.18457031","-0.6230469","0.09472656","5.375","74.15625","19.15625"
"1537901266646","460","0.018554688","-0.83496094","-0.16796875","2.9375","7.875","0.25"
"1537901266647","461","-0.32128906","-0.9082031","-0.49414062","5.28125","67.25","-4.03125"
"1537901266845","462","-0.0126953125","-1.0429688","-0.67578125","21.9375","98.5625","-20.15625"
"1537901266845","463","-0.24609375","-1.3789062","-0.6308594","-13.59375","104.25","28.375"
"1537901266845","464","0.17773438","-0.6826172","-0.15917969","1.125","34.78125","43.8125"
"1537901266847","465","0.24902344","-1.2548828","0.15234375","77.96875","-56.46875","6.53125"
"1537901266847","466","-0.68652344","-1.9873047","-0.4423828","-55.40625","94.65625","-27.78125"
"1537901267043","467","0.70996094","-0.13085938","1.0605469","21.0625","86.0","-4.15625"
"1537901267242","468","0.07128906","-0.62109375","0.25390625","78.28125","-58.40625","4.4375"
"1537901267440","469","0.001953125","-1.5458984","0.30273438","90.84375","-45.34375","-39.25"
"1537901267441","470","-0.1015625","-0.87109375","0.18945312","89.25","-61.09375","-22.34375"
"1537901267441","471","0.0","-0.9003906","0.109375","92.375","-24.53125","-41.5625"
"1537901267442","472","0.083984375","-0.83984375","0.18261719","105.125","-13.3125","-49.625"
"1537901267442","473","-0.095703125","-1.0429688","0.23339844","101.75","-47.0","-35.09375"
"1537901267443","474","-0.076171875","-1.0068359","0.14941406","76.3125","-45.59375","-34.4375"
"1537901267444","475","0.12402344","-0.96777344","0.09082031","84.96875","-14.59375","-41.8125"
"1537901267445","476","0.047851562","-1.0302734","0.025390625","54.40625","2.8125","-31.3125"
"1537901267445","477","-0.21191406","-1.2490234","-0.12109375","21.6875","-1.8125","-14.96875"
"1537901267639","478","0.453125","-1.0263672","0.3955078","-137.96875","94.5625","54.25"
"1537901267639","479","0.421875","-1.3847656","0.48046875","-116.0625","-42.15625","63.78125"
"1537901267640","480","-0.2841797","-1.328125","0.296875","-104.71875","12.40625","75.8125"
"1537901267640","481","-0.06640625","-1.0126953","0.3798828","-110.46875","102.78125","60.84375"
"1537901267641","482","0.15234375","-0.6386719","0.3046875","-101.71875","137.625","47.53125"
"1537901267840","483","0.08105469","-0.48828125","0.3095703","-56.3125","93.6875","51.8125"
"1537901267841","484","0.1796875","-0.64453125","0.24609375","-11.875","107.1875","23.5625"
"1537901267841","485","0.23828125","-0.6513672","0.13867188","10.6875","110.65625","10.0625"
"1537901267841","486","0.2109375","-0.73046875","-0.09472656","36.15625","2.6875","8.84375"
"1537901267841","487","-0.19824219","-0.9785156","-0.51953125","30.90625","10.6875","1.875"
"1537901268039","488","-0.16308594","-1.0849609","-0.54003906","22.34375","88.75","-16.375"
"1537901268039","489","-0.2685547","-1.4072266","-0.5185547","7.03125","75.8125","18.71875"
"1537901268039","490","-0.01171875","-0.90527344","-0.30859375","-27.25","31.8125","31.5"
"1537901268039","491","0.359375","-1.0449219","0.053710938","35.96875","-10.5625","14.21875"
"1537901268039","492","-0.3564453","-1.6210938","-0.20996094","-24.625","32.21875","-18.5"
"1537901268239","493","0.54003906","-0.6064453","0.765625","-28.4375","40.65625","-2.4375"
"1537901268239","494","0.072265625","-0.6796875","0.52734375","78.5625","-55.28125","3.15625"
"1537901268239","495","-0.099609375","-1.2236328","0.328125","81.875","-52.3125","-17.9375"
"1537901268435","496","-0.051757812","-0.9785156","0.17773438","77.53125","-50.71875","-22.46875"
"1537901268435","497","0.0390625","-0.92285156","0.15136719","96.40625","-43.875","-27.28125"
"1537901268435","498","0.043945312","-0.85253906","0.18066406","93.59375","-32.84375","-36.9375"
"1537901268436","499","-0.018554688","-1.0664062","0.15917969","93.46875","-52.96875","-35.21875"
"1537901268438","500","-0.17480469","-0.98828125","0.038085938","68.4375","-37.65625","-29.4375"
"1537901268439","501","-9.765625E-4","-0.9482422","0.15527344","67.59375","-33.03125","-33.09375"
"1537901268439","502","0.1953125","-0.91796875","0.20898438","63.875","-30.4375","-36.25"
"1537901268633","503","-0.09765625","-1.0126953","-0.03125","51.90625","-11.84375","-31.375"
"1537901268633","504","-0.19433594","-1.2246094","0.19824219","10.75","-5.0625","-8.0"
"1537901268634","505","0.064453125","-1.2158203","0.16503906","2.65625","-31.5625","11.21875"
"1537901268634","506","-0.18066406","-1.4306641","-0.029296875","-16.46875","-39.1875","17.15625"
"1537901268832","507","-0.3310547","-1.3046875","-0.26660156","-76.53125","11.71875","35.40625"
"1537901268833","508","0.29882812","-1.0888672","0.016601562","-153.5","41.625","40.65625"
"1537901268834","509","0.390625","-1.5195312","0.7265625","-98.25","1.71875","67.5625"
"1537901268834","510","0.057617188","-1.3925781","0.27734375","-114.0","7.375","75.25"
"1537901268834","511","-0.07324219","-1.2216797","0.33691406","-108.375","47.375","66.59375"
"1537901268835","512","0.18066406","-0.7636719","0.2734375","-107.46875","109.3125","44.5"
"1537901269031","513","0.19726562","-0.5722656","0.24511719","-82.625","87.28125","43.21875"
"1537901269033","514","0.16796875","-0.54296875","0.30664062","-42.15625","66.09375","15.25"
"1537901269034","515","0.23339844","-0.5253906","0.23339844","-5.09375","80.09375","-2.4375"
"1537901269034","516","0.2763672","-0.56347656","0.13085938","19.125","42.59375","-3.0625"
"1537901269034","517","0.021484375","-0.9423828","-0.44726562","43.34375","-42.40625","-5.375"
"1537901269229","518","-0.4326172","-1.2285156","-0.9423828","21.0625","-1.53125","-3.3125"
"1537901269229","519","-0.46679688","-1.4150391","-0.68652344","-2.65625","73.125","12.3125"
"1537901269229","520","0.0048828125","-0.8466797","-0.20214844","-45.34375","66.09375","40.875"
"1537901269231","521","0.28808594","-0.8310547","0.09863281","24.4375","-26.65625","17.5625"
"1537901269231","522","-0.29882812","-1.7783203","-0.31445312","-7.96875","44.875","-24.28125"
"1537901269428","523","0.6376953","-0.6201172","0.5761719","-14.875","65.8125","-5.75"
"1537901269428","524","0.052734375","-0.62597656","0.5371094","80.59375","-80.9375","4.625"
"1537901269428","525","-0.14355469","-1.2568359","0.31054688","74.71875","-49.0","-14.71875"
"1537901269628","526","-0.059570312","-1.0009766","0.25","72.71875","-41.1875","-19.90625"
"1537901269629","527","0.03125","-0.9345703","0.18359375","92.5","-50.28125","-27.15625"
"1537901269629","528","0.13574219","-0.8623047","0.17675781","106.53125","-51.5625","-38.625"
"1537901269631","529","0.053710938","-0.9980469","0.2109375","102.9375","-70.84375","-37.53125"
"1537901269632","530","-0.18457031","-0.9951172","0.12890625","84.0625","-85.5625","-33.375"
"1537901269632","531","-0.12011719","-0.98828125","0.12109375","76.3125","-74.8125","-31.1875"
"1537901269632","532","0.0390625","-1.0087891","0.24023438","66.5","-27.46875","-34.625"
"1537901269825","533","-0.10546875","-0.9560547","-0.06347656","46.90625","-24.21875","-23.125"
"1537901269826","534","-0.25585938","-1.2226562","0.09375","26.03125","-21.65625","-9.21875"
"1537901269827","535","-0.020507812","-1.2685547","0.13183594","-2.71875","-23.0625","18.25"
"1537901269827","536","-0.09277344","-1.4394531","0.018554688","-13.78125","-35.65625","22.28125"
"1537901269830","537","-0.31054688","-1.2744141","-0.22558594","-65.21875","10.9375","39.375"
"1537901270025","538","0.4638672","-1.1201172","0.103515625","-145.25","27.46875","40.65625"
"1537901270026","539","0.4140625","-1.1943359","0.6425781","-116.1875","32.28125","53.9375"
"1537901270026","540","0.061523438","-1.4521484","0.25683594","-120.03125","-33.0625","68.34375"
"1537901270027","541","-0.09277344","-1.2978516","0.37109375","-100.875","7.4375","68.0625"
"1537901270028","542","0.18359375","-0.8642578","0.27539062","-98.84375","91.375","49.5625"
"1537901270222","543","0.1484375","-0.5488281","0.22753906","-77.625","70.375","39.59375"
"1537901270223","544","0.11816406","-0.50878906","0.296875","-47.90625","76.34375","20.75"
"1537901270224","545","0.25683594","-0.56933594","0.119140625","-10.71875","89.25","1.59375"
"1537901270224","546","0.23046875","-0.67871094","-0.061523438","11.0","30.9375","3.40625"
"1537901270225","547","-0.0048828125","-0.9042969","-0.29882812","29.125","-79.71875","13.5"
"1537901270422","548","-0.46972656","-0.99121094","-0.6435547","20.15625","-13.96875","-6.84375"
"1537901270422","549","-0.2734375","-1.2480469","-0.49609375","30.28125","58.46875","-3.96875"
"1537901270423","550","-0.10058594","-1.1708984","-0.42871094","-25.5","35.46875","31.5625"
"1537901270423","551","0.22851562","-0.85546875","9.765625E-4","3.75","10.3125","9.03125"
"1537901270423","552","0.234375","-1.6904297","-0.35546875","2.875","-10.0","-26.0"
"1537901270620","553","0.14746094","-1.0693359","0.5986328","-29.65625","34.4375","-9.09375"
"1537901270622","554","0.3173828","-0.39941406","0.7294922","77.46875","-59.03125","1.71875"
"1537901270622","555","-0.064453125","-1.2177734","0.37695312","84.625","-75.9375","-24.59375"
"1537901270623","556","-0.09375","-1.0224609","0.15136719","68.9375","-49.0","-22.65625"
"1537901270623","557","0.013671875","-0.9033203","0.19042969","98.90625","-76.53125","-24.84375"
"1537901270818","558","0.021484375","-0.89941406","0.17578125","95.40625","-90.9375","-26.0"
"1537901270820","559","-0.0234375","-1.0019531","0.19335938","92.84375","-110.15625","-24.78125"
"1537901270821","560","-0.27246094","-1.0332031","0.0859375","75.9375","-119.25","-17.65625"
"1537901270821","561","-0.14550781","-0.9970703","0.055664062","64.28125","-93.5625","-18.1875"
"1537901270821","562","0.049804688","-0.890625","0.19921875","55.0625","-34.34375","-28.5625"
"1537901271019","563","-0.19921875","-0.9736328","0.045898438","48.84375","-29.96875","-27.21875"
"1537901271218","564","-0.20800781","-1.2001953","0.17480469","24.5","-2.8125","-9.90625"
"1537901271219","565","0.1328125","-1.2792969","0.14746094","4.65625","-7.75","10.90625"
"1537901271219","566","-0.048828125","-1.3955078","-0.1171875","-9.25","-36.4375","19.40625"
"1537901271219","567","-0.30371094","-1.3056641","-0.27929688","-69.75","-16.0","33.5625"
"1537901271222","568","0.28125","-1.15625","-0.14257812","-150.125","-3.78125","36.75"
"1537901271222","569","0.31640625","-1.3710938","0.7871094","-124.25","7.9375","53.65625"
"1537901271222","570","-0.018554688","-1.3974609","0.30566406","-125.96875","-23.1875","82.34375"
"1537901271222","571","-0.20800781","-1.3261719","0.3330078","-117.03125","16.96875","65.96875"
"1537901271415","572","0.08105469","-0.8017578","0.25","-109.65625","110.53125","42.40625"
"1537901271617","573","0.14648438","-0.5859375","0.25683594","-79.5","94.1875","41.875"
"1537901271618","574","0.12988281","-0.5019531","0.30273438","-45.21875","77.6875","15.875"
"1537901271618","575","0.234375","-0.49316406","0.2578125","-5.0625","91.125","-2.875"
"1537901271618","576","0.2529297","-0.54296875","0.13769531","28.8125","37.84375","-1.28125"
"1537901271620","577","0.08496094","-0.8984375","-0.38476562","52.5","-45.46875","-7.34375"
"1537901271620","578","-0.44140625","-1.3955078","-0.984375","25.53125","-6.71875","4.5"
"1537901271620","579","-0.42089844","-1.4199219","-0.6328125","7.34375","59.34375","9.40625"
"1537901271620","580","-0.061523438","-0.8955078","-0.30566406","-42.03125","57.5625","29.53125"
"1537901271621","581","0.3984375","-1.6787109","-0.07519531","36.21875","-20.4375","-11.71875"
"1537901271813","582","-0.17773438","-1.3017578","0.23242188","-0.84375","43.46875","-16.84375"
"1537901271813","583","0.5419922","-0.2607422","0.671875","66.25","3.125","9.15625"
"1537901271814","584","0.045898438","-0.92089844","0.359375","82.90625","-85.1875","-17.21875"
"1537901271815","585","-0.203125","-1.2529297","0.1171875","68.8125","-22.21875","-33.875"
"1537901271815","586","-0.0087890625","-0.83496094","0.2421875","84.625","-35.8125","-24.65625"
"1537901272011","587","0.05078125","-0.9091797","0.13085938","97.25","-51.75","-27.90625"
"1537901272012","588","0.091796875","-0.96972656","0.16015625","94.4375","-70.84375","-32.0"
"1537901272013","589","-0.08984375","-1.0292969","0.083984375","83.75","-83.5","-28.5"
"1537901272014","590","-0.18164062","-0.99609375","0.041015625","80.28125","-94.1875","-26.125"
"1537901272014","591","-0.0390625","-0.9267578","0.19140625","61.96875","-68.78125","-27.84375"
"1537901272210","592","0.005859375","-0.94140625","0.16601562","53.90625","-18.90625","-34.625"
"1537901272211","593","-0.18457031","-1.1513672","0.0625","46.53125","-10.5625","-27.65625"
"1537901272211","594","0.06542969","-1.203125","0.23925781","12.09375","-17.28125","-6.21875"
"1537901272213","595","0.02734375","-1.2597656","0.06542969","6.84375","-33.5","2.5"
"1537901272214","596","-0.34472656","-1.375","-0.0859375","-32.75","-36.125","17.8125"
"1537901272608","597","-0.17480469","-1.2050781","-0.21582031","-105.5625","12.8125","28.4375"
"1537901272609","598","0.20410156","-1.1240234","0.21679688","-148.125","45.28125","46.1875"
"1537901272609","599","0.39941406","-1.5214844","0.6123047","-116.5625","11.28125","73.96875"
"1537901272609","600","0.064453125","-1.3496094","0.2861328","-123.09375","22.03125","71.34375"
"1537901272610","601","-0.11425781","-1.1992188","0.3466797","-116.5625","68.1875","63.65625"
"1537901272611","602","0.12988281","-0.73046875","0.24316406","-109.28125","107.84375","47.46875"
"1537901272611","603","0.12695312","-0.5625","0.26464844","-78.59375","95.59375","43.8125"
"1537901272612","604","0.13867188","-0.57714844","0.3017578","-40.6875","91.875","13.125"
"1537901272613","605","0.22363281","-0.54296875","0.1953125","1.375","86.25","6.09375"
"1537901272807","606","0.05078125","-0.97265625","-0.44726562","32.0625","-34.59375","-2.875"
"1537901272807","607","-0.35253906","-1.1523438","-0.765625","30.09375","22.90625","-8.71875"
"1537901272807","608","-0.39160156","-1.3447266","-0.6582031","18.625","47.6875","7.8125"
"1537901272809","609","-0.15039062","-0.98535156","-0.42089844","-37.875","42.71875","34.78125"
"1537901272810","610","0.36328125","-1.2167969","0.044921875","31.75","4.9375","-0.625"
"1537901273007","611","-0.23632812","-1.2578125","-0.022460938","-23.40625","55.53125","-19.0625"
"1537901273007","612","0.5839844","-0.51953125","0.49414062","-14.03125","27.40625","1.09375"
"1537901273008","613","0.0390625","-0.9042969","0.49121094","80.21875","-62.625","1.03125"
"1537901273008","614","-0.11230469","-1.1611328","0.18847656","68.8125","-33.0625","-20.09375"
"1537901273009","615","0.07421875","-0.9482422","0.17480469","75.21875","-44.375","-24.34375"
"1537901273203","616","-0.051757812","-0.9267578","0.12597656","91.875","-51.5","-26.0625"
"1537901273204","617","0.076171875","-0.9082031","0.11328125","89.4375","-47.375","-35.84375"
"1537901273205","618","-0.017578125","-1.0283203","0.08496094","80.65625","-56.15625","-39.875"
"1537901273205","619","-0.20996094","-1.0126953","-0.025390625","72.71875","-53.03125","-35.15625"
"1537901273206","620","-0.16015625","-0.98046875","-0.0048828125","71.125","-43.6875","-30.09375"
"1537901273603","621","0.056640625","-0.9609375","0.08203125","48.0625","-50.96875","-24.34375"
"1537901273603","622","0.021484375","-0.89941406","0.056640625","48.34375","-42.53125","-23.5625"
"1537901273603","623","-0.12402344","-1.1552734","0.24414062","30.0625","-14.09375","-16.3125"
"1537901273604","624","-0.02734375","-1.3447266","0.19921875","3.75","-2.3125","-7.5"
"1537901273604","625","-0.4560547","-1.4462891","-0.09765625","-24.28125","1.21875","11.21875"
"1537901273605","626","-0.265625","-1.2675781","-0.26953125","-98.75","67.6875","25.9375"
"1537901273606","627","0.53125","-0.96191406","-0.043945312","-162.46875","89.71875","32.09375"
"1537901273606","628","0.48339844","-1.4921875","0.765625","-111.0","-14.59375","58.78125"
"1537901273606","629","-0.17382812","-1.4003906","0.18554688","-107.21875","-37.34375","75.3125"
"1537901273801","630","0.14648438","-0.77246094","0.29785156","-105.75","133.84375","43.75"
"1537901273801","631","0.15332031","-0.5283203","0.28125","-65.21875","98.40625","43.34375"
"1537901273802","632","0.18457031","-0.6152344","0.25976562","-12.0625","87.65625","24.84375"
"1537901273802","633","0.22558594","-0.5888672","0.16308594","11.6875","107.375","9.53125"
"1537901273803","634","0.31054688","-0.625","-0.030273438","15.65625","35.40625","10.0625"
"1537901274000","635","-0.13769531","-0.9042969","-0.44433594","19.1875","-13.125","16.40625"
"1537901274001","636","-0.3310547","-1.1035156","-0.6269531","29.75","16.3125","6.90625"
"1537901274002","637","-0.421875","-1.3808594","-0.42285156","21.0625","63.34375","27.59375"
"1537901274002","638","-0.17480469","-0.97558594","-0.43652344","-35.1875","51.53125","18.375"
"1537901274002","639","0.049804688","-0.5751953","-9.765625E-4","2.46875","41.1875","11.21875"
"1537901274201","640","0.4580078","-1.5703125","0.00390625","87.90625","-4.28125","-27.28125"
"1537901274201","641","-0.4033203","-1.6015625","-0.27148438","-45.15625","68.84375","-15.09375"
"1537901274201","642","0.59472656","-0.2529297","0.76464844","30.09375","-6.78125","-3.46875"
"1537901274201","643","-0.21191406","-0.95996094","0.3876953","82.90625","-81.0625","-0.8125"
"1537901274201","644","-0.12890625","-1.2050781","0.22460938","73.3125","-16.0625","-23.25"
"1537901274398","645","0.11328125","-0.91308594","0.16015625","80.34375","-29.90625","-28.9375"
"1537901274595","646","0.060546875","-0.83203125","0.12695312","89.9375","-38.15625","-25.875"
"1537901274596","647","0.12011719","-0.9746094","0.15429688","94.0","-46.9375","-31.8125"
"1537901274596","648","-0.078125","-1.0537109","0.10644531","73.1875","-74.875","-28.5625"
"1537901274597","649","-0.22949219","-1.0009766","-0.024414062","79.90625","-67.8125","-27.65625"
"1537901274599","650","-0.10253906","-0.97558594","0.0703125","67.875","-69.5","-23.0625"
"1537901274599","651","-0.04296875","-0.94433594","0.17480469","49.34375","-51.03125","-24.84375"
"1537901274599","652","-0.25","-1.0087891","0.1171875","42.125","-8.84375","-15.4375"
"1537901274600","653","0.038085938","-1.0957031","0.34570312","17.15625","-7.375","-3.0"
"1537901274600","654","0.27734375","-1.2099609","0.049804688","8.9375","-16.96875","-2.09375"
"1537901274795","655","-0.3232422","-1.4199219","-0.00390625","-10.125","-48.59375","8.1875"
"1537901274795","656","-0.4013672","-1.2734375","-0.18847656","-81.9375","10.3125","24.46875"
"1537901274795","657","0.20214844","-1.0830078","-0.057617188","-155.1875","65.125","36.1875"
"1537901274796","658","0.390625","-1.4072266","0.6533203","-117.59375","45.78125","64.6875"
"1537901274796","659","0.16503906","-1.3574219","0.2734375","-125.53125","-37.03125","69.21875"
"1537901274992","660","-0.19238281","-1.2919922","0.2861328","-103.625","21.0","68.0"
"1537901274993","661","0.078125","-0.8359375","0.27539062","-105.8125","98.8125","40.59375"
"1537901274994","662","0.15820312","-0.625","0.2626953","-86.28125","103.53125","37.71875"
"1537901274994","663","0.14648438","-0.5283203","0.32128906","-47.65625","80.75","11.71875"
"1537901274995","664","0.2109375","-0.5058594","0.22949219","-8.09375","89.0","0.0"
"1537901275191","665","0.20996094","-0.5253906","0.0234375","19.5","67.625","-3.3125"
"1537901275192","666","0.14550781","-0.99902344","-0.5019531","33.84375","-19.84375","-12.625"
"1537901275192","667","-0.3173828","-1.1816406","-0.71875","26.03125","10.0625","-20.21875"
"1537901275193","668","-0.18261719","-1.2089844","-0.7324219","13.9375","90.15625","-19.28125"
"1537901275193","669","-0.14160156","-1.0605469","-0.39941406","-26.84375","81.375","33.25"
"1537901275390","670","0.49023438","-1.0869141","-0.0078125","18.09375","-7.9375","19.28125"
"1537901275589","671","-0.49902344","-1.3388672","-0.0029296875","-59.625","-12.5625","11.21875"
"1537901275590","672","0.6845703","-0.23339844","0.54785156","47.1875","56.8125","8.59375"
"1537901275590","673","-0.14257812","-0.9863281","0.7314453","78.21875","-85.8125","-0.0625"
"1537901275591","674","-0.14355469","-1.1914062","0.125","55.9375","1.90625","-21.0"
"1537901275591","675","0.0078125","-0.9189453","0.23144531","72.15625","5.0","-22.78125"
"1537901275592","676","0.140625","-0.92089844","0.087890625","94.0625","-15.8125","-35.15625"
"1537901275593","677","0.091796875","-0.90234375","0.099609375","99.875","-29.34375","-40.34375"
"1537901275594","678","-0.037109375","-0.9970703","0.09667969","87.78125","-31.75","-36.9375"
"1537901275594","679","-0.17773438","-1.015625","0.09472656","79.375","-36.25","-32.28125"
"1537901275787","680","-0.09765625","-0.99902344","0.13769531","74.25","-32.71875","-29.25"
"1537901275787","681","0.078125","-0.91796875","0.16699219","50.3125","-6.21875","-30.09375"
"1537901275788","682","0.0390625","-0.93847656","0.0087890625","46.71875","-11.34375","-27.03125"
"1537901275789","683","-0.17089844","-1.1933594","0.08984375","27.4375","0.1875","-13.3125"
"1537901275790","684","0.0390625","-1.2167969","0.26757812","-1.6875","-13.375","1.46875"
"1537901275987","685","-0.15136719","-1.4726562","-0.001953125","-4.5","-19.09375","11.34375"
"1537901275987","686","-0.36035156","-1.3134766","-0.24023438","-65.71875","24.0","29.46875"
"1537901275988","687","0.20605469","-1.0888672","-0.103515625","-146.03125","83.25","41.75"
"1537901275989","688","0.27148438","-1.1845703","0.5830078","-106.71875","39.875","63.46875"
"1537901275989","689","0.4013672","-1.4042969","0.24804688","-116.125","-51.28125","71.28125"
"1537901276188","690","-0.21972656","-1.3818359","0.39941406","-95.1875","18.875","80.375"
"1537901276189","691","0.16992188","-0.9824219","0.31347656","-106.125","98.6875","55.46875"
"1537901276189","692","0.18554688","-0.64941406","0.21972656","-89.59375","78.96875","43.625"
"1537901276189","693","0.13964844","-0.49609375","0.28710938","-52.15625","55.1875","28.75"
"1537901276189","694","0.24414062","-0.5058594","0.18847656","-16.78125","79.03125","3.53125"
"1537901276384","695","0.23144531","-0.53027344","0.0703125","6.78125","65.0","-0.625"
"1537901276385","696","0.14746094","-0.8232422","-0.25878906","39.09375","-73.78125","9.46875"
"1537901276385","697","-0.55566406","-1.0498047","-0.70996094","20.96875","-68.28125","16.0"
"1537901276386","698","-0.4580078","-1.1767578","-0.5917969","39.03125","9.28125","7.0625"
"1537901276386","699","-0.30664062","-1.28125","-0.59765625","-17.25","22.15625","26.96875"
"1537901276585","700","0.21777344","-0.9921875","-0.041015625","9.0","12.15625","-1.03125"
"1537901276585","701","0.22460938","-1.9726562","-0.4814453","-4.4375","20.03125","-21.65625"
"1537901276784","702","0.4404297","-0.6845703","0.9560547","-79.625","63.96875","4.21875"
"1537901276785","703","0.13769531","-0.390625","0.5566406","89.8125","-110.53125","3.40625"
"1537901276785","704","-0.16113281","-1.5810547","0.38378906","104.21875","-114.9375","-15.1875"
"1537901276785","705","-0.14746094","-1.0087891","0.1484375","66.25","-81.0625","-13.5"
"1537901276786","706","0.0068359375","-0.8183594","0.16699219","90.09375","-99.125","-23.0"
"1537901276786","707","-0.07714844","-0.8847656","0.18164062","91.15625","-106.1875","-27.65625"
"1537901276786","708","-0.080078125","-1.0634766","0.20214844","83.15625","-114.9375","-23.375"
"1537901276788","709","-0.26757812","-1.015625","0.111328125","70.875","-109.875","-23.375"
"1537901276981","710","-0.23925781","-0.9628906","0.1015625","75.21875","-86.0625","-24.90625"
"1537901276981","711","0.0625","-0.98046875","0.22070312","54.84375","-68.34375","-28.6875"
"1537901276981","712","-0.041992188","-0.9121094","0.08203125","45.96875","-58.40625","-20.75"
"1537901276982","713","-0.2265625","-1.0478516","0.22070312","36.53125","-49.0","-5.8125"
"1537901277181","714","-0.13476562","-1.1152344","0.21582031","10.75","-48.03125","14.53125"
"1537901277181","715","0.09765625","-1.1816406","0.026367188","-0.15625","-41.9375","22.59375"
"1537901277182","716","-0.12792969","-1.3457031","0.0029296875","-20.625","-74.46875","29.71875"
"1537901277182","717","-0.10058594","-1.1708984","-0.20605469","-92.375","-23.3125","47.3125"
"1537901277182","718","0.4111328","-1.1787109","-0.00390625","-132.4375","0.625","63.40625"
"1537901277378","719","0.9140625","-1.4921875","0.5078125","-133.28125","-14.34375","68.0625"
"1537901277379","720","0.46972656","-1.4228516","0.27734375","-132.125","-136.78125","70.5"
"1537901277379","721","0.203125","-1.2617188","0.20898438","-126.4375","-104.71875","57.3125"
"1537901277380","722","0.16308594","-0.7792969","0.26660156","-115.34375","-49.5","36.5625"
"1537901277380","723","0.08105469","-0.5839844","0.26464844","-101.96875","-15.375","20.9375"
"1537901277578","724","0.08886719","-0.48535156","0.35546875","-51.9375","-17.21875","-11.53125"
"1537901277578","725","0.13574219","-0.40625","0.35546875","2.15625","-5.1875","-18.0625"
"1537901277578","726","-0.09277344","-0.56152344","0.15136719","26.9375","-67.125","-0.96875"
"1537901277579","727","-0.6113281","-1.0253906","-0.6298828","59.09375","-110.96875","28.25"
"1537901277579","728","-0.8300781","-1.1220703","-0.9785156","19.5","-134.28125","26.96875"
"1537901277777","729","-0.22851562","-1.2392578","-0.5859375","9.1875","23.625","-7.5"
"1537901277777","730","0.14550781","-0.7939453","-0.23242188","-19.03125","44.9375","22.625"
"1537901277778","731","0.7470703","-1.3359375","0.18554688","48.53125","-87.53125","-51.46875"
"1537901277778","732","-0.98828125","-1.9355469","-0.17773438","17.0","1.84375","-25.6875"
"1537901277778","733","0.74316406","-0.2890625","0.70410156","-17.8125","-26.59375","4.09375"
"1537901277974","734","-0.09277344","-0.84765625","0.31347656","54.34375","-91.90625","0.3125"
"1537901277975","735","-0.049804688","-1.2539062","0.26464844","61.96875","-92.65625","-13.1875"
"1537901277975","736","0.11621094","-0.88378906","0.20410156","52.8125","-107.0625","-11.0"
"1537901277976","737","-0.0546875","-0.84472656","0.28515625","76.4375","-128.28125","-17.34375"
"1537901277976","738","-0.095703125","-0.99902344","0.2890625","75.9375","-142.5","-21.3125"
"1537901278175","739","-0.18554688","-1.015625","0.19433594","63.5625","-141.0","-19.84375"
"1537901278176","740","-0.22753906","-0.9472656","0.12792969","62.03125","-122.8125","-21.5625"
"1537901278176","741","-0.18554688","-0.9658203","0.11425781","67.78125","-105.46875","-20.34375"
"1537901278176","742","-0.16699219","-0.9765625","0.125","48.65625","-94.78125","-16.84375"
"1537901278176","743","-0.25976562","-0.99609375","0.03125","28.9375","-81.125","0.0625"
"1537901278372","744","-0.36035156","-1.0253906","0.19238281","24.25","-74.28125","25.4375"
"1537901278373","745","-0.055664062","-1.0185547","0.16894531","10.625","-83.0","37.78125"
"1537901278373","746","0.24804688","-1.2695312","-0.13867188","-15.4375","-54.8125","33.875"
"1537901278374","747","-0.421875","-1.4609375","-0.20605469","-62.71875","-90.5","55.28125"
"1537901278374","748","0.24316406","-1.4658203","-0.25976562","-156.15625","-27.34375","84.21875"
"1537901278570","749","1.0683594","-1.7626953","0.5703125","-170.03125","28.5","64.6875"
"1537901278571","750","0.7519531","-1.4960938","0.3173828","-158.4375","-169.84375","57.90625"
"1537901278571","751","0.22558594","-1.203125","0.359375","-122.84375","-217.09375","47.71875"
"1537901278573","752","-0.111328125","-0.7451172","0.23730469","-117.09375","-89.40625","31.6875"
"1537901278573","753","-0.044921875","-0.45898438","0.27148438","-94.21875","-27.84375","21.34375"
"1537901278769","754","-0.00390625","-0.3173828","0.4580078","-58.15625","21.78125","-24.65625"
"1537901278769","755","0.1015625","-0.35058594","0.3310547","-12.6875","35.96875","-36.4375"
"1537901278771","756","-0.16015625","-0.6035156","0.06933594","31.75","-49.0","-3.1875"
"1537901278771","757","-0.4638672","-1.0556641","-0.82421875","86.5625","-153.0","12.1875"
"1537901278771","758","-0.8984375","-1.2558594","-1.0917969","53.3125","-67.4375","-15.3125"
"1537901278968","759","-0.17871094","-1.6425781","-0.7548828","-21.96875","142.59375","-16.71875"
"1537901278968","760","0.46777344","-0.66015625","0.0029296875","-41.375","68.53125","23.5"
"1537901278968","761","0.7871094","-1.5058594","0.0029296875","61.0625","-112.96875","-33.875"
"1537901278969","762","-0.3671875","-1.4208984","0.16699219","-50.03125","-9.21875","-10.1875"
"1537901278970","763","-0.038085938","-0.40722656","0.8095703","76.1875","-106.375","-5.25"
"1537901279170","764","-0.14648438","-0.95703125","0.27929688","40.1875","-89.40625","-12.9375"
"1537901279170","765","0.055664062","-1.2041016","0.28320312","66.90625","-43.9375","-31.375"
"1537901279170","766","0.01171875","-0.83496094","0.21777344","79.96875","-81.53125","-25.5625"
"1537901279170","767","-0.06542969","-0.9013672","0.19042969","93.21875","-96.5","-34.0625"
"1537901279170","768","-0.03125","-0.9863281","0.23339844","91.4375","-104.71875","-31.125"
"1537901279365","769","-0.16992188","-1.0136719","0.15820312","81.0625","-117.90625","-28.25"
"1537901279365","770","-0.26171875","-1.0078125","0.034179688","79.125","-115.59375","-25.875"
"1537901279366","771","-0.14550781","-0.97753906","0.09863281","60.8125","-97.84375","-23.5"
"1537901279366","772","-0.1875","-0.9980469","0.07910156","39.21875","-56.09375","-29.4375"
"1537901279367","773","-0.08105469","-1.0566406","0.21777344","39.5","-39.3125","-22.15625"
"1537901279566","774","0.12207031","-1.0048828","0.08691406","26.625","-38.6875","-13.8125"
"1537901279763","775","0.13476562","-1.1621094","0.08203125","4.28125","-42.84375","-0.75"
"1537901279763","776","-0.17285156","-1.546875","0.045898438","-11.46875","-79.90625","15.1875"
"1537901279763","777","-0.31445312","-1.2705078","-0.14746094","-64.1875","-13.59375","40.9375"
"1537901279764","778","0.2919922","-1.1435547","-0.01953125","-162.8125","14.65625","52.71875"
"1537901279962","779","0.6826172","-1.5390625","0.65625","-121.1875","25.6875","68.1875"
"1537901279962","780","0.22363281","-1.3525391","0.2109375","-120.21875","-90.375","73.59375"
"1537901279963","781","-0.22363281","-1.2470703","0.3095703","-102.9375","-29.0","69.6875"
"1537901279964","782","-0.043945312","-0.8095703","0.28515625","-103.0","88.1875","50.40625"
"1537901279964","783","0.111328125","-0.5810547","0.32714844","-92.3125","126.46875","39.0"
"1537901279965","784","0.19238281","-0.50878906","0.39746094","-48.375","94.375","17.4375"
"1537901279965","785","0.25683594","-0.49023438","0.23144531","1.25","65.25","9.34375"
"1537901279965","786","0.21679688","-0.5488281","0.020507812","21.0","21.4375","12.25"
"1537901279966","787","0.083984375","-0.921875","-0.45507812","35.3125","-23.0","3.96875"
"1537901280161","788","-0.5048828","-1.1474609","-0.80371094","12.40625","1.53125","-4.46875"
"1537901280161","789","-0.20898438","-1.2333984","-0.6503906","18.75","53.53125","7.25"
"1537901280162","790","-0.20703125","-1.1142578","-0.45898438","-25.125","11.71875","42.34375"
"1537901280162","791","0.26367188","-1.3808594","-0.0859375","22.65625","-11.53125","-3.25"
"1537901280163","792","-0.55859375","-1.2763672","-0.2998047","-111.375","49.875","-9.40625"
"1537901280163","793","0.74902344","-0.17675781","0.9863281","1.375","20.375","-12.46875"
"1537901280360","794","0.19824219","-0.75683594","0.48339844","81.6875","-87.71875","-7.5625"
"1537901280361","795","-0.13183594","-1.4052734","0.19238281","87.3125","-54.8125","-37.59375"
"1537901280361","796","-0.022460938","-0.8925781","0.18847656","83.625","-47.46875","-29.96875"
"1537901280361","797","0.032226562","-0.8808594","0.22070312","107.8125","-44.5625","-43.46875"
"1537901280361","798","-0.0068359375","-0.8955078","0.21875","114.8125","-55.0","-46.625"
"1537901280558","799","-0.05859375","-1.0009766","0.26171875","115.625","-88.4375","-33.5"
"1537901280558","800","-0.0703125","-1.0644531","0.083984375","74.125","-103.4375","-31.3125"
"1537901280558","801","-0.09765625","-0.94433594","0.1015625","71.1875","-51.875","-36.75"
"1537901280758","802","-0.033203125","-0.97753906","0.15234375","50.5625","-21.84375","-31.0625"
"1537901280758","803","-0.115234375","-1.0527344","-0.05859375","40.0","-20.1875","-25.09375"
"1537901280759","804","-0.087890625","-1.2548828","0.27734375","8.625","-12.21875","-14.96875"
"1537901280759","805","0.048828125","-1.1650391","0.15722656","0.625","-22.34375","1.53125"
"1537901280759","806","-0.21777344","-1.5107422","-0.045898438","-19.03125","-35.09375","16.40625"
"1537901280759","807","-0.27539062","-1.28125","-0.24414062","-86.78125","1.46875","40.53125"
"1537901280760","808","0.21289062","-1.1787109","0.234375","-153.84375","42.53125","52.96875"
"1537901280956","809","0.6533203","-1.6650391","0.703125","-123.625","27.40625","72.375"
"1537901280956","810","0.265625","-1.4365234","0.29101562","-127.71875","-5.5625","78.1875"
"1537901280956","811","-0.028320312","-1.1845703","0.32617188","-111.3125","14.28125","78.25"
"1537901280957","812","0.04296875","-0.6894531","0.22558594","-111.25","90.21875","62.0"
"1537901280958","813","0.123046875","-0.5410156","0.2626953","-92.875","120.375","49.875"
"1537901281157","814","0.21679688","-0.5214844","0.375","-51.9375","98.5625","7.625"
"1537901281158","815","0.29101562","-0.4609375","0.34277344","-6.9375","71.40625","-0.8125"
"1537901281158","816","0.24902344","-0.5107422","0.18164062","30.34375","29.59375","4.15625"
"1537901281158","817","-0.0126953125","-1.1552734","-0.70410156","39.9375","-39.3125","-9.28125"
"1537901281158","818","-0.4033203","-1.2539062","-0.78808594","6.5","33.625","12.625"
"1537901281353","819","-0.13085938","-1.1591797","-0.59472656","26.15625","53.09375","3.34375"
"1537901281354","820","-0.15234375","-1.0791016","-0.34960938","-18.0625","53.59375","28.5625"
"1537901281354","821","0.42382812","-1.8369141","-0.068359375","26.875","-9.75","-21.4375"
"1537901281355","822","-0.375","-0.9511719","-0.16210938","-64.3125","62.625","-8.375"
"1537901281355","823","0.6982422","-0.2578125","0.9658203","38.71875","-10.5","6.09375"
"1537901281554","824","0.1328125","-1.0244141","0.3330078","76.875","-105.71875","-5.1875"
"1537901281554","825","-0.22460938","-1.1962891","0.1953125","74.0","-43.6875","-27.21875"
"1537901281554","826","-0.0546875","-0.84277344","0.1875","74.375","-29.65625","-22.53125"
"1537901281554","827","-9.765625E-4","-0.9345703","0.15039062","96.8125","-34.1875","-32.78125"
"1537901281555","828","0.07910156","-0.96191406","0.12792969","100.84375","-51.5","-34.6875"
"1537901281750","829","-0.013671875","-0.9746094","0.13671875","93.46875","-70.625","-35.21875"
"1537901281750","830","-0.15917969","-1.0117188","0.053710938","95.0625","-86.4375","-34.3125"
"1537901281949","831","-0.12597656","-0.95410156","0.14355469","84.625","-74.40625","-32.65625"
"1537901281950","832","0.07910156","-0.9082031","0.29882812","65.9375","-16.65625","-42.65625"
"1537901281950","833","-0.07128906","-0.9941406","-0.021484375","58.6875","5.9375","-32.84375"
"1537901281950","834","-0.044921875","-1.2080078","0.15332031","24.90625","-2.75","-15.5"
"1537901281951","835","0.125","-1.2304688","0.18457031","4.96875","-37.84375","7.25"
"1537901281952","836","-0.14648438","-1.53125","0.14160156","-4.25","-57.0625","20.0"
"1537901281953","837","-0.37402344","-1.3183594","-0.09667969","-66.625","-16.28125","43.15625"
"1537901281953","838","0.38378906","-1.0585938","-0.17089844","-159.09375","35.34375","48.9375"
"1537901282152","839","0.6298828","-1.4453125","0.7050781","-124.6875","59.40625","74.875"
"1537901282152","840","0.33789062","-1.3515625","0.16015625","-127.125","-47.1875","64.03125"
"1537901282153","841","-0.07714844","-1.2421875","0.328125","-110.625","-15.0625","67.375"
"1537901282154","842","0.078125","-0.859375","0.29589844","-115.09375","55.90625","47.84375"
"1537901282348","843","0.12792969","-0.609375","0.2841797","-95.9375","86.78125","48.53125"
"1537901282348","844","0.123046875","-0.50878906","0.3515625","-52.21875","60.4375","23.25"
"1537901282348","845","0.171875","-0.53125","0.3125","-8.40625","65.1875","5.71875"
"1537901282348","846","0.17773438","-0.5410156","0.12011719","16.125","64.875","6.09375"
"1537901282349","847","0.020507812","-1.1298828","-0.68652344","20.40625","2.4375","-11.46875"
"1537901282548","848","-0.4375","-1.0292969","-0.6972656","-11.875","45.40625","5.375"
"1537901282548","849","0.08496094","-1.0605469","-0.7001953","-3.53125","40.71875","2.25"
"1537901282548","850","-0.07421875","-1.0634766","-0.33789062","0.15625","27.15625","33.4375"
"1537901282548","851","0.2763672","-0.9169922","-0.12597656","14.84375","-10.625","14.78125"
"1537901282548","852","-0.068359375","-1.4511719","-0.17382812","-28.5","-31.78125","-23.375"
"1537901282744","853","0.17675781","-1.0703125","0.5966797","-20.5625","36.125","-23.3125"
"1537901282745","854","0.33007812","-0.46679688","0.6269531","87.375","-44.75","0.1875"
"1537901282745","855","-0.087890625","-1.2333984","0.3251953","85.90625","-58.53125","-25.09375"
"1537901282745","856","-0.14550781","-1.0087891","0.13769531","67.34375","-19.46875","-25.03125"
"1537901282746","857","0.052734375","-0.8798828","0.14355469","93.78125","-31.1875","-26.8125"
"1537901282943","858","0.07324219","-0.9121094","0.15820312","101.75","-37.78125","-34.90625"
"1537901282943","859","0.103515625","-0.93652344","0.15039062","102.4375","-47.71875","-38.6875"
"1537901282943","860","-0.09667969","-1.0400391","0.09277344","91.625","-64.03125","-37.59375"
"1537901282944","861","-0.22363281","-1.0244141","-0.013671875","82.65625","-58.65625","-30.03125"
"1537901282944","862","-0.08300781","-0.9921875","0.15820312","56.125","-27.21875","-25.15625"
"1537901283144","863","0.026367188","-0.9707031","0.021484375","37.90625","-4.28125","-17.8125"
"1537901283144","864","-0.078125","-1.1484375","0.083984375","35.84375","-27.21875","-8.0625"
"1537901283145","865","0.18457031","-1.2333984","0.36914062","2.28125","-38.6875","5.1875"
"1537901283145","866","-0.048828125","-1.3457031","0.01953125","-1.09375","-34.53125","12.4375"
"1537901283145","867","-0.45703125","-1.3535156","-0.20800781","-48.0625","-19.40625","28.0625"
"1537901283340","868","0.1171875","-1.0888672","-0.21191406","-146.15625","30.65625","29.28125"
"1537901283340","869","0.37695312","-1.2724609","0.7441406","-121.875","49.5625","61.46875"
"1537901283341","870","0.2763672","-1.3486328","0.25390625","-134.625","-63.65625","65.375"
"1537901283341","871","-0.2607422","-1.3291016","0.3359375","-101.53125","10.625","75.375"
"1537901283342","872","0.0859375","-0.88671875","0.35546875","-104.40625","91.96875","53.9375"
"1537901283539","873","0.15429688","-0.57421875","0.24023438","-89.53125","107.0","47.59375"
"1537901283737","874","0.13769531","-0.48632812","0.3095703","-58.875","84.71875","30.34375"
"1537901283938","875","0.2763672","-0.5097656","0.29003906","-18.09375","87.34375","5.84375"
"1537901283938","876","0.27148438","-0.5527344","0.18457031","33.40625","56.46875","9.8125"
"1537901283939","877","0.18945312","-0.8222656","-0.2841797","53.3125","-57.6875","0.84375"
"1537901283939","878","-0.5917969","-1.3232422","-1.0058594","8.6875","5.5625","0.0"
"1537901283939","879","-0.4169922","-1.3955078","-0.70703125","27.78125","81.84375","1.875"
"1537901283940","880","-0.047851562","-0.9814453","-0.3466797","-41.125","52.375","33.625"
"1537901283940","881","0.45507812","-1.03125","0.01953125","16.375","-20.375","13.5"
"1537901283941","882","-0.33789062","-1.4609375","0.046875","15.03125","4.40625","-22.59375"
"1537901283941","883","0.26953125","-0.59765625","0.64453125","22.65625","52.3125","1.9375"
"1537901284137","884","0.041992188","-0.88671875","0.203125","103.34375","-84.09375","-38.875"
"1537901284335","885","-0.099609375","-1.0302734","0.19628906","94.125","-112.4375","-33.09375"
"1537901284335","886","-0.17480469","-0.9326172","0.13476562","83.5","-104.625","-35.28125"
"1537901284335","887","-0.0048828125","-0.95703125","0.31445312","73.875","-25.21875","-45.65625"
"1537901284335","888","-0.20410156","-1.0751953","-0.09472656","52.9375","5.625","-33.09375"
"1537901284337","889","-0.115234375","-1.1826172","0.06542969","26.25","-14.71875","-12.8125"
"1537901284338","890","0.046875","-1.2402344","0.23535156","9.0625","-34.0625","12.75"
"1537901284338","891","-0.0048828125","-1.3896484","0.053710938","-5.15625","-39.5625","19.78125"
"1537901284533","892","-0.41503906","-1.3417969","-0.1875","-62.59375","-20.75","36.0625"
"1537901284533","893","0.080078125","-1.1484375","-0.31347656","-153.25","19.53125","44.625"
"1537901284534","894","0.44921875","-1.3955078","0.7949219","-131.875","61.21875","68.34375"
"1537901284534","895","0.125","-1.3496094","0.2705078","-141.78125","-18.78125","68.46875"
"1537901284535","896","-0.21191406","-1.3466797","0.31054688","-121.875","9.78125","67.0"
"1537901284536","897","-0.0107421875","-0.8515625","0.3408203","-115.8125","87.96875","49.3125"
"1537901284536","898","0.083984375","-0.59375","0.27734375","-95.875","125.3125","50.09375"
"1537901284733","899","0.1328125","-0.4892578","0.34765625","-58.09375","95.53125","30.6875"
"1537901284734","900","0.234375","-0.4736328","0.33496094","-13.59375","85.5","7.1875"
"1537901285128","901","0.20898438","-0.5527344","0.15039062","25.34375","80.3125","7.25"
"1537901285129","902","0.22851562","-0.83984375","-0.5214844","24.5","2.125","-3.25"
"1537901285140","903","-0.3564453","-1.2978516","-0.77441406","6.125","2.75","30.03125"
"1537901285140","904","-0.15527344","-1.0039062","-0.6298828","31.9375","5.25","9.34375"
"1537901285140","905","-0.4453125","-1.0537109","-0.35839844","18.9375","35.84375","22.59375"
"1537901285141","906","0.17089844","-1.9980469","-0.29296875","49.21875","21.78125","-26.1875"
"1537901285141","907","0.078125","-1.0195312","0.5673828","-24.8125","65.4375","-36.0625"
"1537901285141","908","0.41796875","-0.3720703","0.33203125","83.34375","35.34375","25.9375"
"1537901285141","909","0.115234375","-0.9248047","0.5673828","94.5","-111.25","-4.34375"
"1537901285336","910","-0.20410156","-1.1826172","0.15527344","78.875","-62.6875","-28.4375"
"1537901285336","911","-0.10546875","-1.0566406","0.08300781","83.21875","-101.0","-34.125"
"1537901285336","912","-0.17675781","-0.9580078","0.043945312","66.125","-109.625","-21.0625"
"1537901285336","913","0.038085938","-0.95214844","0.31152344","71.3125","-66.90625","-30.71875"
"1537901285344","914","0.009765625","-0.92285156","0.15332031","48.90625","-29.0","-36.875"
"1537901285345","915","-0.20898438","-1.1367188","0.018554688","52.5625","-11.03125","-33.09375"
"1537901285526","916","0.0048828125","-1.1826172","0.25390625","9.78125","-10.6875","-11.0"
"1537901285527","917","-0.021484375","-1.2714844","0.10449219","12.96875","-46.25","5.71875"
"1537901285527","918","-0.38476562","-1.421875","-0.119140625","-31.96875","-36.8125","27.40625"
"1537901285528","919","-0.14453125","-1.1699219","-0.20019531","-127.375","14.40625","45.09375"
"1537901285725","920","0.36328125","-1.1816406","0.29882812","-142.75","63.46875","66.03125"
"1537901285726","921","0.6015625","-1.4921875","0.44921875","-133.59375","-1.65625","78.96875"
"1537901285728","922","0.01953125","-1.4960938","0.2607422","-124.4375","-3.53125","80.1875"
"1537901285729","923","0.051757812","-1.0947266","0.33007812","-119.0","35.96875","68.0625"
"1537901285729","924","0.15625","-0.6923828","0.27734375","-120.15625","92.65625","54.6875"
"1537901285729","925","0.19238281","-0.49902344","0.3310547","-84.8125","73.0625","48.9375"
"1537901286124","926","0.16210938","-0.4658203","0.29589844","-35.5","54.4375","10.8125"
"1537901286124","927","0.16796875","-0.44335938","0.27539062","7.96875","71.40625","-3.71875"
"1537901286124","928","0.16894531","-0.51464844","0.07421875","29.1875","37.25","-13.0"
"1537901286125","929","-0.2705078","-1.2929688","-0.8105469","52.8125","0.0625","-26.5"
"1537901286125","930","-0.3544922","-1.1972656","-1.0283203","-2.25","-11.53125","-8.78125"
"1537901286125","931","-0.19628906","-1.3232422","-0.53125","-8.09375","65.8125","19.34375"
"1537901286137","932","0.072265625","-0.71875","-0.11621094","-31.84375","30.34375","35.03125"
"1537901286137","933","0.5566406","-1.7695312","-0.24511719","-7.125","-87.46875","-25.875"
"1537901286138","934","-0.17578125","-1.046875","0.60546875","-44.34375","65.6875","-22.96875"
"1537901286321","935","0.19921875","-0.5185547","0.71777344","54.78125","-29.0625","-5.25"
"1537901286322","936","0.03125","-1.0898438","0.33789062","79.71875","-38.6875","-15.8125"
"1537901286323","937","-0.0859375","-1.0595703","0.25390625","80.15625","-27.53125","-31.75"
"1537901286324","938","0.05859375","-0.8925781","0.17578125","99.09375","-59.09375","-26.3125"
"1537901286326","939","0.059570312","-0.8642578","0.11816406","100.59375","-60.25","-37.25"
"1537901286520","940","0.021484375","-0.9765625","0.12988281","97.75","-52.71875","-41.4375"
"1537901286721","941","-0.16894531","-1.078125","0.099609375","76.96875","-65.25","-37.65625"
"1537901286721","942","-0.11621094","-0.9941406","0.0048828125","76.0625","-62.375","-32.53125"
"1537901286722","943","-0.018554688","-0.9248047","0.099609375","61.78125","-40.46875","-32.09375"
"1537901286722","944","-0.12890625","-1.0791016","-0.016601562","45.5","-11.90625","-29.0"
"1537901286722","945","-0.3935547","-1.1464844","0.005859375","14.4375","1.34375","-7.375"
"1537901286723","946","0.044921875","-1.0361328","0.2626953","-6.875","-3.53125","19.40625"
"1537901286724","947","0.2421875","-1.3505859","0.10546875","-2.0","-18.90625","13.375"
"1537901286724","948","-0.4482422","-1.2998047","-0.171875","-44.0625","-9.8125","19.84375"
"1537901286725","949","-0.3017578","-1.1933594","-0.31054688","-129.5","51.9375","29.40625"
"1537901286918","950","0.22753906","-1.5097656","0.67285156","-101.3125","-11.53125","65.90625"
"1537901286918","951","-0.3486328","-1.4404297","0.359375","-105.4375","23.25","74.21875"
"1537901286918","952","0.0078125","-1.0244141","0.40234375","-97.5","126.34375","55.0625"
"1537901287119","953","0.25","-0.6357422","0.22558594","-80.59375","148.0","43.28125"
"1537901287120","954","0.18457031","-0.4189453","0.24121094","-39.65625","80.75","34.0"
"1537901287120","955","0.23535156","-0.5205078","0.20507812","6.84375","84.34375","5.1875"
"1537901287514","956","0.32421875","-0.6357422","0.15332031","36.34375","93.25","-0.5625"
"1537901287715","957","0.2783203","-0.71484375","0.0048828125","37.25","-16.71875","-7.15625"
"1537901287715","958","-0.3408203","-1.1845703","-0.6904297","44.5","-40.9375","-11.78125"
"1537901287715","959","-0.5498047","-1.4394531","-0.79296875","0.75","58.59375","14.53125"
"1537901287716","960","-0.16601562","-1.2236328","-0.3857422","-12.90625","12.53125","56.03125"
"1537901287716","961","0.0068359375","-0.6621094","-0.2763672","-34.34375","-18.4375","39.0625"
"1537901287717","962","0.48242188","-1.875","-0.06542969","62.40625","-3.40625","-22.09375"
"1537901287717","963","-0.6777344","-1.1748047","0.26953125","-23.34375","55.25","-11.71875"
"1537901287718","964","0.6582031","-0.21972656","0.5576172","46.78125","-13.0625","-1.09375"
"1537901287719","965","0.09277344","-1.203125","0.5175781","98.34375","-62.25","-1.40625"
"1537901287912","966","-0.11816406","-1.0214844","0.057617188","29.5625","-49.0","5.375"
"1537901287912","967","-0.17871094","-1.0927734","0.19335938","6.78125","-79.53125","31.625"
"1537901287913","968","-0.14257812","-1.3789062","-0.0390625","-14.03125","-77.28125","47.84375"
"1537901288112","969","-0.19335938","-1.4873047","-0.15820312","-71.8125","-42.78125","81.40625"
"1537901288113","970","0.83984375","-1.1630859","-0.13574219","-177.28125","3.53125","86.59375"
"1537901288114","971","1.4345703","-1.7236328","0.8466797","-153.53125","-27.71875","65.375"
"1537901288114","972","0.54785156","-1.4736328","0.29882812","-128.34375","-236.09375","68.65625"
"1537901288115","973","0.07910156","-1.0263672","0.4296875","-96.84375","-169.90625","61.09375"
"1537901288115","974","-0.046875","-0.7207031","0.24023438","-96.96875","-57.0","43.75"
"1537901288115","975","-0.0546875","-0.45410156","0.33789062","-68.65625","-39.4375","29.15625"
"1537901288311","976","0.00390625","-0.43164062","0.33007812","-23.84375","-3.0625","-7.9375"
"1537901288311","977","-0.07128906","-0.44921875","0.30664062","15.9375","22.71875","-12.34375"
"1537901288508","978","-0.19140625","-0.73046875","-0.10058594","25.90625","-30.875","14.09375"
"1537901288509","979","-0.5410156","-1.3007812","-1.0371094","59.53125","-113.9375","28.5"
"1537901288509","980","-0.54003906","-1.1533203","-0.8828125","23.15625","-46.0625","-25.46875"
"1537901288509","981","0.15722656","-1.2900391","-0.7626953","-40.4375","74.59375","6.03125"
"1537901288510","982","0.421875","-0.5888672","-0.05859375","-11.28125","-52.5625","32.03125"
"1537901288511","983","0.55859375","-1.7822266","0.2919922","82.0","-159.71875","-48.96875"
"1537901288511","984","-1.4306641","-1.9160156","0.115234375","14.1875","17.03125","-20.09375"
"1537901288513","985","0.9511719","-0.001953125","0.5683594","-51.25","-32.59375","-3.78125"
"1537901288706","986","-0.119140625","-0.93359375","0.3203125","82.21875","-95.625","-13.96875"
"1537901288906","987","0.07128906","-1.2617188","0.36523438","78.21875","-112.84375","-25.875"
"1537901288907","988","0.024414062","-0.8095703","0.16992188","80.15625","-122.125","-22.84375"
"1537901288907","989","-0.20898438","-0.85253906","0.29492188","84.125","-103.5625","-40.15625"
"1537901288907","990","-0.0390625","-1.03125","0.19238281","87.46875","-97.71875","-35.21875"
"1537901288907","991","-0.018554688","-0.9628906","0.20410156","92.1875","-124.03125","-31.5"
"1537901288909","992","-0.17089844","-0.94921875","0.17675781","90.34375","-149.03125","-37.59375"
"1537901288909","993","-0.119140625","-0.92089844","0.0078125","58.90625","-101.8125","-40.03125"
"1537901288910","994","-0.43652344","-1.1582031","0.064453125","38.28125","-13.25","-27.71875"
"1537901288911","995","-0.22167969","-1.1513672","0.17675781","8.5625","-17.40625","-1.96875"
"1537901289104","996","0.27246094","-1.2431641","0.18945312","3.3125","-27.40625","13.1875"
"1537901289105","997","-0.017578125","-1.4111328","-0.07421875","-11.6875","-47.59375","24.09375"
"1537901289106","998","-0.4345703","-1.2958984","-0.23339844","-69.4375","-43.21875","44.5625"
"1537901289107","999","0.15527344","-1.1201172","-0.1640625","-163.0","0.8125","41.9375"
"1537901289107","1000","0.44726562","-1.3154297","0.7636719","-134.4375","68.71875","71.15625"
"1537901289303","1001","0.2578125","-1.5097656","0.29296875","-152.375","-78.4375","77.6875"
"1537901289303","1002","-0.13867188","-1.4638672","0.29492188","-123.15625","-12.25","75.0"
"1537901289304","1003","0.08691406","-0.8769531","0.29589844","-122.84375","64.875","51.4375"
"1537901289305","1004","0.14941406","-0.51171875","0.30371094","-100.5","96.6875","51.5"
"1537901289502","1005","0.14648438","-0.37402344","0.39257812","-61.9375","64.6875","28.375"
"1537901289502","1006","0.20996094","-0.39453125","0.38085938","-8.40625","73.1875","-11.71875"
"1537901289503","1007","0.16699219","-0.484375","0.2529297","32.71875","68.125","-7.6875"
"1537901289503","1008","0.0146484375","-1.0322266","-0.6455078","67.875","-24.40625","-19.0625"
"1537901289504","1009","-0.5097656","-1.4326172","-1.1699219","-7.125","2.3125","-7.09375"
"1537901289700","1010","-0.34472656","-1.3613281","-0.7089844","12.40625","75.375","-4.21875"
"1537901289701","1011","-0.017578125","-0.7470703","-0.21484375","-41.59375","43.03125","43.40625"
"1537901289701","1012","0.78222656","-1.6767578","0.15625","54.15625","-92.46875","0.1875"
"1537901289702","1013","-1.1523438","-1.7255859","-0.20117188","20.46875","73.125","-24.71875"
"1537901289703","1014","0.99121094","0.022460938","0.64453125","11.25","27.96875","1.15625"
"1537901289703","1015","-0.0068359375","-0.9199219","0.46191406","99.09375","-76.65625","-13.75"
"1537901289899","1016","-0.059570312","-1.2783203","0.15136719","74.40625","-35.28125","-37.53125"
"1537901289901","1017","0.06933594","-0.80371094","0.18945312","93.71875","-67.5625","-26.4375"
"1537901289901","1018","-0.087890625","-0.9082031","0.13671875","106.21875","-67.625","-37.53125"
"1537901289901","1019","-0.037109375","-0.96484375","0.19628906","109.15625","-64.4375","-42.0625"
"1537901289908","1020","-0.123046875","-1.0410156","0.1171875","88.75","-99.4375","-33.03125"
"1537901290097","1021","-0.12109375","-0.9736328","0.08984375","70.21875","-103.15625","-30.40625"
"1537901290098","1022","-0.041015625","-0.90625","0.18847656","68.5","-40.15625","-40.65625"
"1537901290099","1023","-0.18554688","-1.0117188","-0.009765625","51.78125","-4.4375","-30.59375"
"1537901290099","1024","-0.20214844","-1.1865234","-0.1015625","25.90625","-4.8125","-15.09375"
"1537901290100","1025","0.05859375","-1.1503906","0.24511719","2.34375","-22.9375","14.875"
"1537901290299","1026","0.15722656","-1.34375","0.057617188","0.03125","-37.28125","12.625"
"1537901290299","1027","-0.49023438","-1.3320312","-0.17285156","-48.375","-19.40625","25.8125"
"1537901290299","1028","-0.16308594","-1.1054688","-0.34277344","-142.75","21.90625","34.34375"
"1537901290299","1029","0.35839844","-1.1845703","0.7626953","-135.34375","76.59375","53.53125"
"1537901290496","1030","-0.044921875","-1.4990234","0.4736328","-120.78125","-4.6875","71.65625"
"1537901290496","1031","-0.2421875","-1.3916016","0.40429688","-120.65625","54.625","65.4375"
"1537901290694","1032","0.059570312","-0.9589844","0.3701172","-114.1875","127.125","45.09375"
"1537901290893","1033","0.22753906","-0.640625","0.24609375","-94.46875","126.53125","44.78125"
"1537901290893","1034","0.10546875","-0.50390625","0.28710938","-59.0","89.25","36.75"
"1537901290895","1035","0.1640625","-0.5966797","0.2626953","-16.46875","97.15625","4.09375"
"1537901290895","1036","0.18164062","-0.6435547","0.13964844","0.75","112.96875","0.53125"
"1537901290895","1037","0.22363281","-0.7109375","-0.041015625","11.8125","11.53125","-6.40625"
"1537901290895","1038","-0.39941406","-0.890625","-0.66503906","18.8125","16.0","7.8125"
"1537901290896","1039","-0.11425781","-1.1464844","-0.8066406","25.59375","97.96875","-19.84375"
"1537901290897","1040","-0.07519531","-1.3574219","-0.70410156","-14.5625","58.15625","29.96875"
"1537901290897","1041","0.08203125","-0.7402344","-0.22167969","-16.09375","14.59375","45.34375"
"1537901291094","1042","0.068359375","-1.0332031","0.19140625","80.15625","-26.25","-26.0"
"1537901291094","1043","0.021484375","-0.85546875","0.21484375","102.5","-64.28125","-29.90625"
"1537901291094","1044","-9.765625E-4","-0.90527344","0.15820312","111.53125","-49.0","-41.375"
"1537901291095","1045","-0.018554688","-0.953125","0.20214844","108.1875","-34.71875","-43.40625"
"1537901291096","1046","-0.10546875","-1.0234375","0.11328125","89.375","-61.03125","-33.75"
"1537901291291","1047","-0.020507812","-1.0253906","0.00390625","72.15625","-70.84375","-28.25"
"1537901291292","1048","-0.0234375","-0.9482422","0.14453125","74.375","-35.28125","-35.65625"
"1537901291292","1049","-0.036132812","-0.9892578","0.15429688","61.71875","-27.40625","-32.53125"
"1537901291292","1050","-0.17089844","-1.1708984","-0.16210938","35.96875","-7.1875","-18.375"
"1537901291292","1051","-0.0029296875","-1.1982422","0.34765625","4.46875","-24.59375","-1.90625"
"1537901291489","1052","0.05078125","-1.3642578","0.23242188","4.90625","-27.09375","0.4375"
"1537901291490","1053","-0.4013672","-1.3935547","-0.07421875","-37.40625","-3.0625","21.59375"
"1537901291490","1054","-0.19628906","-1.1542969","-0.22460938","-119.25","51.34375","34.25"
"1537901291491","1055","0.3330078","-1.0205078","0.29492188","-140.90625","89.46875","55.90625"
"1537901291491","1056","0.54296875","-1.578125","0.6328125","-127.90625","16.65625","71.46875"
"1537901291689","1057","-0.111328125","-1.4912109","0.35058594","-126.375","2.875","79.90625"
"1537901291689","1058","0.0625","-1.1347656","0.40722656","-118.6875","58.0625","69.21875"
"1537901291689","1059","0.16796875","-0.7246094","0.25683594","-112.84375","96.375","53.21875"
"1537901291886","1060","0.05078125","-0.4921875","0.27441406","-76.875","83.5","51.3125"
"1537901291887","1061","0.14746094","-0.5761719","0.23046875","-24.40625","81.78125","21.90625"
"1537901291887","1062","0.23632812","-0.54785156","0.15332031","12.15625","81.0625","10.5"
"1537901291888","1063","0.27148438","-0.5595703","0.0703125","22.96875","-16.28125","8.84375"
"1537901291888","1064","-0.19140625","-0.8173828","-0.40527344","33.03125","-32.03125","-2.6875"
"1537901292086","1065","-0.49414062","-1.2207031","-0.86035156","32.5625","50.25","-18.125"
"1537901292087","1066","-0.5175781","-1.6982422","-0.56347656","33.71875","36.0","29.96875"
"1537901292087","1067","-0.10546875","-0.85058594","-0.33789062","-58.21875","56.15625","30.75"
"1537901292088","1068","0.3310547","-0.62402344","0.2763672","21.5","-3.78125","13.65625"
"1537901292088","1069","-0.5703125","-1.9980469","-0.4111328","-12.96875","75.875","-52.625"
"1537901292089","1070","0.8857422","-0.1640625","0.75390625","-100.03125","29.0","-4.875"
"1537901292285","1071","0.0146484375","-0.6816406","0.6064453","109.6875","-60.0","-2.875"
"1537901292485","1072","-0.033203125","-1.4873047","0.3046875","95.34375","-63.40625","-19.46875"
"1537901292485","1073","-0.0126953125","-0.921875","0.18164062","79.84375","-54.625","-25.8125"
"1537901292485","1074","-0.05078125","-0.8310547","0.18652344","92.71875","-27.09375","-43.875"
"1537901292485","1075","0.095703125","-0.9296875","0.18359375","109.8125","-34.96875","-44.5"
"1537901292486","1076","0.005859375","-0.98828125","0.21386719","97.375","-68.53125","-35.40625"
"1537901292486","1077","-0.15234375","-0.9873047","0.068359375","74.78125","-76.46875","-34.25"
"1537901292486","1078","-0.08105469","-0.9707031","0.12011719","73.625","-66.28125","-31.3125"
"1537901292487","1079","0.0","-0.99609375","0.3076172","59.03125","-9.875","-38.21875"
"1537901292488","1080","-0.15136719","-1.0039062","0.03515625","40.375","-7.0","-32.46875"
"1537901292681","1081","0.17871094","-1.171875","0.14257812","-4.8125","-15.0625","0.78125"
"1537901292880","1082","-0.08691406","-1.4892578","0.0126953125","-9.1875","-38.75","7.9375"
"1537901292881","1083","-0.4736328","-1.2900391","-0.18652344","-68.9375","10.625","32.03125"
"1537901292881","1084","0.22070312","-1.203125","0.12597656","-164.84375","51.46875","34.59375"
"1537901292883","1085","0.23144531","-1.3964844","0.6533203","-116.875","58.40625","60.78125"
"1537901292883","1086","-0.055664062","-1.4794922","0.2734375","-128.15625","33.6875","72.25"
"1537901292883","1087","-0.057617188","-1.2148438","0.4091797","-117.59375","67.3125","65.65625"
"1537901292883","1088","0.12597656","-0.8564453","0.32714844","-113.3125","117.625","50.96875"
"1537901292884","1089","0.10058594","-0.6591797","0.265625","-85.5625","110.46875","48.15625"
"1537901292885","1090","0.076171875","-0.58496094","0.29492188","-50.28125","88.4375","26.84375"
"1537901293079","1091","0.18457031","-0.6123047","0.24707031","-7.84375","96.6875","14.59375"
"1537901293080","1092","0.20996094","-0.5234375","0.12011719","19.84375","49.3125","16.28125"
"1537901293080","1093","0.07910156","-0.7011719","-0.15429688","31.15625","-15.125","0.59375"
"1537901293081","1094","-0.2783203","-1.1142578","-0.6279297","26.8125","55.0625","-16.84375"
"1537901293278","1095","-0.35058594","-1.21875","-0.70410156","17.71875","86.84375","-8.25"
"1537901293278","1096","-0.35742188","-1.390625","-0.5263672","-17.75","49.375","38.3125"
"1537901293279","1097","-0.0546875","-0.7421875","-0.07519531","-24.59375","74.09375","30.5625"
"1537901293279","1098","0.13769531","-1.8212891","-0.16308594","69.90625","30.21875","-20.15625"
"1537901293280","1099","-0.08203125","-0.84765625","0.48535156","-68.59375","107.5625","-23.1875"
"1537901293477","1100","0.55371094","-0.20898438","0.42578125","108.65625","40.46875","5.84375"
"1537901293477","1101","0.08984375","-1.5302734","0.51953125","106.59375","-44.6875","-14.15625"
"1537901293477","1102","0.0703125","-0.96484375","0.11425781","59.96875","-6.71875","-21.65625"
"1537901293479","1103","-0.06542969","-0.92285156","0.15527344","85.21875","-36.625","-28.15625"
"1537901293479","1104","0.01953125","-0.88378906","0.10839844","84.5625","-6.03125","-36.4375"
"1537901293676","1105","-0.025390625","-1.0195312","0.21191406","88.875","-21.78125","-35.15625"
"1537901293677","1106","-0.09375","-0.96972656","0.09375","74.3125","-20.625","-30.59375"
"1537901293677","1107","-0.0546875","-0.98828125","0.053710938","73.5625","-9.34375","-31.875"
"1537901293677","1108","-0.059570312","-0.95996094","0.18359375","70.875","2.09375","-32.90625"
"1537901293874","1109","0.14941406","-0.9267578","0.13085938","54.03125","-1.65625","-31.375"
"1537901293876","1110","-0.0126953125","-1.0898438","-0.083984375","41.65625","16.78125","-27.96875"
"1537901293877","1111","-0.041015625","-1.1875","0.18847656","3.5625","3.96875","-7.375"
"1537901293879","1112","0.14355469","-1.2011719","-0.0126953125","-4.1875","-26.71875","8.1875"
"1537901293879","1113","-0.36035156","-1.5087891","-0.11425781","-43.625","-13.96875","14.46875"
"1537901293879","1114","-0.057617188","-1.3320312","-0.17773438","-110.28125","36.3125","18.1875"
"1537901294073","1115","0.028320312","-1.1738281","0.5019531","-128.65625","77.75","42.59375"
"1537901294074","1116","0.10253906","-1.3876953","0.5019531","-107.03125","18.3125","63.78125"
"1537901294074","1117","-0.31054688","-1.3574219","0.33691406","-107.65625","83.5625","61.03125"
"1537901294075","1118","-0.030273438","-0.9716797","0.3935547","-110.40625","148.9375","52.0625"
"1537901294075","1119","0.1171875","-0.80566406","0.27441406","-90.9375","136.0625","45.78125"
"1537901294272","1120","0.11230469","-0.7138672","0.2861328","-65.34375","105.96875","45.59375"
"1537901294272","1121","0.09472656","-0.7314453","0.24804688","-37.75","118.15625","31.5625"
"1537901294273","1122","0.20800781","-0.6933594","0.12207031","-16.46875","122.3125","28.1875"
"1537901294273","1123","0.2841797","-0.6503906","0.022460938","6.65625","36.25","22.46875"
"1537901294273","1124","-0.0029296875","-0.765625","-0.3203125","21.25","9.78125","-2.25"
"1537901294469","1125","-0.11035156","-0.9951172","-0.50097656","23.40625","102.59375","-44.125"
"1537901294471","1126","-0.31347656","-1.2792969","-0.7109375","-20.125","134.03125","-14.59375"
"1537901294471","1127","-0.26953125","-1.09375","-0.3232422","4.40625","46.03125","45.90625"
"1537901294868","1128","-0.08496094","-0.6152344","-0.109375","-8.53125","48.21875","38.875"
"1537901294869","1129","0.123046875","-1.8046875","-0.22949219","87.0625","33.4375","-8.65625"
"1537901294869","1130","-0.13769531","-1.3232422","0.034179688","-53.625","125.75","-27.09375"
"1537901294870","1131","0.8574219","-9.765625E-4","0.5390625","55.4375","58.96875","5.5625"
"1537901294870","1132","-0.31640625","-1.2792969","0.55078125","79.1875","-79.03125","4.5"
"1537901294870","1133","-0.07421875","-1.0205078","0.21582031","39.21875","1.84375","-5.5"
"1537901294872","1134","-0.083984375","-0.97753906","0.203125","58.5","16.1875","-15.375"
"1537901294872","1135","0.14550781","-0.8564453","0.103515625","72.65625","27.46875","-27.78125"
"1537901294873","1136","0.17089844","-0.9765625","0.11621094","87.65625","15.09375","-35.96875"
"1537901295068","1137","0.06542969","-0.9892578","0.115234375","61.84375","-4.875","-30.03125"
"1537901295068","1138","0.20605469","-1.015625","-0.14355469","52.6875","-13.96875","-24.28125"
"1537901295069","1139","-9.765625E-4","-1.1630859","0.13867188","20.03125","-6.46875","-13.25"
"1537901295070","1140","0.043945312","-1.2373047","0.28125","-1.09375","-51.5","-3.84375"
"1537901295071","1141","-0.3203125","-1.4853516","0.021484375","-14.75","-38.4375","5.0625"
"1537901295266","1142","-0.3798828","-1.2949219","-0.15625","-74.03125","17.09375","25.75"
"1537901295267","1143","0.040039062","-0.9638672","0.103515625","-138.71875","79.53125","38.875"
"1537901295267","1144","0.24121094","-1.4111328","0.4951172","-97.34375","45.59375","75.3125"
"1537901295267","1145","0.18457031","-1.3632812","0.30371094","-104.59375","29.25","84.65625"
"1537901295465","1146","-0.09277344","-1.2617188","0.43847656","-91.09375","82.40625","85.5"
"1537901295466","1147","0.055664062","-0.9794922","0.25097656","-108.125","135.8125","63.84375"
"1537901295466","1148","0.21191406","-0.78515625","0.22753906","-95.25","146.78125","55.96875"
"1537901295467","1149","0.16503906","-0.68847656","0.23828125","-65.78125","120.78125","39.71875"
"1537901295468","1150","0.18847656","-0.7128906","0.19335938","-34.28125","110.1875","27.875"
"1537901295468","1151","0.19335938","-0.5888672","0.1484375","-4.875","69.15625","32.34375"
"1537901295665","1152","0.16503906","-0.65722656","-0.059570312","25.71875","-17.09375","25.4375"
"1537901295666","1153","-0.11230469","-0.9238281","-0.45117188","10.8125","4.59375","-0.5625"
"1537901295667","1154","-0.2763672","-0.9501953","-0.4140625","26.6875","69.15625","-17.75"
"1537901295667","1155","-0.2529297","-1.0400391","-0.5830078","19.0625","94.59375","-21.5"
"1537901295667","1156","-0.32226562","-1.4169922","-0.6191406","4.59375","85.5","12.3125"
"1537901295861","1157","0.08203125","-0.88183594","-0.2421875","13.625","89.96875","17.03125"
"1537901295862","1158","0.21972656","-1.9980469","-0.4658203","-14.1875","12.21875","-4.875"
"1537901295862","1159","0.37597656","-0.49121094","0.65234375","-33.90625","71.34375","-19.15625"
"1537901295863","1160","0.06347656","-0.6455078","0.4560547","60.25","-21.3125","-0.125"
"1537901295864","1161","-0.15234375","-1.2958984","0.36523438","60.9375","4.15625","-11.53125"
"1537901296062","1162","-0.078125","-0.9824219","0.19042969","52.21875","33.28125","-16.125"
"1537901296062","1163","0.13183594","-0.90234375","0.14257812","75.40625","18.625","-24.78125"
"1537901296063","1164","0.21386719","-0.9433594","0.12207031","92.90625","4.40625","-43.34375"
"1537901296064","1165","0.09863281","-0.94140625","0.15332031","85.34375","-3.53125","-44.5625"
"1537901296064","1166","-0.11035156","-0.9580078","0.11328125","81.75","-2.875","-42.53125"
"1537901296260","1167","-0.095703125","-1.0498047","0.14550781","84.78125","-9.9375","-34.4375"
"1537901296261","1168","0.033203125","-0.9746094","0.16796875","60.625","3.125","-31.75"
"1537901296261","1169","0.16894531","-0.96191406","0.1328125","48.1875","7.5625","-34.125"
"1537901296262","1170","-0.0107421875","-1.0585938","-0.0146484375","48.0","-14.59375","-28.09375"
"1537901296262","1171","-0.12597656","-1.1894531","0.0","9.90625","21.71875","-11.28125"
"1537901296458","1172","0.15625","-1.1962891","0.16210938","-12.5","-3.96875","1.875"
"1537901296459","1173","0.033203125","-1.2617188","-0.08984375","-12.90625","-29.40625","-2.6875"
"1537901296459","1174","-0.46191406","-1.3144531","-0.18945312","-73.09375","6.59375","4.28125"
"1537901296459","1175","-0.015625","-1.1757812","-0.35058594","-141.875","43.59375","13.78125"
"1537901296460","1176","-0.06738281","-1.1572266","0.92285156","-99.59375","82.71875","51.25"
"1537901296659","1177","-0.3017578","-1.4433594","0.46191406","-119.625","52.4375","79.9375"
"1537901296855","1178","-0.28515625","-1.265625","0.46777344","-110.9375","153.6875","69.21875"
"1537901296856","1179","0.29492188","-0.9199219","0.3955078","-103.125","201.1875","47.59375"
"1537901296856","1180","0.15625","-0.69628906","0.2529297","-76.03125","134.34375","56.40625"
"1537901296857","1181","0.030273438","-0.70214844","0.2919922","-46.90625","118.84375","52.3125"
"1537901296857","1182","0.15917969","-0.76171875","0.3046875","-26.53125","162.90625","21.40625"
"1537901296858","1183","0.23632812","-0.703125","0.25195312","-3.34375","159.375","23.6875"
"1537901296859","1184","0.22949219","-0.66015625","0.09667969","35.65625","26.4375","23.8125"
"1537901296861","1185","0.10253906","-0.89453125","-0.49023438","37.4375","46.21875","-6.15625"
"1537901297054","1186","-0.25585938","-1.3037109","-0.96972656","-8.03125","150.46875","-4.75"
"1537901297055","1187","-0.3388672","-1.3652344","-0.5810547","-26.90625","67.25","69.75"
"1537901297253","1188","-0.15917969","-0.7548828","-0.22070312","-44.96875","39.375","63.40625"
"1537901297254","1189","-0.032226562","-0.7988281","0.234375","49.09375","24.1875","31.1875"
"1537901297255","1190","-0.18652344","-1.9658203","-0.44726562","-92.09375","118.71875","-26.90625"
"1537901297255","1191","1.0498047","-0.08105469","0.8496094","-10.71875","144.0","-19.46875"
"1537901297256","1192","-0.05859375","-0.85839844","0.60058594","91.09375","-109.0","22.9375"
"1537901297257","1193","-0.1015625","-1.2011719","0.19140625","62.6875","-43.46875","-12.34375"
"1537901297257","1194","-0.1015625","-0.98046875","0.28320312","83.5625","-42.0","-28.1875"
"1537901297257","1195","-0.041015625","-0.88964844","0.15527344","94.25","-6.53125","-36.625"
"1537901297258","1196","0.20703125","-0.8564453","0.16894531","112.875","3.25","-47.4375"
"1537901297452","1197","0.07714844","-1.0224609","0.12597656","101.15625","-33.0625","-44.1875"
"1537901297452","1198","-0.18261719","-1.0117188","0.0234375","84.84375","-34.40625","-41.875"
"1537901297452","1199","-0.06640625","-0.9482422","0.10449219","94.75","-48.15625","-30.40625"
"1537901297453","1200","0.17285156","-0.9277344","0.25878906","70.28125","-4.8125","-39.5"
"1537901297454","1201","-0.111328125","-1.2050781","-0.103515625","32.84375","34.96875","-26.3125"
"1537901297650","1202","0.03125","-1.2861328","0.27148438","19.125","-30.8125","-1.78125"
"1537901297651","1203","0.091796875","-1.2539062","0.13769531","-3.71875","-35.59375","4.75"
"1537901297651","1204","-0.39257812","-1.4453125","-0.17578125","-34.09375","-37.96875","18.78125"
"1537901297652","1205","-0.24121094","-1.2128906","-0.37402344","-111.4375","14.34375","31.71875"
"1537901297653","1206","0.048828125","-1.0800781","0.36621094","-131.28125","46.03125","60.25"
"1537901297850","1207","0.4892578","-1.5273438","0.5253906","-140.78125","50.96875","81.46875"
"1537901297850","1208","0.06738281","-1.4882812","0.35546875","-131.09375","48.28125","84.34375"
"1537901297850","1209","0.024414062","-1.2089844","0.39453125","-109.28125","46.09375","81.59375"
"1537901297851","1210","0.11425781","-0.80859375","0.2607422","-113.375","106.21875","62.0625"
"1537901297851","1211","0.13476562","-0.48242188","0.31054688","-87.4375","129.03125","52.84375"
"1537901298249","1212","0.1640625","-0.38085938","0.38085938","-29.15625","95.40625","21.78125"
"1537901298249","1213","0.23925781","-0.48632812","0.3125","23.09375","91.0625","6.59375"
"1537901298250","1214","0.23828125","-0.5673828","0.16113281","34.8125","73.90625","3.96875"
"1537901298250","1215","0.047851562","-1.1230469","-0.5996094","47.125","-31.5625","3.71875"
"1537901298250","1216","-0.4248047","-1.3076172","-0.9326172","8.875","8.375","35.03125"
"1537901298250","1217","-0.33203125","-1.4238281","-0.75097656","-12.625","54.6875","32.90625"
"1537901298251","1218","0.030273438","-0.8486328","-0.23339844","-31.40625","29.4375","48.59375"
"1537901298252","1219","0.5498047","-1.3212891","-0.0126953125","36.875","-69.75","-7.5"
"1537901298252","1220","-0.6220703","-1.4511719","-0.57421875","-74.03125","34.96875","-39.4375"
"1537901298445","1221","0.7548828","-0.23046875","0.95703125","-21.28125","23.375","-7.9375"
"1537901298446","1222","0.021484375","-0.68066406","0.55566406","69.34375","-123.34375","7.5"
"1537901298446","1223","-0.1015625","-1.4355469","0.21679688","100.53125","-47.40625","-38.03125"
"1537901298446","1224","-0.038085938","-0.9199219","0.24121094","79.5","-56.6875","-30.65625"
"1537901298447","1225","-0.12402344","-0.8671875","0.1484375","102.875","-61.28125","-30.40625"
"1537901298448","1226","0.11035156","-0.8623047","0.171875","111.84375","-76.46875","-32.0"
"1537901298647","1227","0.06933594","-1.0732422","0.203125","99.8125","-111.625","-32.0625"
"1537901298647","1228","-0.25585938","-1.015625","0.020507812","80.71875","-138.5","-25.5625"
"1537901298647","1229","-0.17089844","-0.9375","0.060546875","76.75","-117.90625","-25.03125"
"1537901298647","1230","-0.00390625","-0.9453125","0.3046875","54.03125","-17.8125","-38.03125"
"1537901299241","1231","-0.31835938","-1.0048828","-0.091796875","43.96875","-14.28125","-32.84375"
"1537901299244","1232","-0.14648438","-1.1494141","0.16503906","20.21875","4.8125","-11.25"
"1537901299244","1233","0.10839844","-1.2402344","0.27929688","6.625","-19.28125","10.375"
"1537901299244","1234","-0.07128906","-1.4716797","-0.05078125","-4.8125","-32.28125","17.15625"
"1537901299245","1235","-0.44140625","-1.4042969","-0.3154297","-67.25","-6.53125","41.0"
"1537901299245","1236","0.23730469","-1.0439453","-0.095703125","-153.71875","38.9375","46.6875"
"1537901299245","1237","0.5107422","-1.3916016","0.75390625","-129.0","57.25","78.65625"
"1537901299245","1238","0.2783203","-1.5283203","0.099609375","-141.71875","-71.65625","82.46875"
"1537901299246","1239","-0.029296875","-1.4394531","0.3671875","-105.09375","-14.40625","83.96875"
"1537901299438","1240","0.20410156","-0.44628906","0.18945312","-95.75","75.625","47.34375"
"1537901299440","1241","-0.37695312","-1.0527344","-0.8457031","0.03125","-57.0625","-4.53125"
"1537901299440","1242","-0.3955078","-1.1806641","-0.72753906","1.53125","48.34375","-15.5625"
"1537901299441","1243","0.06542969","-0.9248047","-0.2783203","-29.09375","67.875","24.90625"
"1537901299441","1244","0.92578125","-1.2597656","0.15332031","30.34375","-86.78125","-0.90625"
"1537901299442","1245","-0.95703125","-1.4003906","-0.26171875","21.125","-45.21875","-34.25"
"1537901299640","1246","0.5234375","-0.5966797","0.71191406","14.25","-14.59375","17.75"
"1537901299640","1247","0.047851562","-0.67578125","0.6845703","66.1875","-91.5","6.90625"
"1537901299640","1248","-0.16796875","-1.265625","0.26757812","80.9375","-49.96875","-29.78125"
"1537901299641","1249","0.11621094","-0.95214844","0.24316406","91.21875","-67.0","-26.375"
"1537901299642","1250","0.018554688","-0.8730469","0.21386719","117.03125","-100.53125","-26.5625"
"1537901299837","1251","0.001953125","-0.84472656","0.265625","119.59375","-111.1875","-38.59375"
"1537901299837","1252","-0.107421875","-1.0615234","0.2734375","109.40625","-143.1875","-31.375"
"1537901299837","1253","-0.18554688","-0.9609375","0.13671875","84.0","-151.3125","-27.53125"
"1537901299838","1254","-0.016601562","-0.92285156","0.2626953","83.9375","-66.15625","-45.40625"
"1537901299838","1255","-0.25195312","-1.0615234","-0.044921875","58.125","-33.1875","-33.5"
"1537901300034","1256","-0.28027344","-1.2158203","0.0029296875","40.96875","-25.9375","-18.875"
"1537901300036","1257","-0.087890625","-1.1767578","0.2548828","3.9375","-23.3125","9.8125"
"1537901300036","1258","0.34960938","-1.1748047","0.15332031","2.28125","-35.65625","20.1875"
"1537901300037","1259","-0.07519531","-1.4707031","0.061523438","-20.90625","-53.46875","24.53125"
"1537901300037","1260","-0.3779297","-1.296875","-0.08886719","-78.59375","-15.1875","44.5"
"1537901300233","1261","0.29882812","-1.1347656","-0.0234375","-169.0","39.75","48.40625"
"1537901300234","1262","0.64941406","-1.5078125","0.7792969","-132.0","37.84375","72.03125"
"1537901300235","1263","0.11425781","-1.4316406","0.28710938","-140.0625","-68.125","65.4375"
"1537901300235","1264","-0.09863281","-1.2246094","0.34570312","-123.34375","-21.96875","59.6875"
"1537901300236","1265","0.018554688","-0.7548828","0.29296875","-117.09375","67.6875","48.03125"
"1537901300433","1266","0.060546875","-0.5546875","0.33203125","-98.375","99.5","42.0625"
"1537901300434","1267","0.1796875","-0.5205078","0.40429688","-52.21875","81.1875","6.84375"
"1537901300434","1268","0.22070312","-0.40429688","0.21191406","-7.4375","72.15625","-3.125"
"1537901300434","1269","0.203125","-0.50878906","-0.016601562","33.90625","-0.1875","0.96875"
"1537901300435","1270","-0.19824219","-1.140625","-0.6904297","32.71875","-69.875","0.96875"
"1537901300633","1271","-0.58691406","-1.2402344","-0.92089844","11.375","18.3125","0.84375"
"1537901300634","1272","-0.34472656","-1.3212891","-0.4921875","3.1875","93.03125","16.59375"
"1537901300634","1273","0.033203125","-0.8232422","-0.15039062","-32.6875","53.09375","17.875"
"1537901300636","1274","0.48242188","-1.5292969","-0.06738281","37.125","-40.65625","-18.1875"
"1537901300636","1275","-0.43164062","-1.4130859","-0.029296875","21.4375","80.75","-31.8125"
"1537901300830","1276","0.5996094","-0.41015625","0.5722656","17.09375","5.75","2.5"
"1537901300830","1277","0.047851562","-0.81933594","0.5136719","86.09375","-103.8125","-6.59375"
"1537901300831","1278","-0.32714844","-1.2744141","0.2529297","83.09375","-43.40625","-29.0625"
"1537901300832","1279","0.091796875","-0.88671875","0.16210938","85.21875","-34.78125","-28.375"
"1537901300833","1280","-0.0029296875","-0.9355469","0.08886719","103.03125","-51.21875","-32.0625"
"1537901301029","1281","0.09863281","-0.88183594","0.10839844","102.25","-52.25","-40.90625"
"1537901301030","1282","0.013671875","-1.0351562","0.12109375","96.03125","-81.46875","-35.84375"
"1537901301030","1283","-0.17480469","-0.98828125","0.095703125","82.59375","-102.59375","-32.96875"
