"# PDIoT walking data"
"# Start time: 20181112T130717"
"# Group: D"
"# Subject: Rimvydas"
"# Activity type: Running"
"# Sensor position: Wrist"
"# Side of body: Left"
"# Sensor mounting: Body"
"# Number of steps: 30"
"# Notes: "
""
"timestamp","seq","accel_x","accel_y","accel_z","gyro_x","gyro_y","gyro_z"
"1542028037139","0","-0.10253906","0.9941406","-0.13085938","-3.90625","-17.21875","18.78125"
"1542028037140","1","-0.103515625","0.95996094","-0.09472656","0.78125","-16.25","16.9375"
"1542028037140","2","-0.09863281","0.9326172","-0.060546875","-0.875","-14.65625","15.625"
"1542028037140","3","-0.08984375","0.92089844","-0.056640625","-1.84375","-14.0","15.0625"
"1542028037141","4","-0.076171875","0.9042969","-0.049804688","-5.5","-13.1875","14.375"
"1542028037337","5","-0.068359375","0.94628906","-0.056640625","-7.40625","-12.28125","17.0625"
"1542028037339","6","-0.005859375","0.99609375","-0.055664062","-11.5625","-10.4375","21.09375"
"1542028037339","7","0.0068359375","1.0029297","-0.07519531","-9.40625","-6.0625","20.0625"
"1542028037537","8","-0.018554688","0.9423828","-0.08300781","-3.5625","-0.4375","18.34375"
"1542028037537","9","-0.016601562","0.92578125","-0.055664062","-2.46875","0.46875","18.34375"
"1542028037538","10","0.0029296875","0.96777344","-0.029296875","-5.25","-1.46875","18.0"
"1542028037538","11","0.045898438","0.9824219","-0.009765625","-6.78125","-2.75","14.625"
"1542028037538","12","0.06640625","0.8535156","-0.05078125","-6.1875","-0.4375","1.3125"
"1542028037540","13","-0.030273438","0.7792969","-0.08300781","1.5","1.3125","-7.03125"
"1542028037540","14","-0.0126953125","0.984375","-0.06640625","19.28125","-8.5625","21.71875"
"1542028037736","15","0.083984375","1.0908203","-0.043945312","-18.625","-16.875","31.84375"
"1542028037736","16","-0.07324219","0.9707031","-0.15917969","-23.875","-7.34375","18.1875"
"1542028037736","17","-0.17480469","0.8144531","-0.11425781","3.71875","5.34375","19.8125"
"1542028037737","18","-0.23535156","0.85839844","-0.064453125","-1.46875","11.75","24.65625"
"1542028037737","19","-0.21582031","0.9814453","-0.032226562","0.65625","13.15625","23.96875"
"1542028037935","20","-0.26367188","0.96875","0.0234375","-3.0625","21.28125","9.375"
"1542028037935","21","-0.30273438","0.8652344","0.038085938","-6.375","36.65625","-3.875"
"1542028037935","22","-0.33203125","0.8417969","0.022460938","8.59375","53.21875","-14.96875"
"1542028037935","23","-0.37304688","0.8486328","9.765625E-4","2.5","69.8125","-30.15625"
"1542028038132","24","-0.5751953","1.0351562","-0.05078125","16.9375","82.625","-57.6875"
"1542028038133","25","-0.9189453","1.3740234","-0.11230469","17.75","101.90625","-99.125"
"1542028038133","26","-1.3232422","1.9453125","-0.5761719","79.09375","135.46875","-171.71875"
"1542028038133","27","-1.0947266","1.9365234","-0.43066406","151.09375","140.4375","-224.875"
"1542028038134","28","-0.6191406","1.7226562","-0.10449219","154.09375","117.21875","-217.3125"
"1542028038331","29","0.053710938","1.0458984","0.06542969","103.8125","90.0","-172.5"
"1542028038332","30","0.4169922","0.32226562","0.21582031","36.0625","64.4375","-107.375"
"1542028038332","31","0.53027344","-0.091796875","0.23046875","-53.3125","50.78125","-25.15625"
"1542028038332","32","0.43554688","-0.030273438","0.14550781","-101.46875","29.03125","52.96875"
"1542028038334","33","0.4169922","0.19824219","0.10449219","-127.875","5.53125","94.53125"
"1542028038529","34","0.38378906","0.67871094","-0.3095703","-89.125","-20.53125","127.84375"
"1542028038530","35","0.44726562","1.4746094","-0.28515625","-43.40625","-73.3125","184.90625"
"1542028038530","36","0.5966797","1.9453125","-0.7402344","-127.625","-92.25","179.84375"
"1542028038531","37","0.3076172","1.9453125","-0.7109375","-18.6875","-110.0","138.90625"
"1542028038532","38","-0.31445312","1.9453125","-0.3935547","-77.53125","-138.1875","97.6875"
"1542028038728","39","-0.8154297","1.3740234","-0.20117188","20.84375","-165.375","57.25"
"1542028038729","40","-1.0800781","0.09082031","0.19824219","-0.125","-164.8125","59.3125"
"1542028038729","41","-1.203125","-0.37695312","-0.0546875","-74.71875","-136.4375","29.84375"
"1542028038730","42","-0.9658203","-0.14941406","0.053710938","-80.09375","-90.84375","-9.40625"
"1542028038730","43","-1.0478516","0.22265625","-0.3671875","-43.40625","-20.875","-59.09375"
"1542028038929","44","-0.8486328","0.3359375","-0.13378906","61.25","28.84375","-121.28125"
"1542028038929","45","-1.0107422","1.0166016","0.16308594","59.5","82.4375","-183.25"
"1542028038929","46","-1.3515625","1.9453125","0.39160156","98.6875","122.59375","-222.5625"
"1542028038929","47","-0.29003906","1.9453125","0.109375","98.125","136.59375","-243.65625"
"1542028038930","48","0.119140625","1.9394531","0.055664062","-70.4375","140.0","-165.0"
"1542028039127","49","0.3564453","0.53222656","-0.0234375","-53.46875","113.21875","-37.5"
"1542028039127","50","0.38085938","0.038085938","-0.041015625","-105.4375","99.03125","54.71875"
"1542028039128","51","0.34277344","-0.20019531","-0.16894531","-85.46875","68.53125","97.8125"
"1542028039129","52","0.23144531","-0.09277344","-0.1640625","-53.0625","7.84375","131.75"
"1542028039130","53","0.064453125","0.12890625","-0.11425781","-47.6875","-54.875","132.25"
"1542028039326","54","0.17871094","0.37402344","-0.30859375","7.1875","-84.25","102.71875"
"1542028039326","55","0.18457031","1.2607422","-0.38183594","62.4375","-99.5625","58.53125"
"1542028039327","56","1.2871094","1.9453125","-0.6298828","93.78125","-120.6875","95.6875"
"1542028039327","57","0.27148438","1.9453125","-1.1152344","2.375","-100.0625","55.46875"
"1542028039327","58","-0.34472656","1.7578125","-0.46484375","80.5","-130.875","69.6875"
"1542028039524","59","-0.6152344","0.5595703","0.13671875","-31.21875","-168.15625","58.34375"
"1542028039524","60","-1.1494141","-0.24609375","0.30371094","-57.625","-140.75","29.90625"
"1542028039524","61","-1.2099609","-0.5048828","0.15332031","-109.375","-56.53125","-12.59375"
"1542028039525","62","-0.88378906","0.28125","0.1171875","-97.96875","41.65625","-52.6875"
"1542028039525","63","-0.9785156","0.27929688","-0.036132812","-38.34375","128.28125","-115.0"
"1542028039725","64","-0.86035156","0.8105469","0.265625","-20.28125","175.21875","-176.65625"
"1542028039725","65","-1.6728516","1.9453125","0.24414062","3.40625","188.71875","-237.4375"
"1542028039725","66","-0.76953125","1.9453125","-0.041015625","142.75","187.0","-246.59375"
"1542028039726","67","0.13964844","1.9453125","0.028320312","-54.53125","152.875","-145.59375"
"1542028039726","68","0.4765625","0.7636719","-0.18652344","-105.71875","92.5","-1.25"
"1542028039922","69","0.3984375","0.19140625","-0.15722656","-57.03125","64.6875","88.78125"
"1542028039923","70","0.3046875","-0.08691406","-0.20117188","-78.9375","23.0625","129.375"
"1542028039923","71","0.08496094","0.22363281","-0.24804688","-13.25","-29.4375","168.5625"
"1542028039923","72","-0.06738281","0.42578125","0.12011719","23.59375","-58.0625","156.65625"
"1542028039924","73","-0.13769531","0.19628906","-0.17871094","-0.1875","-72.15625","111.0"
"1542028040122","74","0.60253906","0.26464844","-0.09667969","35.625","-86.875","80.78125"
"1542028040122","75","1.0898438","1.9453125","-0.5800781","86.28125","-152.0","155.6875"
"1542028040122","76","1.1474609","1.9453125","-1.1914062","-70.75","-118.84375","103.0"
"1542028040122","77","-0.21582031","1.5849609","-0.27441406","39.34375","-166.59375","112.40625"
"1542028040122","78","-1.2207031","0.9560547","0.74902344","-92.0","-214.1875","88.84375"
"1542028040320","79","-1.28125","0.046875","-0.040039062","-56.40625","-163.03125","-2.09375"
"1542028040321","80","-0.86816406","-0.4794922","0.04296875","-74.65625","-104.375","-20.40625"
"1542028040321","81","-0.75390625","-0.20117188","-0.17773438","-74.53125","-34.5","-15.59375"
"1542028040321","82","-0.8232422","-0.038085938","-0.02734375","9.8125","48.375","-47.0625"
"1542028040321","83","-1.0283203","0.5839844","0.54785156","37.71875","143.28125","-121.84375"
"1542028040519","84","-1.5136719","1.9453125","-0.5126953","23.3125","201.40625","-103.65625"
"1542028040519","85","0.15039062","1.9453125","-0.08300781","29.09375","178.4375","-236.96875"
"1542028040520","86","0.421875","1.8388672","0.11621094","-23.6875","162.09375","-159.9375"
"1542028040521","87","0.24511719","0.203125","0.11621094","-34.0","143.65625","-49.625"
"1542028040521","88","0.29296875","-0.23535156","-0.08105469","-68.625","104.84375","32.46875"
"1542028040716","89","0.22851562","-0.059570312","-0.10546875","-57.8125","70.3125","47.96875"
"1542028040716","90","0.26464844","0.055664062","0.013671875","8.03125","45.28125","50.78125"
"1542028040716","91","0.60253906","0.09375","0.038085938","-25.03125","1.625","61.25"
"1542028040717","92","0.97558594","0.38183594","-0.17480469","19.09375","-51.59375","89.78125"
"1542028040717","93","1.2070312","1.3964844","-0.44140625","80.4375","-95.21875","146.90625"
"1542028040916","94","1.5830078","1.9453125","-0.43359375","-35.34375","-150.09375","218.78125"
"1542028040917","95","0.234375","1.9453125","-0.8330078","2.5","-185.1875","124.0625"
"1542028040917","96","-0.85839844","0.76953125","0.2548828","-26.875","-229.75","119.5"
"1542028040917","97","-1.9091797","-0.13378906","0.80566406","-96.09375","-173.71875","72.0"
"1542028040917","98","-1.4521484","-0.24414062","0.045898438","-44.21875","-53.375","13.84375"
"1542028041115","99","-0.9550781","0.0625","0.072265625","-73.9375","51.625","-41.40625"
"1542028041115","100","-0.56347656","0.7558594","-0.4482422","-35.15625","126.75","-78.5"
"1542028041115","101","-0.9453125","1.0","0.2685547","20.6875","195.96875","-148.8125"
"1542028041115","102","-1.1484375","1.9453125","-0.25","41.84375","228.0","-207.59375"
"1542028041117","103","0.29296875","1.9453125","0.13183594","195.78125","154.59375","-229.625"
"1542028041314","104","0.6503906","1.9453125","-0.0107421875","-76.25","90.0","-192.09375"
"1542028041314","105","0.4453125","0.7089844","-0.00390625","52.96875","61.625","-96.34375"
"1542028041315","106","0.41601562","-0.23242188","0.15820312","-61.28125","42.46875","-7.40625"
"1542028041315","107","0.4267578","-0.31445312","-0.18554688","-113.46875","28.1875","29.40625"
"1542028041315","108","0.41992188","-0.16601562","-0.07519531","8.59375","5.125","89.875"
"1542028041511","109","0.7324219","0.18066406","0.18066406","-24.0625","-20.875","117.90625"
"1542028041511","110","1.0507812","0.99316406","0.04296875","-13.25","-52.25","123.59375"
"1542028041511","111","1.0107422","1.9453125","-0.7832031","19.46875","-120.4375","127.1875"
"1542028041512","112","0.6044922","1.9453125","0.31152344","-31.875","-217.59375","187.53125"
"1542028041513","113","-0.10449219","1.9453125","0.10839844","28.90625","-261.5625","140.5625"
"1542028041711","114","-1.1240234","0.9765625","0.86816406","-27.90625","-259.90625","116.0625"
"1542028041711","115","-1.4013672","-0.032226562","0.5097656","-53.71875","-179.03125","58.03125"
"1542028041712","116","-1.3544922","-0.34277344","0.036132812","-67.46875","-119.53125","-0.5625"
"1542028041712","117","-1.1933594","-0.0048828125","-0.4970703","-83.5","-71.96875","-29.875"
"1542028041712","118","-1.2617188","0.0078125","-0.18652344","61.09375","21.21875","-98.96875"
"1542028041911","119","-2.0058594","0.107421875","0.2421875","74.5","147.75","-179.09375"
"1542028041912","120","-2.0322266","1.9453125","-0.625","189.5","172.84375","-119.65625"
"1542028041913","121","1.9677734","1.9453125","-0.27539062","50.8125","75.90625","-191.96875"
"1542028041914","122","0.8535156","1.9453125","-0.020507812","12.875","194.0","-333.28125"
"1542028041914","123","0.9003906","-0.46777344","0.4736328","-4.90625","151.84375","-182.15625"
"1542028042109","124","0.65527344","-0.44335938","-0.06640625","-238.71875","99.28125","-9.0625"
"1542028042109","125","0.36621094","-0.119140625","-0.23144531","-42.5625","55.09375","35.8125"
"1542028042110","126","0.53222656","-0.3388672","0.017578125","-76.90625","26.90625","96.3125"
"1542028042110","127","0.94921875","0.46191406","-0.4814453","-27.71875","3.28125","148.375"
"1542028042110","128","1.3359375","0.9658203","-0.8730469","102.15625","-10.09375","195.96875"
"1542028042309","129","1.9677734","1.9453125","-0.77441406","-9.28125","-101.09375","276.34375"
"1542028042309","130","0.85058594","1.9453125","-0.68847656","70.90625","-181.46875","180.71875"
"1542028042309","131","-0.65625","1.296875","0.46972656","-40.0625","-208.15625","192.4375"
"1542028042309","132","-1.4423828","0.56640625","0.625","-118.0625","-196.96875","148.71875"
"1542028042505","133","-1.8310547","-0.21289062","0.7285156","-87.84375","-116.71875","72.5"
"1542028042505","134","-1.3173828","0.022460938","-0.5644531","-171.28125","-42.75","9.8125"
"1542028042505","135","-1.1523438","0.35253906","-0.42285156","-58.3125","16.90625","-66.90625"
"1542028042506","136","-0.87402344","0.13476562","-0.22167969","26.59375","106.125","-147.90625"
"1542028042506","137","-1.5498047","0.6113281","0.46679688","131.5625","160.5625","-174.8125"
"1542028042507","138","-0.2705078","1.9453125","-0.6904297","212.09375","107.96875","-122.75"
"1542028042704","139","0.8564453","1.9453125","-0.5029297","-152.25","131.75","-300.75"
"1542028042903","140","0.9736328","0.8701172","0.13769531","43.6875","215.6875","-264.25"
"1542028042903","141","0.6328125","-0.86621094","0.13378906","-69.21875","177.84375","-72.09375"
"1542028042904","142","0.7060547","-0.3564453","-0.24121094","-132.28125","131.5","65.53125"
"1542028042906","143","0.3642578","-0.11328125","0.087890625","5.0","67.25","100.4375"
"1542028042907","144","0.85546875","0.20117188","0.20605469","-71.71875","24.09375","121.09375"
"1542028042907","145","0.8652344","0.7402344","-0.7402344","-0.8125","-54.65625","111.3125"
"1542028042907","146","0.9316406","1.6494141","-0.5371094","92.21875","-120.375","157.21875"
"1542028042908","147","1.3691406","1.9453125","-0.69628906","-101.53125","-196.65625","149.8125"
"1542028042908","148","0.3857422","1.9453125","-0.7265625","57.34375","-192.75","71.8125"
"1542028043101","149","-0.67578125","0.57910156","0.46484375","-65.25","-208.15625","97.28125"
"1542028043101","150","-1.2255859","0.0625","0.5332031","-88.875","-145.40625","68.78125"
"1542028043102","151","-1.5078125","-0.4560547","0.19335938","-60.5","-54.40625","26.53125"
"1542028043102","152","-1.1601562","-0.0048828125","-0.27539062","-60.9375","8.40625","-24.625"
"1542028043103","153","-1.1113281","0.2626953","-0.22460938","13.84375","61.375","-113.125"
"1542028043302","154","-1.21875","0.82421875","0.10058594","34.09375","119.90625","-201.75"
"1542028043302","155","-1.5605469","1.78125","-0.57910156","81.09375","134.75","-207.53125"
"1542028043302","156","1.3017578","1.9453125","-0.5673828","162.28125","109.78125","-99.1875"
"1542028043302","157","1.1298828","1.9453125","-0.5263672","-197.46875","118.40625","-150.84375"
"1542028043304","158","0.4951172","0.7080078","-0.17871094","11.8125","158.5","-88.03125"
"1542028043499","159","0.35546875","-0.53808594","0.044921875","-57.875","131.75","6.28125"
"1542028043499","160","0.3876953","-0.5878906","-0.12695312","-139.0625","83.25","75.65625"
"1542028043699","161","0.5546875","-0.4189453","-0.046875","-53.53125","31.90625","126.28125"
"1542028043699","162","0.8935547","-0.09082031","-0.01171875","-4.21875","-17.59375","160.09375"
"1542028043700","163","1.3984375","0.14355469","-0.19824219","-63.75","-68.8125","184.5"
"1542028043701","164","1.9677734","1.9453125","-0.53222656","-18.625","-149.4375","268.78125"
"1542028043701","165","1.9677734","1.9453125","0.0126953125","-236.03125","-213.9375","167.59375"
"1542028043702","166","0.22363281","1.9453125","-0.18261719","-69.71875","-213.53125","25.375"
"1542028043702","167","-1.0292969","-0.111328125","0.8105469","19.34375","-211.75","48.03125"
"1542028043702","168","-1.7265625","-0.2919922","0.4658203","-172.1875","-125.6875","77.4375"
"1542028043896","169","-1.7685547","0.20800781","0.1875","-28.65625","-57.375","28.78125"
"1542028043896","170","-1.4482422","0.14550781","-0.18164062","-55.8125","41.375","-40.125"
"1542028043897","171","-1.0703125","1.0390625","-0.5410156","16.9375","113.75","-131.53125"
"1542028043897","172","-1.0732422","1.1611328","1.0351562","127.0625","233.4375","-175.84375"
"1542028043898","173","-0.3798828","1.9453125","-0.49902344","85.96875","236.4375","-171.71875"
"1542028044095","174","1.0800781","1.9453125","0.49804688","4.0","166.5","-309.78125"
"1542028044097","175","0.9355469","1.5","0.2607422","-102.25","168.0","-261.25"
"1542028044097","176","0.63183594","-0.7783203","-0.040039062","-1.90625","138.15625","-129.34375"
"1542028044097","177","0.85546875","-1.0478516","-0.17382812","-33.34375","121.875","-8.5625"
"1542028044097","178","0.76464844","-0.23535156","9.765625E-4","7.375","51.5625","82.3125"
"1542028044295","179","1.0068359","-0.29882812","0.5449219","51.3125","-17.84375","141.84375"
"1542028044296","180","1.6660156","0.484375","-0.19433594","-48.96875","-79.0","199.25"
"1542028044296","181","1.9677734","1.7236328","0.58984375","-67.34375","-174.09375","305.40625"
"1542028044296","182","1.9677734","1.9453125","-0.026367188","-139.40625","-268.5","248.9375"
"1542028044296","183","0.23339844","1.9453125","0.47070312","54.90625","-256.1875","69.625"
"1542028044492","184","-0.82714844","0.43066406","1.0302734","-58.90625","-275.96875","71.21875"
"1542028044492","185","-1.1425781","0.022460938","0.5996094","-84.71875","-210.71875","58.28125"
"1542028044494","186","-1.6230469","-0.3935547","0.3857422","-77.40625","-125.6875","54.5"
"1542028044495","187","-1.6621094","0.030273438","-0.2548828","-85.53125","-88.15625","24.59375"
"1542028044495","188","-2.0322266","0.22460938","0.026367188","-58.90625","24.59375","-61.0625"
"1542028044691","189","-1.3427734","0.9423828","-0.2548828","27.09375","130.125","-181.96875"
"1542028044692","190","-0.61816406","1.9453125","0.35058594","76.78125","219.90625","-98.90625"
"1542028044692","191","1.9677734","1.9453125","0.66796875","86.78125","111.5625","-233.21875"
"1542028044692","192","1.6035156","1.9453125","0.63378906","-185.9375","312.25","-300.78125"
"1542028044694","193","0.80371094","-1.1591797","-0.44433594","-25.71875","267.6875","-100.71875"
"1542028044889","194","0.42382812","-1.3935547","-0.76171875","-9.125","180.84375","50.21875"
"1542028044890","195","0.24316406","-0.93359375","0.038085938","11.28125","94.65625","134.25"
"1542028044890","196","1.2021484","-0.39648438","0.08691406","-44.28125","19.40625","172.59375"
"1542028044892","197","1.7265625","0.58691406","0.68652344","159.34375","-60.8125","230.34375"
"1542028044892","198","1.9677734","1.9453125","-0.3232422","-104.1875","-113.46875","185.53125"
"1542028045089","199","1.9677734","1.9453125","-0.25585938","-2.625","-194.34375","123.6875"
"1542028045089","200","0.6386719","1.6298828","-0.19921875","-125.5625","-216.3125","47.40625"
"1542028045089","201","-0.5859375","0.5419922","0.026367188","-82.0","-250.4375","55.90625"
"1542028045090","202","-1.7490234","-0.265625","0.27539062","-51.21875","-223.34375","99.28125"
"1542028045091","203","-2.0058594","0.24316406","0.049804688","-25.15625","-141.875","96.84375"
"1542028045289","204","-2.0322266","0.5966797","0.5732422","5.28125","-20.9375","-22.53125"
"1542028045290","205","-1.6435547","1.3183594","0.7890625","56.9375","85.125","-146.9375"
"1542028045290","206","-1.265625","1.9453125","1.3125","62.84375","207.03125","-295.1875"
"1542028045290","207","0.515625","1.9453125","-0.046875","82.75","234.65625","-430.3125"
"1542028045290","208","1.828125","1.9453125","-0.22070312","-126.40625","115.46875","-398.9375"
"1542028045488","209","1.8857422","1.671875","-0.515625","-93.28125","143.125","-300.1875"
"1542028045488","210","1.3212891","-0.7636719","-0.28515625","-30.90625","165.21875","-164.125"
"1542028045488","211","1.1464844","-1.1533203","-0.30859375","-103.28125","163.6875","-1.0"
"1542028045490","212","1.2412109","-1.0947266","-0.028320312","-42.625","78.53125","181.0"
"1542028045490","213","1.5957031","-0.50097656","0.20214844","-30.53125","-12.53125","319.1875"
"1542028045685","214","1.9677734","0.85058594","0.23828125","-22.28125","-79.125","391.34375"
"1542028045685","215","1.9677734","1.9453125","-0.08984375","-5.4375","-138.03125","370.28125"
"1542028045686","216","1.8144531","1.9453125","-0.32128906","-157.25","-215.71875","198.46875"
"1542028045686","217","-0.08984375","1.9453125","0.045898438","-65.625","-197.09375","20.3125"
"1542028045686","218","-1.2607422","0.12207031","0.54589844","-98.90625","-214.1875","37.34375"
"1542028045884","219","-1.6914062","-0.5126953","0.14453125","-149.5625","-188.8125","53.5625"
"1542028045884","220","-1.6679688","-0.48632812","-0.032226562","-68.5","-128.625","54.0"
"1542028045885","221","-1.4248047","-0.072265625","-0.16503906","-59.28125","-24.75","-10.15625"
"1542028045885","222","-1.4121094","1.5185547","0.3857422","82.1875","88.25","-94.4375"
"1542028045886","223","-1.1660156","1.9453125","0.22753906","62.90625","214.28125","-239.40625"
"1542028046083","224","-0.5253906","1.9453125","-0.14453125","109.53125","260.40625","-336.125"
"1542028046083","225","1.4257812","1.9453125","-0.033203125","-1.71875","185.15625","-353.15625"
"1542028046084","226","1.2900391","1.4199219","0.37402344","9.9375","154.71875","-267.34375"
"1542028046084","227","0.8730469","-0.54589844","0.47558594","-57.09375","147.5625","-118.65625"
"1542028046084","228","0.7558594","-1.0234375","0.27929688","-92.375","153.0","13.96875"
"1542028046284","229","0.60546875","-0.6982422","0.04296875","-53.90625","123.28125","133.78125"
"1542028046284","230","1.0302734","-0.38476562","0.3955078","-38.15625","69.625","218.625"
"1542028046285","231","1.640625","0.7783203","-0.068359375","-11.0625","1.03125","240.21875"
"1542028046285","232","1.9677734","1.9453125","-0.30273438","-37.75","-93.875","199.25"
"1542028046285","233","1.9677734","1.9453125","-0.3203125","-134.84375","-228.53125","184.6875"
"1542028046481","234","0.5957031","1.9453125","-0.2939453","-25.59375","-248.84375","82.875"
"1542028046482","235","-0.64746094","0.5830078","0.46679688","-47.875","-282.96875","91.65625"
"1542028046482","236","-1.2792969","-0.27929688","0.6347656","-90.71875","-249.15625","81.21875"
"1542028046482","237","-1.5791016","-0.5292969","0.4375","-83.15625","-177.1875","85.5"
"1542028046482","238","-1.4814453","-0.30664062","-0.08691406","-55.9375","-65.5625","61.15625"
"1542028046680","239","-1.3945312","0.10449219","-0.20214844","-0.6875","17.125","14.3125"
"1542028046680","240","-1.5029297","1.0839844","0.15722656","72.3125","101.71875","-79.0625"
"1542028046681","241","-1.4228516","1.9453125","0.4970703","175.65625","170.875","-214.75"
"1542028046681","242","0.69433594","1.9453125","-0.375","137.75","174.375","-457.21875"
"1542028046681","243","1.7246094","1.9453125","-0.3408203","-74.1875","108.875","-424.09375"
"1542028046877","244","1.7880859","1.0742188","-0.10839844","7.8125","102.71875","-314.34375"
"1542028046878","245","1.0283203","-0.7451172","0.22753906","-59.34375","78.84375","-140.875"
"1542028046878","246","0.8613281","-0.9423828","0.14550781","-164.03125","99.90625","-5.375"
"1542028046879","247","0.6953125","-0.6591797","-0.034179688","-27.53125","89.875","122.0"
"1542028046879","248","1.0751953","-0.36621094","0.29589844","-34.5625","60.71875","237.65625"
"1542028047076","249","1.5947266","1.0595703","0.06738281","-72.03125","13.0","265.5"
"1542028047077","250","1.9101562","1.9453125","-0.515625","49.84375","-36.6875","260.25"
"1542028047077","251","1.8720703","1.9453125","-0.65527344","-190.4375","-158.40625","277.625"
"1542028047077","252","0.5810547","1.9453125","-0.703125","114.84375","-213.28125","112.21875"
"1542028047078","253","-0.8613281","0.59765625","0.42089844","-49.09375","-270.21875","125.21875"
"1542028047277","254","-1.3632812","0.06640625","1.0576172","-30.96875","-225.46875","124.75"
"1542028047278","255","-1.6748047","-0.2841797","0.47558594","-100.0","-101.21875","92.4375"
"1542028047278","256","-1.5839844","-0.052734375","-0.2421875","-135.8125","-27.0","18.40625"
"1542028047278","257","-1.3398438","0.21191406","-0.3310547","-55.25","66.5","-71.71875"
"1542028047477","258","-0.78222656","0.5058594","0.047851562","-19.5","168.125","-152.40625"
"1542028047477","259","-0.9326172","1.9453125","-0.40820312","73.34375","245.03125","-164.25"
"1542028047477","260","1.3056641","1.9453125","-0.7578125","155.0625","146.21875","-269.65625"
"1542028047477","261","1.0439453","1.9453125","-0.25585938","-17.53125","57.65625","-340.40625"
"1542028047478","262","0.9238281","0.09765625","0.9736328","29.84375","13.40625","-261.6875"
"1542028047478","263","0.52246094","-0.76953125","0.29785156","-122.09375","39.59375","-62.46875"
"1542028047672","264","0.640625","-0.7890625","-0.10253906","-121.84375","59.3125","46.5625"
"1542028047673","265","0.5029297","-0.2783203","-0.24609375","-15.53125","56.0","94.28125"
"1542028047673","266","0.91503906","-0.359375","0.20800781","-61.1875","17.4375","161.71875"
"1542028047674","267","1.6728516","0.4326172","-0.041015625","81.71875","35.25","248.59375"
"1542028047871","268","1.9677734","1.7666016","0.22558594","23.0625","22.6875","388.15625"
"1542028047873","269","1.6542969","1.9453125","-1.09375","8.40625","-48.21875","201.28125"
"1542028047873","270","-0.24609375","1.2802734","-0.42285156","-41.53125","-207.34375","73.15625"
"1542028047873","271","-1.1054688","0.23925781","0.4404297","-130.21875","-316.3125","36.0625"
"1542028047874","272","-2.0185547","-0.44433594","0.8964844","-65.03125","-222.0625","52.0"
"1542028048070","273","-1.7080078","-0.11035156","0.034179688","-136.0","-63.1875","19.6875"
"1542028048071","274","-1.1865234","0.36816406","-0.6923828","-76.1875","10.3125","-13.4375"
"1542028048071","275","-1.4384766","0.7402344","-0.17578125","12.75","133.34375","-109.9375"
"1542028048071","276","-1.1171875","1.9453125","0.056640625","109.84375","254.3125","-187.8125"
"1542028048072","277","-0.68066406","1.9453125","0.7939453","174.4375","255.0","-347.65625"
"1542028048269","278","1.2148438","1.9453125","0.4013672","-15.6875","238.5","-458.21875"
"1542028048270","279","1.8984375","0.4638672","0.58984375","4.6875","179.375","-371.53125"
"1542028048270","280","1.1845703","-1.3652344","0.28222656","-32.65625","54.5625","-167.9375"
"1542028048270","281","1.1904297","-0.99902344","0.26171875","-146.4375","13.21875","23.46875"
"1542028048270","282","0.9716797","-0.5644531","0.23144531","-37.0","16.78125","159.84375"
"1542028048470","283","1.5009766","-0.3466797","0.32714844","-43.59375","-9.0","279.09375"
"1542028048470","284","1.9677734","1.15625","0.14550781","-108.46875","-78.3125","354.0"
"1542028048470","285","1.9677734","1.9453125","0.5205078","-48.125","-150.09375","370.71875"
"1542028048470","286","1.1435547","1.9453125","0.33984375","-440.625","-254.40625","174.96875"
"1542028048471","287","0.051757812","1.9453125","0.73339844","55.53125","-240.125","-17.71875"
"1542028048667","288","-1.1542969","0.06933594","0.5917969","-138.5","-265.40625","-19.4375"
"1542028048667","289","-1.3271484","-0.63183594","0.055664062","-89.125","-239.34375","4.75"
"1542028048667","290","-1.40625","-0.6425781","0.14746094","-42.25","-136.96875","21.71875"
"1542028048668","291","-1.4638672","-0.21972656","-0.47558594","-46.46875","-32.125","10.46875"
"1542028048668","292","-1.4980469","0.27246094","-0.0078125","43.5","53.09375","-11.84375"
"1542028048865","293","-1.5214844","1.8769531","0.38085938","63.46875","142.75","-88.46875"
"1542028048866","294","-1.4541016","1.9453125","1.8515625","99.21875","234.71875","-323.375"
"1542028048866","295","1.09375","1.9453125","0.85839844","80.6875","244.3125","-561.28125"
"1542028048866","296","1.1816406","1.9453125","0.6738281","-23.5625","130.84375","-467.3125"
"1542028048867","297","1.6015625","-0.41503906","0.67578125","-122.8125","98.6875","-221.6875"
"1542028049064","298","1.3662109","-1.0224609","0.36523438","-44.4375","125.53125","23.78125"
"1542028049065","299","1.1835938","-0.6640625","0.15722656","-101.6875","146.09375","199.4375"
"1542028049065","300","1.2919922","0.115234375","0.15917969","-97.71875","80.0","299.25"
"1542028049065","301","1.2226562","0.6201172","0.28027344","-62.6875","11.75","302.46875"
"1542028049065","302","1.5429688","0.9394531","-0.20898438","-108.21875","-61.59375","284.46875"
"1542028049265","303","1.1269531","1.9453125","-0.21777344","54.3125","-217.84375","266.65625"
"1542028049265","304","1.9677734","1.9453125","0.7060547","-121.21875","-336.375","54.125"
"1542028049265","305","0.08105469","1.4003906","0.5498047","139.9375","-336.125","-120.75"
"1542028049266","306","-0.9472656","-1.0410156","0.69433594","59.25","-303.78125","-47.0"
"1542028049266","307","-1.3330078","-1.3144531","0.8769531","37.46875","-227.875","77.4375"
"1542028049464","308","-1.7207031","-1.015625","0.72558594","-46.46875","-121.34375","113.28125"
"1542028049464","309","-1.9775391","-0.3203125","0.9316406","-70.5625","-26.0625","60.40625"
"1542028049464","310","-1.6376953","0.98828125","1.109375","-126.53125","134.5","-24.5625"
"1542028049464","311","-1.2392578","1.9453125","2.0615234","29.21875","280.1875","-293.40625"
"1542028049465","312","0.9189453","1.9453125","-0.58984375","-151.4375","359.78125","-467.25"
"1542028049660","313","1.9677734","1.9453125","-0.71875","-10.875","285.15625","-297.375"
"1542028049661","314","0.8232422","0.55566406","-0.140625","-4.96875","208.0","-149.5625"
"1542028049661","315","0.11328125","0.016601562","-0.056640625","-41.09375","140.4375","6.5625"
"1542028049662","316","0.20996094","0.009765625","0.09765625","10.46875","88.5","56.9375"
"1542028049662","317","0.43652344","-0.28710938","0.4814453","-49.28125","51.125","49.25"
"1542028049858","318","0.87109375","-0.22753906","0.00390625","-10.28125","-17.71875","115.78125"
"1542028049859","319","1.3945312","0.032226562","0.13769531","-9.0","-61.53125","210.5"
"1542028049860","320","1.5429688","1.9453125","-0.546875","19.46875","-126.90625","287.53125"
"1542028049860","321","0.84277344","1.9453125","-0.62597656","-4.34375","-192.15625","181.4375"
"1542028049861","322","-0.2109375","1.9453125","-0.16015625","50.46875","-265.28125","112.03125"
"1542028050058","323","-0.8925781","0.38671875","0.8105469","-13.375","-277.71875","150.75"
"1542028050058","324","-1.0654297","-0.06933594","0.6328125","-12.28125","-223.71875","155.4375"
"1542028050059","325","-1.9257812","-0.51953125","0.4736328","-10.8125","-136.375","130.59375"
"1542028050060","326","-2.0322266","-0.18261719","0.2861328","-45.71875","-20.21875","37.9375"
"1542028050060","327","-2.0322266","0.7470703","0.5595703","-5.25","128.34375","-110.25"
"1542028050256","328","-1.9941406","1.9453125","0.9326172","91.125","289.0","-299.5625"
"1542028050256","329","-0.85253906","1.9453125","-1.4365234","152.09375","277.625","-474.8125"
"1542028050257","330","1.9677734","1.9453125","-0.10058594","20.6875","37.34375","-463.5625"
"1542028050258","331","1.5244141","1.3007812","0.17089844","-17.78125","30.5","-317.75"
"1542028050259","332","1.0869141","-0.86328125","0.390625","-70.5625","93.3125","-163.21875"
"1542028050456","333","0.9082031","-0.84277344","0.15722656","-135.5625","135.90625","9.5"
"1542028050457","334","0.83496094","-0.44921875","-0.045898438","-65.8125","125.09375","141.15625"
"1542028050457","335","0.9658203","-0.22363281","0.23144531","-48.90625","85.0625","244.1875"
"1542028050457","336","1.3955078","0.8730469","-0.29785156","-93.75","29.9375","307.25"
"1542028050457","337","1.3398438","1.9453125","-0.9658203","32.5625","-13.5","307.28125"
"1542028050656","338","1.53125","1.9453125","-1.0585938","-118.90625","-90.34375","265.0625"
"1542028050656","339","0.4345703","1.9453125","-0.63671875","-28.34375","-187.21875","136.875"
"1542028050656","340","-0.57421875","0.87402344","0.35058594","-86.4375","-226.6875","147.25"
"1542028050656","341","-1.1435547","0.16113281","0.54589844","-101.9375","-209.78125","128.53125"
"1542028050656","342","-1.2958984","-0.1171875","0.2998047","-52.4375","-153.09375","115.84375"
"1542028050854","343","-1.4667969","-0.16113281","-0.049804688","-50.96875","-89.75","70.84375"
"1542028050855","344","-1.8251953","0.1171875","-0.3330078","-58.3125","-10.5","-50.0625"
"1542028050855","345","-1.9052734","0.76660156","0.024414062","44.71875","64.3125","-166.21875"
"1542028050855","346","-1.9482422","1.9453125","0.24316406","-16.3125","175.59375","-284.875"
"1542028050856","347","0.057617188","1.9453125","-0.9111328","342.21875","219.34375","-408.28125"
"1542028051050","348","1.2089844","1.9453125","-0.7871094","65.34375","61.15625","-357.3125"
"1542028051052","349","1.2451172","0.9169922","0.013671875","98.9375","58.53125","-265.875"
"1542028051053","350","0.9277344","-0.41992188","0.49023438","-22.59375","82.375","-163.65625"
"1542028051054","351","0.84472656","-0.59472656","0.42382812","-105.90625","95.875","-56.03125"
"1542028051054","352","0.79785156","-0.62597656","0.58203125","-109.21875","94.46875","90.0625"
"1542028051250","353","1.1015625","-0.33984375","0.3720703","-167.3125","67.71875","208.96875"
"1542028051251","354","1.40625","0.6582031","-0.19335938","-74.125","53.6875","269.40625"
"1542028051252","355","1.453125","1.9453125","-0.99316406","-148.75","6.40625","269.40625"
"1542028051252","356","1.9677734","1.9453125","-1.203125","-126.125","-140.34375","193.15625"
"1542028051252","357","0.41796875","1.9453125","-0.6904297","-47.3125","-254.03125","93.25"
"1542028051450","358","-0.85253906","0.625","0.43945312","-120.8125","-313.5","126.4375"
"1542028051451","359","-1.5625","-0.036132812","0.85546875","-18.375","-244.46875","133.65625"
"1542028051451","360","-1.7246094","-0.49121094","0.46484375","-61.59375","-122.9375","106.0"
"1542028051451","361","-1.5966797","-0.16015625","-0.123046875","-51.46875","-53.3125","64.8125"
"1542028051451","362","-1.4394531","0.23632812","-0.28027344","-58.71875","38.375","-11.3125"
"1542028051648","363","-1.6367188","1.6845703","0.20214844","58.28125","128.40625","-121.71875"
"1542028051649","364","-0.76660156","1.9453125","-1.1035156","165.4375","208.34375","-243.84375"
"1542028051650","365","1.6308594","1.9453125","-0.26953125","3.09375","79.8125","-417.25"
"1542028051650","366","1.8173828","1.9453125","0.051757812","-20.46875","139.375","-385.875"
"1542028051650","367","1.3095703","-0.18457031","0.29785156","26.46875","139.5","-212.71875"
"1542028051846","368","0.6767578","-0.59277344","0.20410156","-91.15625","124.3125","-34.8125"
"1542028051846","369","0.65527344","-0.40039062","0.022460938","-73.25","119.125","70.40625"
"1542028051848","370","0.5810547","-0.35546875","0.12890625","-0.5","82.875","134.875"
"1542028051848","371","0.82714844","-0.107421875","0.26757812","-103.53125","7.625","190.15625"
"1542028051848","372","1.0380859","0.57714844","-0.04296875","-45.1875","-48.96875","197.875"
"1542028052044","373","1.1708984","1.0390625","-0.10546875","-33.15625","-98.21875","304.3125"
"1542028052046","374","1.9677734","1.9453125","-0.83691406","-161.03125","-128.0","253.53125"
"1542028052047","375","0.54785156","1.9453125","-0.5595703","44.65625","-139.65625","75.5"
"1542028052047","376","-0.55371094","0.82421875","-0.12988281","-161.75","-246.0625","51.5625"
"1542028052047","377","-1.3544922","-0.2626953","0.19238281","-44.21875","-248.625","57.65625"
"1542028052245","378","-1.6240234","-0.546875","0.30371094","-47.75","-151.3125","59.6875"
"1542028052245","379","-1.2265625","-0.030273438","-0.13183594","-33.875","-26.125","10.59375"
"1542028052245","380","-0.91503906","0.59765625","-0.018554688","-3.96875","57.28125","-92.78125"
"1542028052245","381","-1.2988281","0.8769531","0.9707031","50.9375","156.34375","-207.09375"
"1542028052445","382","-1.2988281","1.6796875","1.0498047","-7.8125","324.8125","-243.78125"
"1542028052445","383","1.453125","1.9453125","0.31835938","94.15625","324.15625","-245.25"
"1542028052445","384","1.0527344","1.9453125","-0.5605469","-121.84375","267.625","-298.65625"
"1542028052447","385","1.0488281","0.9140625","-0.66796875","97.28125","168.5","-188.84375"
"1542028052447","386","0.4345703","-0.58691406","-0.16308594","-11.4375","7.0625","-34.8125"
"1542028052447","387","0.4765625","-0.21582031","-0.16015625","-152.78125","18.125","49.65625"
"1542028052643","388","0.3154297","-0.140625","0.22558594","59.0625","38.25","93.0625"
"1542028052643","389","0.5878906","-0.2890625","0.6621094","4.9375","41.25","146.78125"
"1542028052644","390","0.96875","0.22363281","0.60546875","17.3125","20.3125","171.625"
"1542028052644","391","1.2724609","0.6767578","0.5019531","-66.65625","3.84375","203.125"
"1542028052644","392","1.9677734","1.9453125","-0.43652344","-61.40625","-132.875","210.8125"
"1542028052841","393","1.2216797","1.9453125","-1.7265625","55.28125","-266.625","46.0625"
"1542028052841","394","0.20117188","1.3115234","0.14550781","-53.46875","-354.25","126.8125"
"1542028052842","395","-1.0576172","0.8339844","0.9404297","-62.09375","-310.375","90.25"
"1542028052842","396","-1.6933594","-0.46191406","0.66015625","-42.8125","-146.25","49.90625"
"1542028052843","397","-1.8203125","-0.5703125","0.23535156","-140.09375","-37.375","-13.9375"
"1542028053039","398","-1.5683594","0.28027344","-0.64941406","-53.0","76.03125","-55.875"
"1542028053039","399","-1.1386719","1.0644531","0.20605469","19.53125","177.90625","-186.40625"
"1542028053040","400","-1.2880859","1.9453125","0.36132812","113.375","183.625","-279.75"
"1542028053040","401","-0.11621094","1.9453125","0.20996094","102.28125","147.125","-332.15625"
"1542028053040","402","0.27929688","1.9453125","0.28808594","-98.21875","90.5","-310.9375"
"1542028053239","403","0.7246094","1.1269531","0.029296875","-42.625","123.65625","-172.5625"
"1542028053240","404","0.5253906","-0.12597656","-0.15820312","-46.65625","121.4375","-40.84375"
"1542028053240","405","0.45507812","-0.15820312","-0.38183594","-153.875","83.78125","67.6875"
"1542028053240","406","0.61621094","0.0048828125","-0.16894531","-23.40625","51.25","99.46875"
"1542028053240","407","0.5371094","-0.16992188","0.21191406","-0.375","27.4375","133.28125"
"1542028053439","408","0.9238281","0.46972656","0.2783203","-8.75","-28.59375","180.34375"
"1542028053440","409","0.39746094","1.4208984","-0.22753906","-9.96875","-66.53125","211.46875"
"1542028053440","410","0.9785156","1.9453125","-0.32421875","-118.5","-140.15625","173.9375"
"1542028053441","411","0.53125","1.9453125","-0.8330078","133.71875","-196.96875","-19.3125"
"1542028053441","412","0.28222656","0.3955078","-0.16113281","37.75","-270.15625","51.8125"
"1542028053635","413","-0.31347656","0.10058594","0.578125","-40.53125","-280.84375","136.21875"
"1542028053635","414","-0.8017578","-0.19140625","0.8847656","-4.28125","-170.375","151.34375"
"1542028053635","415","-1.1386719","-0.41601562","0.39746094","-63.25","-57.9375","110.59375"
"1542028053636","416","-1.625","-0.54785156","-0.13964844","-105.84375","13.59375","71.40625"
"1542028053636","417","-2.0322266","0.16210938","-0.2734375","15.5625","96.0625","15.3125"
"1542028053834","418","-1.9570312","1.9453125","-0.17773438","118.40625","177.34375","-129.28125"
"1542028053834","419","0.18652344","1.9453125","0.036132812","184.96875","185.59375","-420.375"
"1542028053835","420","1.1513672","1.9453125","0.9003906","-82.21875","129.6875","-432.09375"
"1542028053836","421","1.5048828","0.93652344","0.87890625","-36.9375","179.0","-296.21875"
"1542028053836","422","1.1357422","-0.43847656","0.4296875","-77.71875","163.875","-128.875"
"1542028054032","423","0.90722656","-0.4033203","0.0546875","-141.6875","134.75","-13.125"
"1542028054033","424","0.7939453","-0.28027344","-0.119140625","-92.46875","97.875","75.25"
"1542028054033","425","1.0527344","-0.14453125","-0.16210938","-41.65625","48.1875","163.125"
"1542028054035","426","1.6767578","0.31933594","-0.10253906","-53.3125","3.53125","229.84375"
"1542028054035","427","1.65625","1.9453125","-0.45117188","0.21875","-62.9375","260.53125"
"1542028054233","428","1.9677734","1.9453125","0.4560547","-67.65625","-196.25","283.96875"
"1542028054233","429","0.53222656","1.9453125","-0.23242188","-41.59375","-220.84375","99.34375"
"1542028054234","430","-0.6279297","0.5595703","0.13085938","-2.875","-263.03125","102.53125"
"1542028054234","431","-1.5185547","-0.31835938","0.35742188","-122.6875","-264.3125","129.375"
"1542028054234","432","-1.875","-0.64941406","0.123046875","-83.34375","-193.1875","133.71875"
"1542028054432","433","-1.5830078","-0.21972656","-0.15039062","-17.78125","-94.4375","70.78125"
"1542028054432","434","-1.6103516","0.27929688","-0.047851562","-37.625","21.53125","-3.625"
"1542028054433","435","-1.5585938","1.8105469","0.53125","118.28125","124.125","-117.6875"
"1542028054433","436","-1.3417969","1.9453125","0.076171875","104.21875","174.53125","-265.21875"
"1542028054433","437","1.6923828","1.9453125","-0.30859375","160.8125","90.125","-475.96875"
"1542028054628","438","1.3017578","1.9453125","-0.3515625","-131.84375","45.8125","-380.3125"
"1542028054629","439","1.4375","0.9970703","-0.05078125","-1.53125","92.5","-246.71875"
"1542028054629","440","1.0185547","-0.30566406","0.14160156","-54.8125","131.5625","-119.71875"
"1542028054630","441","0.8457031","-0.8095703","-0.0625","-98.65625","166.625","-12.40625"
"1542028054630","442","0.7685547","-0.94433594","-0.07128906","-14.3125","140.5625","111.4375"
"1542028054828","443","1.4882812","-0.4423828","-0.032226562","3.46875","73.46875","250.90625"
"1542028054828","444","1.8378906","0.7919922","0.06933594","8.15625","-11.1875","317.1875"
"1542028054830","445","1.9677734","1.9453125","-0.14550781","-16.25","-95.0625","344.84375"
"1542028054830","446","1.7763672","1.9453125","-0.38183594","-152.65625","-171.59375","240.71875"
"1542028054831","447","0.2939453","1.9453125","-0.0234375","-111.84375","-210.21875","146.71875"
"1542028055028","448","-0.6152344","1.1240234","0.20117188","-153.09375","-249.03125","178.5625"
"1542028055028","449","-1.0761719","0.53027344","0.30859375","-85.59375","-249.96875","197.375"
"1542028055028","450","-1.3554688","0.18359375","0.17480469","-40.78125","-194.40625","182.84375"
"1542028055029","451","-1.8007812","0.5732422","-0.14746094","-52.5","-130.5","91.0"
"1542028055029","452","-2.0195312","0.8720703","-0.057617188","7.1875","-38.90625","-78.5"
"1542028055226","453","-1.9765625","1.0166016","0.9345703","76.9375","80.71875","-221.15625"
"1542028055226","454","-1.5390625","1.9453125","-0.017578125","-11.125","206.15625","-296.28125"
"1542028055227","455","1.9677734","1.9453125","-0.5683594","166.625","151.53125","-452.21875"
"1542028055227","456","1.6748047","1.9453125","-0.43359375","-201.375","103.875","-336.5"
"1542028055227","457","1.5771484","0.61035156","0.024414062","51.5625","142.4375","-247.4375"
"1542028055423","458","1.0097656","-0.8339844","0.22070312","2.3125","146.78125","-102.375"
"1542028055424","459","0.8808594","-1.0195312","0.001953125","-60.9375","140.625","43.625"
"1542028055424","460","1.0068359","-0.6826172","-0.03125","39.40625","110.15625","166.625"
"1542028055425","461","1.8173828","-0.09765625","0.01171875","13.71875","69.875","274.28125"
"1542028055425","462","1.9677734","1.9453125","-0.38867188","-24.90625","-8.9375","268.1875"
"1542028055622","463","1.9677734","1.9453125","-0.1171875","-26.5625","-78.4375","278.375"
"1542028055622","464","1.3154297","1.9453125","-0.5175781","-176.21875","-136.3125","152.5"
"1542028055623","465","0.038085938","1.5625","-0.09863281","-139.65625","-168.96875","109.1875"
"1542028055624","466","-0.8378906","1.0859375","0.03515625","-198.8125","-202.03125","103.25"
"1542028055624","467","-1.2832031","0.66015625","0.23925781","-99.6875","-201.125","92.8125"
"1542028055822","468","-1.7148438","0.23925781","0.23632812","-135.75","-148.34375","45.28125"
"1542028055823","469","-1.7753906","0.45898438","-0.41503906","-63.625","-49.5625","-63.75"
"1542028055823","470","-1.5664062","-0.1328125","0.16992188","39.65625","58.625","-186.46875"
"1542028055824","471","-1.6005859","0.5830078","0.7685547","-9.96875","170.875","-244.09375"
"1542028055824","472","-1.9130859","1.9453125","0.034179688","179.0625","279.9375","-245.9375"
"1542028056020","473","1.9677734","1.9453125","-0.37597656","39.71875","167.53125","-422.375"
"1542028056219","474","1.3691406","1.9453125","-0.234375","-56.84375","145.1875","-359.09375"
"1542028056219","475","1.1728516","0.044921875","0.32128906","44.90625","149.71875","-245.0625"
"1542028056219","476","0.8154297","-0.38085938","0.40429688","-43.09375","129.0","-102.1875"
"1542028056221","477","0.7324219","-0.41308594","0.3623047","-70.09375","116.4375","-10.15625"
"1542028056221","478","0.72558594","-0.3388672","0.21289062","-35.40625","96.65625","89.71875"
"1542028056222","479","1.21875","0.10449219","0.12890625","-56.15625","45.21875","166.4375"
"1542028056222","480","1.2119141","0.21289062","-0.057617188","-66.53125","4.0","205.96875"
"1542028056223","481","1.4433594","0.3203125","-0.20019531","-104.3125","-28.34375","287.15625"
"1542028056224","482","1.9677734","1.9453125","-0.30859375","-42.625","-127.8125","444.25"
"1542028056418","483","1.9638672","1.9453125","-0.4267578","-348.78125","-222.5625","273.46875"
"1542028056419","484","0.030273438","1.9453125","0.09082031","118.15625","-228.84375","135.0625"
"1542028056419","485","-0.68359375","0.74316406","0.3544922","-100.0625","-241.65625","141.84375"
"1542028056419","486","-0.8310547","0.36621094","0.11035156","-87.125","-221.21875","126.9375"
"1542028056419","487","-1.0351562","-0.080078125","0.47753906","-11.6875","-164.6875","105.15625"
"1542028056616","488","-1.265625","-0.14160156","0.23144531","-69.03125","-87.1875","81.28125"
"1542028056616","489","-1.2851562","0.22070312","-0.1328125","-19.53125","-18.9375","27.6875"
"1542028056616","490","-1.234375","0.4091797","0.103515625","19.34375","26.59375","-60.375"
"1542028056617","491","-1.1689453","1.9453125","0.3173828","10.84375","58.625","-110.25"
"1542028056618","492","1.2675781","1.9453125","-0.037109375","130.0625","95.5625","-262.65625"
"1542028056816","493","1.4443359","1.9453125","-0.12402344","-113.53125","154.15625","-415.3125"
"1542028056816","494","1.9677734","1.9453125","-0.3203125","38.125","260.3125","-461.75"
"1542028056816","495","1.8779297","0.76660156","-0.12695312","-35.125","221.53125","-340.03125"
"1542028056818","496","1.0791016","0.18164062","-0.18945312","-89.6875","181.3125","-217.1875"
"1542028056818","497","0.8017578","-0.34277344","0.04296875","-38.78125","142.9375","-140.28125"
"1542028057016","498","0.72753906","-0.6621094","0.20117188","-63.375","106.0","-94.375"
"1542028057016","499","0.85839844","-0.34960938","0.00390625","-12.46875","37.34375","-2.8125"
"1542028057017","500","0.7841797","-0.2763672","0.14746094","-25.78125","-31.375","103.0625"
"1542028057017","501","0.98046875","0.09375","-0.20214844","-105.65625","-50.0","141.34375"
"1542028057017","502","0.7314453","1.703125","-0.70214844","123.6875","-74.71875","296.375"
"1542028057213","503","1.9677734","1.9453125","-0.4814453","-226.5625","-103.71875","338.90625"
"1542028057213","504","0.59375","1.9453125","-0.8300781","156.84375","-97.4375","99.46875"
"1542028057213","505","0.0146484375","0.6435547","0.39746094","69.125","-174.40625","118.40625"
"1542028057213","506","-0.4375","0.5048828","0.15917969","-114.46875","-252.75","174.125"
"1542028057413","507","-0.6699219","0.17089844","0.41308594","38.5","-235.125","184.5625"
"1542028057413","508","-1.0693359","-0.171875","0.46679688","-39.9375","-184.03125","163.4375"
"1542028057413","509","-1.2177734","-0.0546875","0.13085938","-102.96875","-133.875","125.71875"
"1542028057413","510","-1.1767578","-0.17871094","-0.028320312","-44.875","-81.5","98.1875"
"1542028057414","511","-0.9091797","-0.001953125","-0.2939453","52.28125","-34.6875","73.15625"
"1542028057414","512","-1.2392578","1.3691406","0.4921875","55.21875","4.375","27.03125"
"1542028057610","513","0.25878906","1.9453125","-0.17285156","167.21875","104.125","-142.96875"
"1542028057610","514","1.3642578","1.9453125","-0.30273438","37.75","131.625","-462.0"
"1542028057610","515","1.8310547","1.9453125","-0.68359375","11.40625","163.3125","-536.34375"
"1542028057610","516","1.9677734","1.9453125","-0.4794922","52.0","119.96875","-450.6875"
"1542028057809","517","1.2832031","0.9970703","-0.28222656","-116.59375","114.84375","-321.375"
"1542028057810","518","1.0673828","0.09082031","-0.103515625","-32.84375","101.71875","-200.21875"
"1542028057810","519","0.76464844","-0.53222656","0.06542969","-93.53125","83.53125","-67.875"
"1542028057811","520","0.765625","-0.35742188","-0.40722656","-63.96875","87.21875","59.3125"
"1542028057811","521","1.0625","-0.6875","-0.020507812","9.9375","48.875","180.53125"
"1542028058010","522","1.0146484","-0.49316406","0.026367188","-46.84375","12.9375","284.28125"
"1542028058010","523","0.8173828","-0.5292969","0.10644531","-35.65625","-27.0","393.90625"
"1542028058011","524","1.3232422","-0.18164062","0.14160156","-65.9375","-36.5","535.15625"
"1542028058011","525","1.9677734","1.9453125","-0.8613281","-208.875","-41.09375","563.46875"
"1542028058011","526","1.9677734","1.9453125","-1.2177734","108.625","10.71875","379.3125"
"1542028058207","527","1.9677734","1.8515625","-0.90527344","-39.375","40.6875","200.125"
"1542028058207","528","0.6230469","0.7207031","-0.3935547","-74.0625","-47.75","164.15625"
"1542028058208","529","0.0234375","0.44335938","-0.15527344","-78.09375","-77.65625","161.3125"
"1542028058208","530","-0.16796875","0.96191406","0.020507812","-114.8125","-86.75","128.09375"
"1542028058208","531","-0.38671875","1.1455078","0.06640625","-91.8125","-65.75","43.375"
"1542028058405","532","-0.6074219","0.796875","0.0078125","-60.25","-42.4375","-17.53125"
"1542028058406","533","-0.94433594","0.79785156","-0.25683594","-59.71875","-51.09375","-54.6875"
"1542028058406","534","-1.6054688","0.90234375","0.24511719","-22.84375","-77.40625","-125.3125"
"1542028058406","535","-0.9091797","1.9453125","0.86035156","-10.28125","9.3125","-195.09375"
"1542028058406","536","1.3662109","1.9453125","-0.5683594","0.65625","114.84375","-383.9375"
"1542028058604","537","1.9677734","1.9453125","-0.7949219","26.03125","132.3125","-582.15625"
"1542028058604","538","1.9677734","1.9453125","-1.0078125","-32.78125","240.21875","-628.1875"
"1542028058604","539","1.9677734","1.7607422","-0.7285156","104.125","163.0625","-559.09375"
"1542028058604","540","1.5820312","0.11328125","-0.27929688","-70.3125","69.3125","-414.5625"
"1542028058605","541","1.3291016","-0.40039062","-0.049804688","-61.84375","32.53125","-273.4375"
"1542028058803","542","0.99121094","-0.9794922","0.31640625","-85.53125","15.25","-148.40625"
"1542028058804","543","0.65234375","-0.78808594","0.091796875","-111.28125","50.65625","-30.90625"
"1542028058804","544","0.8984375","-0.8144531","0.22753906","2.65625","41.96875","133.34375"
"1542028058805","545","1.2128906","-0.63671875","0.2939453","-111.65625","2.125","244.25"
"1542028058805","546","1.2890625","0.016601562","-0.27734375","-73.6875","-57.6875","317.96875"
"1542028059004","547","1.2226562","1.7070312","-0.60839844","72.0","-123.0","451.09375"
"1542028059004","548","1.9677734","1.9453125","-1.2167969","-172.875","-121.28125","449.375"
"1542028059005","549","1.4169922","1.9453125","-1.1523438","183.625","-91.09375","133.71875"
"1542028059005","550","0.92285156","0.99121094","-0.60253906","17.25","-206.75","211.90625"
"1542028059005","551","0.4404297","1.5","0.07421875","-8.5625","-256.4375","287.59375"
"1542028059200","552","-0.044921875","1.6503906","0.78125","116.0625","-157.65625","208.90625"
"1542028059202","553","-1.0751953","0.93066406","0.6347656","-39.75","-45.4375","158.375"
"1542028059202","554","-1.5615234","0.5371094","0.4111328","-6.1875","14.5625","96.125"
"1542028059202","555","-1.4980469","0.1640625","0.30371094","-30.59375","58.625","30.0"
"1542028059203","556","-1.2802734","-0.1484375","0.12890625","-23.40625","74.875","6.03125"
"1542028059399","557","-1.4814453","-1.3886719","0.04296875","20.5625","27.15625","53.9375"
"1542028059399","558","-0.7714844","-0.20800781","0.8457031","17.125","-13.5625","233.03125"
"1542028059400","559","1.9677734","1.9453125","-0.6904297","-16.96875","-1.59375","83.34375"
"1542028059400","560","1.9677734","1.9453125","-0.64160156","-304.40625","-19.0625","-379.15625"
"1542028059401","561","1.9677734","1.9453125","-0.38964844","161.78125","170.8125","-566.71875"
"1542028059598","562","1.9677734","1.9453125","-0.94628906","67.5625","153.84375","-607.625"
"1542028059598","563","1.9677734","1.0820312","-0.546875","59.125","160.25","-526.03125"
"1542028059598","564","1.9677734","0.11425781","-0.3671875","-20.84375","90.1875","-374.65625"
"1542028059598","565","1.0771484","-0.38964844","-0.16894531","-104.9375","46.6875","-252.28125"
"1542028059600","566","0.5673828","-0.7167969","-9.765625E-4","-115.96875","56.0625","-157.25"
"1542028059796","567","0.50390625","-1.1113281","0.08886719","-141.125","69.1875","-78.625"
"1542028059797","568","0.49902344","-0.9160156","-0.20019531","-98.59375","65.34375","33.0"
"1542028059797","569","0.7480469","-0.8828125","-0.28320312","-41.40625","17.8125","151.0"
"1542028059797","570","0.40820312","-0.14648438","-0.17285156","-53.375","-42.625","252.5625"
"1542028059798","571","1.2294922","1.9453125","-0.45214844","79.8125","-84.1875","390.25"
"1542028059996","572","1.7998047","1.9453125","-0.62402344","-154.625","-114.53125","196.59375"
"1542028059997","573","0.65527344","1.9453125","-1.0517578","67.3125","-89.0625","46.90625"
"1542028059997","574","0.6357422","0.5136719","-0.38085938","98.96875","-150.03125","137.0625"
"1542028059997","575","0.20410156","0.92871094","-0.42382812","20.3125","-198.5","249.25"
"1542028059998","576","0.07910156","1.3457031","0.5830078","140.375","-179.59375","273.1875"
"1542028060194","577","-0.45507812","1.3730469","0.3857422","-111.96875","-132.03125","195.40625"
"1542028060194","578","-1.0263672","1.0410156","0.31152344","3.40625","-94.0625","84.34375"
"1542028060194","579","-1.1113281","0.203125","0.4892578","0.21875","-44.21875","24.9375"
"1542028060195","580","-1.03125","-0.0146484375","0.26757812","3.03125","-2.59375","-54.15625"
"1542028060196","581","-1.0039062","-0.0859375","0.48632812","23.84375","35.25","-124.90625"
"1542028060394","582","-0.93847656","0.4814453","0.3564453","-41.65625","70.40625","-180.0625"
"1542028060394","583","-1.2539062","1.9453125","-0.35253906","-53.53125","139.15625","-288.59375"
"1542028060394","584","1.3847656","1.9453125","-0.14648438","176.875","113.375","-362.9375"
"1542028060395","585","1.0927734","1.9453125","-0.87402344","-111.40625","89.34375","-321.65625"
"1542028060395","586","1.2607422","1.1455078","-0.6201172","-54.21875","53.9375","-238.28125"
"1542028060592","587","0.5517578","0.9345703","-0.31835938","-44.8125","50.53125","-183.4375"
"1542028060592","588","0.0546875","0.24804688","-0.12890625","-106.71875","36.25","-74.78125"
"1542028060593","589","0.08300781","0.26171875","0.10058594","-156.03125","18.0625","24.46875"
"1542028060593","590","0.453125","0.96484375","-0.17773438","-85.84375","0.15625","14.5"
"1542028060593","591","0.16699219","0.9580078","-0.48242188","-61.59375","6.625","-4.28125"
"1542028060790","592","0.091796875","1.1689453","-0.37109375","-25.40625","-23.8125","-25.96875"
"1542028060790","593","-0.25097656","1.4765625","0.53808594","12.0","-37.96875","32.28125"
"1542028060791","594","-0.10449219","1.2265625","-0.13964844","-15.46875","-16.625","36.71875"
"1542028060792","595","-0.107421875","1.3242188","0.13769531","-13.5625","-26.8125","18.84375"
"1542028060792","596","-0.24023438","1.1787109","0.25195312","-14.53125","-33.34375","23.0625"
"1542028060990","597","-0.18164062","1.0517578","-0.038085938","14.4375","-32.1875","22.875"
"1542028060990","598","-0.2763672","0.87890625","0.09082031","-19.125","-12.46875","21.65625"
"1542028060992","599","-0.25390625","0.89453125","0.02734375","19.9375","-5.5625","29.34375"
"1542028060992","600","-0.11621094","0.8417969","-0.09375","-5.875","-0.25","25.1875"
"1542028060993","601","-0.18457031","0.8378906","-0.0126953125","-15.09375","4.1875","22.5625"
"1542028061187","602","-0.16601562","0.7714844","-0.047851562","0.09375","9.5625","22.625"
"1542028061188","603","-0.125","0.86621094","0.017578125","-3.625","11.65625","17.75"
"1542028061188","604","-0.08984375","0.8046875","-0.060546875","-5.4375","3.03125","19.21875"
"1542028061188","605","-0.1015625","0.8876953","-0.051757812","-22.59375","-4.09375","18.53125"
"1542028061190","606","-0.1015625","0.92089844","-0.055664062","-4.21875","-12.21875","20.8125"
