"# PDIoT walking data"
"# Start time: 20181112T130108"
"# Group: D"
"# Subject: Rimvydas"
"# Activity type: Walking (level ground)"
"# Sensor position: Wrist"
"# Side of body: Left"
"# Sensor mounting: Body"
"# Number of steps: 100"
"# Notes: "
""
"timestamp","seq","accel_x","accel_y","accel_z","gyro_x","gyro_y","gyro_z"
"1542027668656","0","0.9345703","0.072265625","-0.10839844","-0.3125","2.375","2.96875"
"1542027669054","1","0.9453125","0.072265625","-0.099609375","-4.34375","2.65625","4.6875"
"1542027669054","2","0.9628906","0.08300781","-0.083984375","-5.4375","4.75","5.90625"
"1542027669054","3","0.9609375","0.07519531","-0.08886719","-6.0","7.96875","6.9375"
"1542027669057","4","0.96191406","0.095703125","-0.09863281","-4.59375","12.0","11.03125"
"1542027669057","5","0.93652344","0.109375","-0.12402344","1.625","13.96875","13.59375"
"1542027669057","6","0.91796875","0.10253906","-0.13964844","1.21875","12.9375","9.25"
"1542027669057","7","0.9316406","0.107421875","-0.14648438","-3.625","10.125","2.375"
"1542027669057","8","0.94628906","0.12792969","-0.13769531","-3.5625","8.78125","-1.84375"
"1542027669058","9","0.91015625","0.1484375","-0.125","3.46875","9.25","-2.875"
"1542027669451","10","0.9472656","0.16894531","-0.080078125","30.125","17.4375","-6.0625"
"1542027669451","11","0.96875","0.13574219","-0.0859375","30.375","5.90625","2.4375"
"1542027669650","12","0.9863281","0.109375","-0.083984375","23.125","2.375","-0.375"
"1542027669848","13","0.9970703","0.10058594","-0.08203125","13.0","-0.9375","-4.40625"
"1542027669850","14","1.0605469","0.07910156","-0.08105469","1.9375","-3.8125","-1.3125"
"1542027669850","15","1.0849609","0.03125","-0.07421875","-16.5","-8.25","12.375"
"1542027669850","16","1.3222656","-0.0068359375","-0.040039062","-38.03125","-8.875","36.25"
"1542027669850","17","1.2646484","0.040039062","0.016601562","-52.5","-11.3125","50.21875"
"1542027669850","18","1.3427734","0.07519531","0.053710938","-21.0625","-10.4375","47.84375"
"1542027669851","19","0.875","-0.017578125","0.032226562","4.1875","-15.15625","15.3125"
"1542027669852","20","0.9375","-0.15820312","0.032226562","-65.09375","-23.875","-43.53125"
"1542027669852","21","0.77734375","0.15136719","-0.14355469","-66.3125","-1.65625","2.3125"
"1542027670046","22","1.4160156","0.453125","-0.3095703","-15.15625","25.25","46.90625"
"1542027670047","23","1.2470703","0.35351562","-0.14453125","69.0","15.0","41.625"
"1542027670048","24","0.98828125","0.13574219","-0.1171875","134.6875","9.03125","10.1875"
"1542027670048","25","1.1298828","0.061523438","0.00390625","123.65625","-4.96875","-17.40625"
"1542027670049","26","1.0634766","0.032226562","0.06347656","74.21875","-23.15625","-22.0"
"1542027670247","27","0.8066406","0.11425781","0.021484375","34.15625","-27.40625","-34.5625"
"1542027670247","28","0.6386719","0.16015625","0.0","37.53125","-25.84375","-58.0625"
"1542027670247","29","0.5761719","0.13085938","0.0068359375","62.96875","-24.375","-71.0625"
"1542027670247","30","0.64746094","0.09277344","0.00390625","72.875","-21.375","-65.5"
"1542027670248","31","0.85839844","0.055664062","-0.0107421875","67.125","-19.84375","-41.46875"
"1542027670444","32","0.9707031","-0.0029296875","-0.009765625","33.3125","-23.875","-13.0625"
"1542027670445","33","1.0625","0.0","0.0029296875","-13.0625","-22.71875","0.65625"
"1542027670445","34","1.2802734","0.001953125","0.026367188","-39.3125","-17.96875","13.59375"
"1542027670446","35","1.3017578","0.038085938","0.0048828125","-51.46875","1.625","28.78125"
"1542027670447","36","1.3095703","0.109375","-0.01171875","-37.4375","18.21875","54.25"
"1542027670645","37","0.96191406","0.11621094","-0.07519531","2.3125","27.09375","49.0625"
"1542027670646","38","1.1054688","-0.07910156","-0.020507812","21.71875","21.34375","24.40625"
"1542027670646","39","1.1376953","-0.13769531","0.01171875","-36.8125","-0.6875","14.625"
"1542027670646","40","0.9140625","-0.10644531","-0.080078125","-117.6875","-13.4375","-9.71875"
"1542027670647","41","0.6484375","0.043945312","-0.1484375","-130.21875","-17.03125","-30.90625"
"1542027670842","42","0.4140625","0.11425781","-0.15722656","-94.5625","-20.84375","-30.46875"
"1542027670842","43","0.3798828","0.12988281","-0.14453125","-73.8125","-17.59375","-19.1875"
"1542027670843","44","0.5722656","0.23535156","-0.15722656","-79.1875","-9.71875","-1.59375"
"1542027670844","45","0.8251953","0.3515625","-0.10058594","-79.59375","-2.6875","20.375"
"1542027670844","46","0.98828125","0.45117188","-0.13867188","-74.59375","7.3125","21.90625"
"1542027671040","47","1.2773438","0.45410156","-0.20019531","-50.84375","20.6875","21.90625"
"1542027671040","48","1.3251953","0.3984375","-0.21972656","-41.15625","31.71875","28.84375"
"1542027671042","49","1.5683594","0.6123047","-0.23632812","15.96875","29.59375","41.5"
"1542027671042","50","1.0849609","0.2919922","-0.14257812","125.28125","20.0625","22.875"
"1542027671042","51","1.0849609","0.028320312","-0.12402344","158.8125","24.28125","1.6875"
"1542027671241","52","1.1835938","0.0546875","-0.064453125","119.375","4.75","6.03125"
"1542027671242","53","0.8691406","0.07714844","-0.0126953125","51.625","-12.59375","4.875"
"1542027671242","54","0.6347656","0.15917969","-0.034179688","29.9375","-19.0625","-11.71875"
"1542027671242","55","0.5029297","0.18261719","-0.028320312","49.84375","-19.5","-30.53125"
"1542027671243","56","0.4951172","0.12890625","-0.0078125","72.6875","-18.375","-37.90625"
"1542027671440","57","0.6953125","0.09277344","-0.005859375","72.0","-17.46875","-25.84375"
"1542027671440","58","0.93652344","0.06542969","-0.00390625","48.09375","-20.28125","1.4375"
"1542027671440","59","1.0654297","0.02734375","0.01171875","8.28125","-25.40625","15.0"
"1542027671441","60","1.2001953","-0.00390625","0.049804688","-38.34375","-19.3125","12.625"
"1542027671441","61","1.3056641","-0.0107421875","-0.016601562","-56.71875","-11.78125","14.15625"
"1542027671638","62","1.4736328","0.028320312","-0.020507812","-60.8125","4.0625","27.03125"
"1542027671638","63","0.9873047","0.11425781","-0.053710938","-30.28125","12.125","28.90625"
"1542027671638","64","1.1591797","0.009765625","-0.040039062","35.625","24.875","3.59375"
"1542027671639","65","1.2617188","-0.13476562","-0.0068359375","24.8125","8.15625","0.03125"
"1542027671837","66","0.9609375","-0.21875","-0.07324219","-67.9375","-5.09375","-15.9375"
"1542027672034","67","0.5996094","-0.055664062","-0.18457031","-121.84375","-12.53125","-40.3125"
"1542027672035","68","0.30664062","0.07910156","-0.20800781","-99.1875","-17.71875","-40.25"
"1542027672035","69","0.2578125","0.107421875","-0.1484375","-61.21875","-16.9375","-25.90625"
"1542027672035","70","0.49023438","0.17773438","-0.140625","-57.9375","-9.53125","-4.96875"
"1542027672038","71","0.86328125","0.3232422","-0.10644531","-66.59375","0.28125","18.96875"
"1542027672038","72","1.0673828","0.4033203","-0.14746094","-71.125","13.34375","27.75"
"1542027672039","73","1.3203125","0.453125","-0.1875","-50.25","28.5","32.5625"
"1542027672236","74","1.5498047","0.5078125","-0.18261719","-25.46875","42.96875","42.34375"
"1542027672236","75","1.4619141","0.5136719","-0.22363281","56.9375","30.8125","48.25"
"1542027672236","76","1.2998047","-0.00390625","-0.1328125","165.03125","19.5625","8.71875"
"1542027672237","77","1.1455078","0.0146484375","-0.07324219","87.15625","-8.75","11.71875"
"1542027672237","78","0.7763672","0.12792969","-0.032226562","23.0","-20.59375","-1.34375"
"1542027672237","79","0.54785156","0.17675781","-0.041015625","27.4375","-24.375","-22.46875"
"1542027672238","80","0.41992188","0.16210938","-0.047851562","54.1875","-23.9375","-36.28125"
"1542027672432","81","0.4609375","0.12207031","-0.0234375","74.09375","-22.84375","-36.46875"
"1542027672633","82","0.7109375","0.08203125","-0.0107421875","75.90625","-22.0625","-16.96875"
"1542027672633","83","0.98828125","0.013671875","0.005859375","43.1875","-26.625","12.875"
"1542027672634","84","1.0732422","-0.053710938","0.08886719","-30.53125","-30.96875","25.3125"
"1542027672635","85","1.2998047","0.016601562","0.119140625","-79.71875","-20.03125","25.6875"
"1542027672636","86","1.2431641","0.016601562","0.038085938","-79.1875","-6.59375","22.5"
"1542027672636","87","1.4238281","0.076171875","0.005859375","-58.375","12.875","36.65625"
"1542027672636","88","0.85058594","0.109375","-0.028320312","-7.28125","25.625","28.65625"
"1542027672637","89","1.4267578","0.0087890625","-0.045898438","46.0625","36.125","8.03125"
"1542027672637","90","1.2070312","-0.072265625","-0.18359375","2.3125","11.71875","-18.5"
"1542027672830","91","0.7763672","-0.22460938","-0.14746094","-109.6875","-6.3125","-60.875"
"1542027672831","92","0.43554688","-0.046875","-0.21289062","-143.9375","-17.15625","-65.6875"
"1542027672831","93","0.22558594","0.13378906","-0.21972656","-114.59375","-28.8125","-49.75"
"1542027672832","94","0.3046875","0.18554688","-0.15625","-70.8125","-25.09375","-28.15625"
"1542027672832","95","0.59765625","0.25","-0.13769531","-45.5625","-11.1875","-2.6875"
"1542027673029","96","0.9824219","0.38964844","-0.109375","-51.03125","0.40625","24.9375"
"1542027673030","97","1.1787109","0.50390625","-0.123046875","-65.4375","16.46875","35.1875"
"1542027673031","98","1.2675781","0.55371094","-0.07324219","-42.0","25.625","31.78125"
"1542027673031","99","1.7089844","0.6767578","-0.06542969","2.375","43.625","40.6875"
"1542027673031","100","1.1376953","0.5019531","-0.021484375","89.15625","37.59375","26.28125"
"1542027673227","101","1.2148438","0.21484375","-0.0703125","165.6875","47.46875","-3.1875"
"1542027673228","102","1.2773438","0.09277344","-0.03515625","212.5","33.5","10.0625"
"1542027673228","103","0.91015625","0.013671875","-0.0048828125","151.40625","15.84375","6.09375"
"1542027673229","104","0.6298828","0.061523438","-0.052734375","86.71875","1.15625","-20.09375"
"1542027673229","105","0.4404297","0.083984375","-0.036132812","67.125","-5.8125","-41.75"
"1542027673426","106","0.48242188","0.12988281","-0.06347656","69.4375","-7.78125","-42.125"
"1542027673427","107","0.66503906","0.12890625","-0.055664062","81.71875","-13.4375","-25.46875"
"1542027673428","108","0.9169922","0.06542969","-0.020507812","75.59375","-24.4375","-3.5"
"1542027673429","109","0.9707031","-0.025390625","0.0546875","20.4375","-34.0","10.25"
"1542027673433","110","1.1650391","0.01171875","0.057617188","-39.375","-22.28125","18.65625"
"1542027673624","111","1.2070312","0.051757812","0.0546875","-58.0625","-14.125","30.625"
"1542027673823","112","1.7607422","0.11425781","0.07421875","-48.65625","8.78125","66.34375"
"1542027673824","113","0.9345703","0.16894531","0.0078125","-16.8125","9.75","51.0"
"1542027673824","114","1.4736328","-0.11816406","0.111328125","11.53125","27.21875","-1.84375"
"1542027673826","115","1.171875","-0.041015625","0.02734375","-10.6875","11.46875","-8.625"
"1542027673827","116","0.81933594","-0.115234375","-0.03515625","-86.25","-1.34375","-16.75"
"1542027673827","117","0.46777344","-0.015625","-0.11328125","-107.875","-4.71875","-17.40625"
"1542027673828","118","0.22558594","0.020507812","-0.16210938","-85.15625","-9.0","-11.625"
"1542027673828","119","0.19726562","0.034179688","-0.11328125","-72.65625","-12.71875","-1.46875"
"1542027673828","120","0.51464844","0.15039062","-0.11328125","-62.21875","-9.96875","16.84375"
"1542027674022","121","1.1650391","0.21386719","-0.09375","-63.75","1.9375","44.90625"
"1542027674022","122","1.2568359","0.23925781","-0.07910156","-97.90625","3.59375","55.96875"
"1542027674023","123","1.4755859","0.3203125","-0.17480469","-106.78125","20.625","51.625"
"1542027674023","124","1.7949219","0.4658203","-0.18164062","-60.125","41.1875","57.0"
"1542027674221","125","1.3896484","0.46679688","-0.18457031","70.65625","22.5625","63.59375"
"1542027674222","126","1.1220703","0.16894531","-0.140625","130.0","19.53125","14.75"
"1542027674223","127","1.3691406","0.07421875","-0.0859375","134.4375","1.625","-12.96875"
"1542027674224","128","1.0234375","0.030273438","-0.05078125","90.0625","-27.96875","-24.5625"
"1542027674224","129","0.6748047","0.059570312","-0.06347656","32.21875","-40.46875","-45.4375"
"1542027674224","130","0.49804688","0.115234375","-0.060546875","21.03125","-41.75","-62.625"
"1542027674421","131","0.40625","0.123046875","-0.07714844","42.28125","-42.375","-66.96875"
"1542027674422","132","0.46289062","0.087890625","-0.056640625","56.6875","-42.9375","-58.25"
"1542027674422","133","0.7236328","0.038085938","-0.033203125","49.78125","-46.59375","-38.28125"
"1542027674422","134","1.0595703","-0.02734375","-0.0087890625","19.09375","-53.78125","-14.0625"
"1542027674424","135","1.1650391","-0.07128906","0.08691406","-53.0","-52.3125","-4.15625"
"1542027674619","136","1.3896484","-0.013671875","0.059570312","-85.84375","-33.03125","5.125"
"1542027674620","137","1.4921875","0.06347656","0.016601562","-77.40625","-5.5","27.34375"
"1542027674819","138","1.1054688","0.12695312","-0.0029296875","-44.15625","10.53125","55.59375"
"1542027674821","139","1.1269531","0.076171875","-0.03125","1.4375","40.75","35.5"
"1542027674821","140","1.3359375","-0.0078125","-0.099609375","23.3125","44.46875","22.3125"
"1542027674821","141","0.9589844","-0.10449219","-0.1640625","-18.6875","29.78125","8.15625"
"1542027674821","142","0.5576172","-0.07910156","-0.21484375","-93.65625","16.15625","-11.5"
"1542027674821","143","0.24707031","-0.001953125","-0.21191406","-99.4375","4.8125","-9.59375"
"1542027674822","144","0.19042969","0.06542969","-0.16210938","-80.34375","-1.78125","7.625"
"1542027674823","145","0.421875","0.10644531","-0.13085938","-56.84375","-3.0","39.84375"
"1542027675015","146","0.90527344","0.17871094","-0.12402344","-52.4375","4.25","74.625"
"1542027675016","147","1.3173828","0.2529297","-0.16113281","-85.09375","12.5625","88.90625"
"1542027675016","148","1.5429688","0.3388672","-0.22265625","-98.28125","22.9375","74.5625"
"1542027675017","149","1.3730469","0.38671875","-0.15429688","-57.09375","31.34375","47.15625"
"1542027675017","150","1.5273438","0.49902344","-0.22753906","22.25","24.8125","40.4375"
"1542027675215","151","1.1308594","0.3515625","-0.16503906","114.90625","13.84375","-4.28125"
"1542027675215","152","1.5546875","0.10058594","-0.095703125","162.65625","3.21875","-54.28125"
"1542027675217","153","1.1904297","-0.08203125","-0.12597656","122.375","-22.59375","-80.15625"
"1542027675217","154","0.7705078","-0.10253906","-0.11816406","65.21875","-29.6875","-99.1875"
"1542027675217","155","0.53515625","0.06738281","-0.16308594","49.46875","-34.3125","-110.25"
"1542027675612","156","0.40429688","0.040039062","-0.12109375","65.96875","-38.40625","-109.03125"
"1542027675613","157","0.44726562","9.765625E-4","-0.07128906","66.34375","-41.40625","-91.5625"
"1542027675613","158","0.6748047","-0.016601562","-0.043945312","55.46875","-47.125","-62.34375"
"1542027675613","159","1.0009766","-0.07128906","0.00390625","17.125","-53.65625","-15.75"
"1542027675615","160","1.2333984","-0.04296875","0.09082031","-60.375","-51.28125","26.53125"
"1542027675615","161","1.1923828","0.036132812","0.04296875","-100.40625","-30.71875","46.625"
"1542027675615","162","1.3652344","0.076171875","-0.055664062","-82.90625","9.625","61.75"
"1542027675811","163","1.3369141","0.18261719","-0.08203125","-27.78125","30.9375","94.65625"
"1542027675811","164","1.2128906","0.080078125","-0.14257812","8.71875","47.34375","67.90625"
"1542027675811","165","1.4785156","-0.08203125","-0.080078125","11.28125","41.65625","37.21875"
"1542027675813","166","1.0498047","-0.09472656","-0.16796875","-36.5625","20.3125","24.09375"
"1542027675813","167","0.61035156","-0.05859375","-0.2607422","-118.5","2.78125","5.65625"
"1542027675814","168","0.24316406","0.07324219","-0.28320312","-112.375","-10.625","5.0625"
"1542027675814","169","0.14160156","0.13867188","-0.18945312","-78.75","-14.96875","19.15625"
"1542027675816","170","0.41308594","0.15527344","-0.13964844","-60.4375","-12.15625","43.0625"
"1542027676009","171","0.8105469","0.23925781","-0.12695312","-70.9375","-4.59375","62.375"
"1542027676210","172","1.1992188","0.31152344","-0.16796875","-97.375","7.3125","61.4375"
"1542027676408","173","1.4365234","0.37695312","-0.22558594","-102.1875","19.15625","52.53125"
"1542027676409","174","1.2412109","0.39941406","-0.19042969","-65.125","32.09375","42.40625"
"1542027676409","175","1.4697266","0.4609375","-0.23632812","-7.09375","32.9375","47.28125"
"1542027676410","176","1.0439453","0.44335938","-0.2109375","87.75","26.84375","19.75"
"1542027676410","177","1.5048828","0.22949219","-0.08691406","168.125","17.875","-24.96875"
"1542027676411","178","1.3925781","0.020507812","-0.1171875","164.65625","-9.21875","-53.40625"
"1542027676412","179","0.9189453","-0.029296875","-0.076171875","86.59375","-29.5625","-83.6875"
"1542027676412","180","0.63183594","0.032226562","-0.087890625","40.625","-39.5","-110.25"
"1542027676606","181","0.4501953","0.07910156","-0.08496094","51.6875","-42.5625","-114.40625"
"1542027676606","182","1.3544922","0.013671875","0.057617188","-49.40625","-32.25","45.03125"
"1542027676606","183","1.3193359","0.048828125","0.001953125","-75.09375","-6.78125","44.71875"
"1542027676607","184","1.4199219","0.19824219","-0.041992188","-58.375","15.25","66.5"
"1542027676607","185","0.97753906","0.23339844","-0.0703125","-6.0","39.59375","56.125"
"1542027676608","186","1.3916016","0.080078125","-0.076171875","46.0625","53.4375","41.5"
"1542027677004","187","1.0449219","-0.013671875","-0.21386719","33.8125","37.46875","35.375"
"1542027677004","188","0.6191406","-0.14746094","-0.18261719","-69.21875","14.09375","12.5"
"1542027677005","189","0.3955078","0.016601562","-0.21386719","-108.53125","2.90625","4.375"
"1542027677005","190","0.29101562","0.13378906","-0.22851562","-83.15625","-7.09375","10.90625"
"1542027677005","191","0.42089844","0.13476562","-0.23046875","-48.84375","-8.75","29.71875"
"1542027677006","192","0.7792969","0.14941406","-0.20117188","-42.0625","-2.59375","53.21875"
"1542027677007","193","1.0742188","0.20507812","-0.1875","-64.53125","0.09375","61.03125"
"1542027677008","194","1.3486328","0.2529297","-0.17675781","-75.75","10.65625","53.875"
"1542027677008","195","1.2685547","0.29003906","-0.15429688","-68.5625","13.09375","44.0625"
"1542027677203","196","1.6523438","0.35058594","-0.12109375","-42.5","35.3125","41.84375"
"1542027677203","197","1.1230469","0.45214844","-0.20117188","56.3125","20.6875","37.15625"
"1542027677204","198","1.4599609","0.29589844","-0.045898438","137.625","18.65625","-0.375"
"1542027677204","199","1.3427734","0.13867188","-0.059570312","164.34375","-0.875","-26.875"
"1542027677204","200","0.875","-0.005859375","-0.13183594","116.5","-19.25","-67.15625"
"1542027677204","201","0.61816406","0.041015625","-0.14941406","60.71875","-29.3125","-107.5625"
"1542027677402","202","0.51660156","0.080078125","-0.10058594","63.28125","-41.03125","-130.8125"
"1542027677402","203","0.5126953","0.033203125","-0.06933594","76.9375","-47.4375","-124.03125"
"1542027677402","204","0.63671875","0.018554688","-0.055664062","69.5","-45.84375","-89.90625"
"1542027677600","205","0.87109375","-0.001953125","-0.038085938","41.90625","-44.8125","-40.78125"
"1542027677600","206","1.0859375","-0.01953125","0.028320312","-4.46875","-40.125","3.03125"
"1542027677601","207","1.3330078","-0.001953125","0.07910156","-41.46875","-24.6875","31.59375"
"1542027677601","208","1.3330078","-0.009765625","0.03125","-57.5","3.65625","43.375"
"1542027677601","209","1.3710938","0.09082031","-0.029296875","-45.1875","26.65625","71.34375"
"1542027677602","210","1.0859375","0.15234375","-0.056640625","-5.03125","52.90625","60.28125"
"1542027677799","211","1.4912109","-0.0146484375","-0.06542969","47.34375","61.3125","43.5"
"1542027677800","212","1.0966797","-0.12988281","-0.171875","22.25","39.15625","33.6875"
"1542027677802","213","0.62890625","-0.17089844","-0.1953125","-93.9375","20.25","13.40625"
"1542027677802","214","0.3232422","0.0234375","-0.25878906","-115.375","7.3125","9.25"
"1542027677802","215","0.18652344","0.12011719","-0.2421875","-77.40625","-4.21875","19.8125"
"1542027677997","216","0.4189453","0.10644531","-0.20117188","-47.5625","-6.3125","42.09375"
"1542027677998","217","0.83691406","0.125","-0.15820312","-50.125","-1.125","70.0625"
"1542027677998","218","1.1923828","0.19335938","-0.12890625","-73.8125","3.53125","86.46875"
"1542027677999","219","1.5517578","0.21777344","-0.18359375","-87.84375","15.125","79.21875"
"1542027677999","220","1.3154297","0.2763672","-0.140625","-74.125","22.5625","52.28125"
"1542027678197","221","1.6826172","0.41601562","-0.234375","-3.3125","27.75","38.75"
"1542027678198","222","0.9941406","0.32226562","-0.15527344","78.96875","13.28125","-6.0625"
"1542027678198","223","1.4892578","0.1015625","-0.0546875","113.6875","5.40625","-60.25"
"1542027678198","224","1.3544922","0.033203125","-0.09277344","104.15625","-22.40625","-80.875"
"1542027678198","225","0.85546875","0.001953125","-0.15234375","64.625","-33.09375","-97.78125"
"1542027678395","226","0.5830078","0.05859375","-0.17089844","52.0","-34.9375","-111.28125"
"1542027678395","227","0.3955078","0.033203125","-0.12988281","70.1875","-40.71875","-114.8125"
"1542027678397","228","0.37890625","-0.0029296875","-0.07324219","70.0","-45.0625","-103.65625"
"1542027678398","229","0.6064453","0.00390625","-0.05078125","59.6875","-45.96875","-72.84375"
"1542027678398","230","0.9941406","-0.04296875","-0.045898438","38.9375","-48.125","-23.6875"
"1542027678796","231","1.1601562","-0.057617188","0.028320312","-21.1875","-44.625","13.0"
"1542027678797","232","1.3320312","-0.03515625","0.046875","-66.1875","-27.25","33.75"
"1542027678797","233","1.3828125","0.0126953125","9.765625E-4","-74.40625","6.5","50.65625"
"1542027678797","234","1.2871094","0.12402344","0.005859375","-49.03125","28.78125","83.90625"
"1542027679192","235","1.1650391","0.12695312","-0.016601562","-6.65625","59.125","77.6875"
"1542027679194","236","1.4599609","0.0107421875","-0.19628906","38.625","69.5","57.78125"
"1542027679194","237","0.95996094","-0.13964844","-0.21777344","4.5625","44.59375","30.4375"
"1542027679194","238","0.5253906","-0.15429688","-0.25976562","-93.875","28.1875","3.34375"
"1542027679194","239","0.2705078","-0.01171875","-0.31445312","-109.875","10.3125","1.625"
"1542027679195","240","0.51660156","0.15332031","-0.23144531","-55.375","-3.4375","55.71875"
"1542027679195","241","1.0126953","0.18457031","-0.20410156","-56.53125","2.65625","88.53125"
"1542027679195","242","1.2666016","0.234375","-0.18164062","-76.75","6.15625","94.34375"
"1542027679195","243","1.5244141","0.21386719","-0.16894531","-92.0625","14.21875","70.34375"
"1542027679388","244","0.55078125","-0.048828125","-0.060546875","62.71875","-35.21875","-100.71875"
"1542027679389","245","0.44335938","-0.078125","-0.036132812","69.625","-33.40625","-95.96875"
"1542027679389","246","0.46289062","-0.06347656","-0.0107421875","85.0","-33.71875","-71.96875"
"1542027679389","247","0.7089844","-0.078125","0.001953125","70.96875","-36.5","-31.8125"
"1542027679390","248","0.9267578","-0.059570312","0.052734375","28.0","-41.21875","3.78125"
"1542027679588","249","1.2617188","-0.028320312","0.055664062","-22.78125","-35.21875","17.0"
"1542027679588","250","1.4667969","0.0546875","0.08691406","-50.84375","-22.96875","10.25"
"1542027679589","251","1.5585938","0.25683594","-0.06640625","-61.0","-2.15625","-29.8125"
"1542027679589","252","1.2929688","0.31152344","0.0078125","-16.125","-3.5","-34.75"
"1542027679589","253","0.9667969","0.15917969","-0.06347656","-8.3125","23.375","-42.8125"
"1542027679786","254","1.1386719","0.013671875","-0.18164062","-6.0","33.0","-14.90625"
"1542027679786","255","0.82714844","0.0087890625","-0.16796875","-48.96875","17.6875","22.875"
"1542027679787","256","0.5","-0.025390625","-0.14355469","-95.21875","4.5","29.78125"
"1542027679787","257","0.29101562","0.045898438","-0.20019531","-84.71875","-0.5","28.625"
"1542027679787","258","0.22265625","0.080078125","-0.17480469","-61.0","-0.9375","32.8125"
"1542027679985","259","0.37597656","0.11621094","-0.11035156","-43.34375","6.09375","51.5"
"1542027679986","260","0.79003906","0.15234375","-0.111328125","-23.03125","19.03125","94.59375"
"1542027679986","261","1.2236328","0.13867188","-0.10058594","-32.0625","33.90625","144.21875"
"1542027679986","262","1.7392578","0.21972656","-0.21777344","-40.84375","46.6875","165.34375"
"1542027679986","263","1.5566406","0.2109375","-0.3125","-50.0","50.09375","124.875"
"1542027680186","264","1.6113281","0.39941406","-0.25","27.15625","28.96875","72.75"
"1542027680187","265","1.2441406","0.36523438","-0.09082031","135.65625","0.15625","9.5"
"1542027680187","266","1.6367188","0.05859375","0.0146484375","164.34375","-32.3125","-49.09375"
"1542027680188","267","1.2421875","-0.013671875","-0.06347656","108.375","-58.90625","-82.78125"
"1542027680188","268","0.7519531","0.048828125","-0.083984375","47.90625","-62.625","-121.21875"
"1542027680384","269","0.5175781","0.06933594","0.03515625","19.53125","-62.6875","-146.4375"
"1542027680385","270","0.28515625","0.12988281","0.18261719","15.78125","-58.65625","-132.8125"
"1542027680385","271","0.24316406","0.17480469","0.14648438","37.21875","-42.625","-105.53125"
"1542027680386","272","0.58691406","0.12207031","0.11621094","52.71875","-29.1875","-76.1875"
"1542027680386","273","1.1855469","0.045898438","0.1171875","51.875","-20.21875","-49.03125"
"1542027680580","274","1.3818359","-0.051757812","0.09863281","33.3125","-11.625","-42.0"
"1542027680581","275","1.3066406","-0.1015625","-0.00390625","4.5625","9.8125","-36.28125"
"1542027680581","276","1.2197266","-0.0078125","-0.11328125","3.34375","38.0","-10.03125"
"1542027680582","277","1.3154297","0.052734375","-0.13671875","26.28125","46.0","51.625"
"1542027680583","278","1.0302734","0.059570312","-0.13183594","15.3125","44.78125","66.21875"
"1542027680780","279","1.5771484","-0.08203125","-0.064453125","4.375","36.96875","60.84375"
"1542027680781","280","1.0478516","-0.033203125","-0.123046875","-43.59375","9.875","58.875"
"1542027680782","281","0.6142578","0.0146484375","-0.10839844","-97.625","0.15625","29.84375"
"1542027680782","282","0.3955078","0.040039062","-0.103515625","-87.0625","-3.25","20.25"
"1542027680782","283","0.30664062","0.030273438","-0.076171875","-69.28125","-6.59375","36.59375"
"1542027680978","284","0.39160156","0.06738281","-0.05859375","-65.5","-4.09375","64.4375"
"1542027680978","285","0.8144531","0.10839844","-0.041992188","-50.5","4.6875","95.03125"
"1542027680979","286","1.1621094","0.12890625","-0.053710938","-61.0","6.28125","112.84375"
"1542027680980","287","1.4267578","0.171875","-0.11035156","-105.4375","24.8125","108.25"
"1542027680980","288","1.4150391","0.23046875","-0.18164062","-103.84375","38.9375","85.5"
"1542027681177","289","1.9677734","0.46191406","-0.21777344","-28.21875","48.375","66.625"
"1542027681375","290","1.0654297","0.4658203","-0.22363281","105.34375","20.125","21.53125"
"1542027681574","291","1.3623047","0.16992188","-0.1015625","185.84375","5.78125","-47.5"
"1542027681575","292","1.4833984","-0.013671875","-0.017578125","179.5625","-31.9375","-84.4375"
"1542027681575","293","1.0019531","-0.07910156","-0.047851562","103.0625","-53.125","-110.0"
"1542027681576","294","0.6777344","-0.032226562","-0.07910156","32.8125","-59.65625","-140.75"
"1542027681576","295","0.5078125","0.024414062","0.0126953125","9.09375","-59.09375","-159.9375"
"1542027681577","296","0.5205078","0.038085938","0.01171875","32.6875","-56.71875","-147.53125"
"1542027681579","297","0.54589844","0.028320312","0.01953125","49.25","-59.09375","-115.25"
"1542027681579","298","0.7089844","-0.044921875","0.06640625","30.375","-54.03125","-67.75"
"1542027681579","299","0.97753906","-0.01953125","0.03125","-9.53125","-42.96875","-15.53125"
"1542027681775","300","1.5244141","0.16894531","-0.0859375","29.9375","46.4375","52.21875"
"1542027681776","301","1.3789062","0.103515625","-0.030273438","29.46875","26.40625","36.46875"
"1542027681776","302","0.8642578","-0.056640625","-0.15332031","-61.40625","4.9375","4.0625"
"1542027681776","303","0.47558594","0.018554688","-0.10546875","-119.59375","-4.96875","-14.96875"
"1542027681777","304","0.2685547","0.13867188","-0.13183594","-103.84375","-8.375","-4.09375"
"1542027681972","305","0.20898438","0.15136719","-0.14453125","-58.125","-9.53125","20.0"
"1542027681972","306","0.3779297","0.12597656","-0.14648438","-45.5","-2.59375","39.21875"
"1542027681973","307","0.7763672","0.20703125","-0.1171875","-49.875","7.0625","51.0625"
"1542027681974","308","1.2617188","0.29785156","-0.099609375","-57.5","14.6875","64.875"
"1542027681974","309","1.5380859","0.36132812","-0.20019531","-63.0","15.78125","83.90625"
"1542027682172","310","1.4580078","0.36132812","-0.12597656","-71.1875","27.21875","79.875"
"1542027682371","311","1.4345703","0.5205078","-0.15625","2.96875","21.03125","73.84375"
"1542027682569","312","1.2509766","0.390625","-0.0029296875","103.4375","15.625","27.5"
"1542027682569","313","1.5595703","0.15234375","0.034179688","134.5625","9.6875","-9.15625"
"1542027682569","314","1.1523438","0.08984375","-0.022460938","99.34375","-8.3125","-34.6875"
"1542027682570","315","0.69628906","0.044921875","-0.091796875","66.6875","-14.96875","-61.28125"
"1542027682570","316","0.421875","0.09472656","-0.15722656","78.0625","-21.1875","-70.15625"
"1542027682571","317","0.29785156","0.06542969","-0.1171875","93.625","-31.5","-67.875"
"1542027682572","318","0.3984375","0.030273438","-0.064453125","89.46875","-41.34375","-53.25"
"1542027682572","319","0.6767578","0.016601562","0.0234375","71.40625","-50.0","-32.0625"
"1542027682573","320","1.1513672","-0.03515625","0.08300781","26.78125","-49.8125","-7.40625"
"1542027682768","321","1.6386719","-0.028320312","-0.053710938","39.09375","45.34375","22.6875"
"1542027682768","322","1.2333984","9.765625E-4","-0.140625","32.40625","35.375","17.6875"
"1542027682769","323","0.47753906","-0.07714844","-0.11621094","-34.4375","20.4375","-0.125"
"1542027682769","324","0.2705078","0.107421875","-0.1953125","-42.8125","18.71875","3.59375"
"1542027682770","325","0.23339844","0.17382812","-0.18847656","1.5","14.09375","11.03125"
"1542027682966","326","0.4267578","0.11328125","-0.22460938","28.5625","7.6875","14.28125"
"1542027682967","327","0.7832031","0.055664062","-0.21484375","21.71875","4.6875","15.4375"
"1542027682967","328","0.99316406","0.028320312","-0.20019531","-6.78125","-1.65625","12.25"
"1542027682968","329","1.2675781","0.099609375","-0.1796875","-22.53125","4.75","17.0625"
"1542027682968","330","1.4628906","0.056640625","-0.0859375","-33.40625","9.625","30.0625"
"1542027683167","331","1.9589844","0.25","-0.14746094","-32.3125","16.34375","43.25"
"1542027683167","332","1.0380859","0.2607422","-0.12695312","14.21875","7.375","-1.53125"
"1542027683167","333","1.6074219","0.015625","0.0029296875","83.90625","8.21875","-58.84375"
"1542027683167","334","1.2148438","-0.017578125","-0.033203125","75.5","-10.75","-57.3125"
"1542027683167","335","0.6816406","0.029296875","-0.12695312","41.375","-10.4375","-55.5625"
"1542027683366","336","0.44335938","0.09765625","-0.24804688","76.03125","-5.25","-51.84375"
"1542027683367","337","0.265625","0.038085938","-0.19921875","103.0","-19.84375","-52.625"
"1542027683368","338","0.34570312","0.001953125","-0.057617188","80.90625","-31.25","-46.40625"
"1542027683368","339","0.69140625","0.072265625","-0.076171875","58.625","-40.96875","-29.8125"
"1542027683368","340","1.0546875","0.095703125","-0.024414062","32.34375","-45.125","-12.09375"
"1542027683564","341","1.2109375","0.072265625","-0.06738281","-2.59375","-39.3125","-10.28125"
"1542027683565","342","1.28125","0.07519531","-0.033203125","-18.25","-21.1875","-16.1875"
"1542027683565","343","1.2773438","0.051757812","-0.07421875","-15.34375","-2.9375","4.25"
"1542027683565","344","1.4453125","-0.036132812","-0.05078125","-19.3125","14.75","39.46875"
"1542027683565","345","0.9970703","-0.040039062","-0.015625","-49.15625","17.6875","65.96875"
"1542027683763","346","1.1582031","0.05078125","-0.060546875","-44.28125","39.84375","48.625"
"1542027683764","347","1.3291016","0.07128906","-0.19433594","13.65625","44.71875","31.65625"
"1542027683764","348","0.78027344","-0.055664062","-0.234375","4.0625","40.09375","7.375"
"1542027683765","349","0.5","0.0078125","-0.296875","-36.28125","32.09375","-8.8125"
"1542027683765","350","0.25585938","0.032226562","-0.27734375","-37.3125","13.65625","-14.65625"
"1542027683960","351","0.2705078","0.053710938","-0.20019531","-36.625","4.5","-9.34375"
"1542027683960","352","0.6201172","0.11621094","-0.1953125","-25.09375","-2.21875","6.21875"
"1542027683960","353","1.0849609","0.12109375","-0.16113281","-30.84375","0.78125","25.8125"
"1542027683962","354","1.0869141","0.12792969","-0.22851562","-45.125","8.09375","30.1875"
"1542027683962","355","1.3769531","0.20703125","-0.1953125","-46.59375","24.59375","31.40625"
"1542027684159","356","1.421875","0.16503906","-0.15527344","-26.0625","30.0","38.875"
"1542027684159","357","1.4628906","0.25","-0.21484375","-16.5625","24.15625","49.0625"
"1542027684162","358","1.0634766","0.30664062","-0.15332031","38.8125","19.53125","16.90625"
"1542027684162","359","1.5576172","0.14941406","-0.068359375","104.53125","7.5","-18.09375"
"1542027684162","360","1.1650391","0.005859375","-0.109375","63.40625","-7.8125","-39.03125"
"1542027684357","361","0.6699219","0.0546875","-0.14550781","20.1875","-11.5","-67.53125"
"1542027684358","362","0.44335938","0.15234375","-0.20703125","56.0","-10.5625","-76.75"
"1542027684358","363","0.2998047","0.091796875","-0.16015625","98.625","-17.65625","-73.75"
"1542027684360","364","0.38085938","0.055664062","-0.09082031","94.21875","-22.71875","-63.4375"
"1542027684360","365","0.7285156","0.13183594","-0.06933594","78.21875","-27.125","-41.8125"
"1542027684555","366","1.109375","0.12988281","-0.049804688","52.96875","-31.8125","-14.53125"
"1542027684555","367","1.4130859","0.09277344","-0.048828125","6.625","-28.75","-2.9375"
"1542027684556","368","1.4472656","0.044921875","-0.01953125","-30.03125","-22.78125","1.375"
"1542027684556","369","1.3496094","0.080078125","-0.036132812","-42.3125","0.59375","13.0"
"1542027684557","370","1.1259766","0.091796875","-0.041015625","-23.4375","10.3125","47.15625"
"1542027684754","371","0.8417969","0.06738281","-0.055664062","-8.4375","31.78125","37.34375"
"1542027684755","372","1.4990234","-0.024414062","-0.07714844","20.125","39.53125","28.1875"
"1542027684756","373","1.0957031","-0.14941406","-0.140625","-25.34375","13.59375","17.75"
"1542027684756","374","0.65234375","-0.07128906","-0.23339844","-101.9375","7.84375","-9.71875"
"1542027684757","375","0.4091797","0.057617188","-0.3203125","-73.1875","2.71875","-16.625"
"1542027684954","376","0.22558594","-0.0068359375","-0.26171875","-47.1875","-10.625","-8.1875"
"1542027684954","377","0.36328125","0.07910156","-0.23339844","-43.90625","-13.375","8.71875"
"1542027684955","378","0.7089844","0.16992188","-0.25585938","-35.28125","-16.8125","22.03125"
"1542027684955","379","0.94140625","0.17480469","-0.17285156","-50.78125","-13.375","33.5"
"1542027684956","380","1.3164062","0.26367188","-0.17871094","-61.65625","2.5","47.28125"
"1542027685152","381","1.4140625","0.28808594","-0.09082031","-66.0625","8.09375","60.71875"
"1542027685153","382","1.6503906","0.3017578","-0.16015625","-60.375","38.6875","65.28125"
"1542027685153","383","1.0332031","0.41308594","-0.20019531","12.9375","29.53125","50.71875"
"1542027685153","384","1.4609375","0.23730469","0.038085938","85.875","30.4375","5.78125"
"1542027685154","385","1.4619141","0.09765625","0.03515625","103.75","8.84375","-16.9375"
"1542027685351","386","0.8984375","0.043945312","-0.171875","61.875","6.46875","-56.53125"
"1542027685351","387","0.55078125","0.08886719","-0.21191406","58.03125","5.34375","-90.65625"
"1542027685352","388","0.37890625","0.111328125","-0.17382812","90.9375","-2.875","-103.84375"
"1542027685352","389","0.34472656","0.047851562","-0.13183594","105.875","-15.21875","-97.0"
"1542027685353","390","0.48632812","0.030273438","-0.08984375","92.5","-27.25","-76.4375"
"1542027685550","391","0.8955078","0.0390625","-0.01953125","68.53125","-29.625","-33.84375"
"1542027685550","392","1.1425781","0.038085938","-0.04296875","13.90625","-34.75","7.5"
"1542027685550","393","1.4101562","0.046875","-9.765625E-4","-43.78125","-25.46875","23.71875"
"1542027685551","394","1.3984375","0.034179688","0.020507812","-59.84375","-10.28125","43.125"
"1542027685551","395","1.4091797","0.087890625","-0.0146484375","-67.65625","12.5625","71.28125"
"1542027685748","396","1.0371094","0.109375","-0.045898438","-32.25","36.90625","63.71875"
"1542027685748","397","1.4716797","-0.03125","-0.0146484375","45.6875","44.1875","41.65625"
"1542027685749","398","1.2636719","-0.18359375","-0.028320312","0.0","18.125","28.78125"
"1542027685751","399","0.8652344","-0.055664062","-0.18457031","-95.71875","11.65625","-2.40625"
"1542027685751","400","0.5644531","0.005859375","-0.37890625","-66.125","-0.6875","-16.625"
"1542027686146","401","0.18066406","-0.0146484375","-0.19921875","-74.34375","-19.96875","-11.5625"
"1542027686147","402","0.15136719","0.10839844","-0.23046875","-87.96875","-21.375","-5.375"
"1542027686147","403","0.49316406","0.20019531","-0.20800781","-60.125","-24.78125","4.0625"
"1542027686147","404","0.97558594","0.17871094","-0.15136719","-50.5625","-17.90625","21.96875"
"1542027686148","405","1.3691406","0.09667969","-0.1796875","-74.59375","-16.0625","32.15625"
"1542027686149","406","1.4560547","0.1484375","-0.1640625","-110.5","3.9375","29.34375"
"1542027686149","407","1.7226562","0.33691406","-0.16503906","-79.53125","21.59375","46.3125"
"1542027686149","408","1.6289062","0.17773438","-0.08105469","-11.25","25.875","53.8125"
"1542027686150","409","1.1259766","0.23535156","-0.171875","13.71875","29.90625","22.9375"
"1542027686345","410","1.1054688","0.07519531","0.09472656","52.09375","-12.21875","-3.1875"
"1542027686345","411","0.7578125","0.068359375","-0.022460938","8.09375","-18.03125","-12.40625"
"1542027686347","412","0.46777344","0.15136719","-0.040039062","-8.0","-14.71875","-29.9375"
"1542027686347","413","0.2919922","0.17480469","-0.10058594","35.875","-12.53125","-37.78125"
"1542027686347","414","0.2783203","0.13769531","-0.09277344","75.0","-15.6875","-37.75"
"1542027686543","415","0.6064453","0.07519531","-0.103515625","80.96875","-23.34375","-24.125"
"1542027686543","416","0.8623047","0.0546875","-0.0234375","46.1875","-39.5","-6.0"
"1542027686742","417","1.1230469","0.056640625","-0.00390625","-1.78125","-43.28125","2.375"
"1542027686743","418","1.3857422","0.07421875","0.020507812","-33.84375","-41.9375","6.46875"
"1542027686744","419","1.4160156","0.032226562","0.016601562","-46.78125","-31.5","9.9375"
"1542027686744","420","1.4306641","0.037109375","-0.03515625","-46.46875","-11.5","25.125"
"1542027686745","421","0.96875","0.04296875","0.00390625","-42.0625","-3.0","49.53125"
"1542027686746","422","0.9082031","0.10839844","-0.080078125","-16.4375","20.3125","49.71875"
"1542027686746","423","1.2060547","0.07128906","-0.10839844","7.0","35.9375","33.125"
"1542027686747","424","0.9296875","0.0234375","-0.2421875","-8.8125","39.84375","5.90625"
"1542027686940","425","0.6269531","0.030273438","-0.31835938","-26.625","31.25","-30.28125"
"1542027686940","426","0.328125","0.0068359375","-0.33007812","-22.0625","22.9375","-52.375"
"1542027686941","427","0.31640625","0.0546875","-0.31445312","-11.96875","15.0","-44.5"
"1542027686941","428","0.5722656","0.1015625","-0.25878906","0.40625","5.90625","-22.125"
"1542027687141","429","0.9375","0.13378906","-0.26757812","-8.6875","6.28125","-0.5"
"1542027687142","430","1.1728516","0.140625","-0.31347656","-27.1875","8.65625","15.71875"
"1542027687142","431","1.3310547","0.19433594","-0.26953125","-35.90625","19.34375","23.84375"
"1542027687142","432","1.3037109","0.2265625","-0.22753906","-25.03125","27.5625","33.25"
"1542027687142","433","1.6113281","0.31933594","-0.26953125","-4.46875","31.78125","54.5625"
"1542027687338","434","1.0791016","0.2734375","-0.1640625","45.75","19.34375","29.78125"
"1542027687339","435","1.5722656","0.1328125","-0.05078125","77.4375","7.0","-10.4375"
"1542027687339","436","1.2001953","0.10839844","-0.10449219","60.15625","-10.9375","-32.375"
"1542027687340","437","0.82128906","0.021484375","-0.15039062","29.65625","-13.6875","-64.40625"
"1542027687340","438","0.5136719","0.05859375","-0.2607422","35.5","-19.0","-80.21875"
"1542027687537","439","0.35351562","0.038085938","-0.21875","55.53125","-29.0","-82.59375"
"1542027687537","440","0.3857422","0.0087890625","-0.13183594","59.625","-40.125","-70.21875"
"1542027687737","441","0.62402344","0.005859375","-0.103515625","48.625","-46.59375","-49.625"
"1542027687737","442","0.95214844","-0.037109375","-0.1015625","19.9375","-47.8125","-22.71875"
"1542027687739","443","1.1904297","-0.036132812","-0.0703125","-28.8125","-45.125","-2.09375"
"1542027687740","444","1.3574219","-0.0234375","-0.03515625","-55.625","-33.78125","18.78125"
"1542027687740","445","1.3916016","0.036132812","-0.0126953125","-71.375","-10.15625","48.375"
"1542027687740","446","1.0791016","0.103515625","-0.001953125","-72.90625","4.0625","80.84375"
"1542027687740","447","1.1679688","0.12792969","-0.07714844","-38.09375","40.6875","65.09375"
"1542027687741","448","1.4482422","0.0146484375","-0.18066406","14.625","46.125","51.1875"
"1542027687935","449","0.9296875","-0.12597656","-0.19628906","-30.03125","26.46875","35.3125"
"1542027687935","450","0.5732422","-0.047851562","-0.2265625","-113.34375","14.3125","23.0625"
"1542027687935","451","0.27734375","0.09375","-0.29101562","-113.1875","-3.5625","23.78125"
"1542027687936","452","0.13671875","0.14355469","-0.23828125","-96.4375","-10.8125","28.0625"
"1542027687936","453","0.47558594","0.20605469","-0.27246094","-73.5","-10.09375","37.75"
"1542027688134","454","0.8779297","0.22558594","-0.21289062","-67.40625","-9.21875","49.65625"
"1542027688134","455","1.2304688","0.24804688","-0.20019531","-87.65625","-4.65625","53.4375"
"1542027688135","456","1.5410156","0.28710938","-0.20605469","-97.5","3.53125","47.34375"
"1542027688135","457","1.3378906","0.32226562","-0.14355469","-81.5625","18.0","41.65625"
"1542027688135","458","1.4023438","0.4736328","-0.30371094","-22.84375","30.125","47.09375"
"1542027688334","459","1.09375","0.4375","-0.20996094","96.0","27.4375","17.5"
"1542027688335","460","1.7421875","0.19628906","0.001953125","161.65625","5.59375","-21.5625"
"1542027688335","461","1.1835938","-0.0146484375","-0.07714844","88.375","-23.09375","-52.5625"
"1542027688335","462","0.71875","0.06738281","-0.20507812","5.0","-28.53125","-99.125"
"1542027688335","463","0.52246094","0.19824219","-0.15332031","28.3125","-31.625","-124.96875"
"1542027688530","464","0.3798828","0.1171875","-0.123046875","89.40625","-38.09375","-125.9375"
"1542027688530","465","0.49316406","0.028320312","-0.08300781","97.59375","-40.40625","-102.125"
"1542027688532","466","0.7128906","0.005859375","-0.0703125","72.96875","-42.375","-60.5625"
"1542027688532","467","0.98828125","0.0068359375","-0.053710938","35.625","-39.4375","-23.9375"
"1542027688532","468","1.2890625","-0.0146484375","0.021484375","-5.625","-33.28125","-2.15625"
"1542027688731","469","1.3769531","0.028320312","-0.024414062","-32.71875","-16.0","23.65625"
"1542027688731","470","1.3300781","0.07910156","-0.15429688","-34.3125","7.75","50.46875"
"1542027688732","471","0.9902344","0.07324219","-0.18457031","-38.59375","13.90625","82.125"
"1542027688732","472","1.0048828","0.15136719","-0.20800781","-35.53125","30.1875","69.25"
"1542027688732","473","1.5722656","0.049804688","-0.24414062","-7.9375","26.59375","59.75"
"1542027688930","474","0.98339844","-0.052734375","-0.23925781","-36.875","8.53125","29.34375"
"1542027688931","475","0.5292969","-0.017578125","-0.18164062","-92.3125","1.75","-4.84375"
"1542027689127","476","0.29882812","0.08984375","-0.20117188","-82.03125","-4.03125","-3.75"
"1542027689127","477","0.25195312","0.109375","-0.14355469","-63.5625","-9.40625","14.28125"
"1542027689128","478","0.5126953","0.11425781","-0.22460938","-52.03125","-8.5","37.75"
"1542027689129","479","0.7626953","0.13964844","-0.3232422","-55.75","-2.9375","51.125"
"1542027689129","480","1.1083984","0.18164062","-0.34375","-62.21875","1.5625","61.5"
"1542027689130","481","1.3359375","0.16308594","-0.27148438","-79.1875","-1.1875","70.53125"
"1542027689130","482","1.5039062","0.23828125","-0.18847656","-96.375","10.125","76.34375"
"1542027689131","483","1.5371094","0.40234375","-0.32226562","-67.28125","2.78125","80.96875"
"1542027689326","484","1.0859375","0.35351562","-0.17578125","10.46875","13.15625","34.21875"
"1542027689327","485","1.5703125","0.125","-0.040039062","87.875","9.8125","-12.65625"
"1542027689327","486","1.0507812","-0.040039062","-0.15429688","66.03125","-1.40625","-41.21875"
"1542027689328","487","0.7441406","0.017578125","-0.13964844","22.5625","2.4375","-54.21875"
"1542027689328","488","0.5","0.14746094","-0.20410156","55.46875","5.125","-45.5"
"1542027689525","489","0.36914062","0.08300781","-0.22753906","90.625","-3.375","-45.96875"
"1542027689525","490","0.39453125","-0.001953125","-0.13183594","84.40625","-14.65625","-52.5625"
"1542027689525","491","0.6591797","-0.001953125","-0.14453125","63.78125","-25.96875","-49.15625"
"1542027689526","492","1.0019531","-0.02734375","-0.14550781","36.375","-32.5625","-36.625"
"1542027689526","493","1.2431641","-0.059570312","-0.10644531","-5.5","-36.6875","-25.71875"
"1542027689725","494","1.5039062","-0.048828125","-0.08300781","-36.46875","-30.28125","-16.0625"
"1542027689726","495","1.2451172","0.020507812","-0.12792969","-42.5","-16.375","0.28125"
"1542027689726","496","1.3652344","0.056640625","-0.11425781","-29.1875","-1.125","39.53125"
"1542027689726","497","0.8339844","0.13085938","-0.22265625","-9.125","19.875","42.84375"
"1542027689726","498","1.3818359","0.0029296875","-0.18652344","34.46875","31.46875","28.0625"
"1542027689925","499","1.0078125","-0.12402344","-0.12792969","5.78125","13.28125","4.0625"
"1542027689925","500","0.6533203","-0.060546875","-0.19042969","-62.46875","10.0","-20.09375"
"1542027689925","501","0.390625","0.030273438","-0.23144531","-57.15625","5.59375","-22.53125"
"1542027689925","502","0.24316406","0.032226562","-0.20117188","-35.46875","3.15625","-11.125"
"1542027689925","503","0.40820312","0.06542969","-0.22265625","-28.8125","3.34375","7.625"
"1542027690120","504","0.74121094","0.20507812","-0.2861328","-26.25","3.28125","24.03125"
"1542027690121","505","1.0039062","0.2548828","-0.27539062","-35.125","2.4375","26.34375"
"1542027690121","506","1.2783203","0.35253906","-0.34960938","-46.875","8.53125","21.15625"
"1542027690123","507","1.1640625","0.35058594","-0.2861328","-47.4375","3.59375","15.4375"
"1542027690123","508","1.2373047","0.3486328","-0.19042969","-58.5625","14.3125","6.46875"
"1542027690320","509","1.1445312","0.47265625","-0.24316406","-15.40625","10.0","15.0"
"1542027690320","510","1.1484375","0.34960938","-0.0859375","56.6875","19.8125","-2.34375"
"1542027690321","511","1.4824219","0.16894531","-0.052734375","103.625","26.59375","-10.40625"
"1542027690322","512","1.1474609","0.091796875","-0.12207031","92.8125","24.46875","-15.03125"
"1542027690323","513","0.7314453","0.052734375","-0.11621094","91.0","21.78125","-27.1875"
"1542027690518","514","0.4765625","0.034179688","-0.115234375","100.5","17.875","-30.28125"
"1542027690519","515","0.4716797","0.00390625","-0.10839844","99.53125","9.25","-26.125"
"1542027690519","516","0.5410156","0.001953125","-0.080078125","84.625","-2.46875","-11.0"
"1542027690519","517","0.7998047","0.047851562","-0.095703125","74.875","-11.625","6.8125"
"1542027690520","518","0.9814453","0.02734375","-0.08300781","53.5","-18.5625","11.9375"
"1542027690719","519","1.3417969","-0.040039062","-0.038085938","16.03125","-20.46875","4.5625"
"1542027690720","520","1.265625","-0.043945312","-0.06347656","-27.125","-20.09375","-1.96875"
"1542027690720","521","1.5087891","-0.0087890625","-0.028320312","-45.125","-6.90625","9.5625"
"1542027690720","522","1.0009766","0.0234375","-0.029296875","-28.9375","-3.25","16.40625"
"1542027690915","523","1.1689453","-0.16894531","-0.009765625","5.34375","16.40625","-15.625"
"1542027690917","524","1.2587891","-0.21191406","0.024414062","-20.21875","5.53125","-14.3125"
"1542027690917","525","0.94921875","-0.12207031","-0.030273438","-70.8125","2.96875","-5.875"
"1542027690917","526","0.6464844","-0.032226562","-0.16210938","-76.25","4.5","-7.09375"
"1542027691114","527","0.4033203","-0.016601562","-0.18261719","-68.4375","1.6875","-4.46875"
"1542027691115","528","0.30566406","0.01953125","-0.19921875","-65.9375","-2.03125","3.71875"
"1542027691115","529","0.5439453","0.12988281","-0.22070312","-64.40625","-6.25","16.40625"
"1542027691117","530","0.82128906","0.25878906","-0.27148438","-64.53125","-10.6875","28.5"
"1542027691117","531","1.015625","0.3076172","-0.23046875","-69.0","-7.65625","29.21875"
"1542027691117","532","1.3388672","0.38378906","-0.25097656","-62.03125","-4.03125","29.03125"
"1542027691117","533","1.1552734","0.36132812","-0.17871094","-62.5","0.96875","26.09375"
"1542027691313","534","1.4599609","0.49609375","-0.19726562","-26.5","14.5625","38.5"
"1542027691314","535","1.2519531","0.41308594","-0.15820312","54.6875","15.71875","29.78125"
"1542027691314","536","1.4042969","0.19042969","-0.123046875","95.25","21.40625","-4.34375"
"1542027691314","537","1.2246094","0.12109375","-0.12597656","89.71875","15.96875","-23.875"
"1542027691316","538","0.8564453","0.072265625","-0.13769531","87.25","8.84375","-38.34375"
"1542027691512","539","0.5283203","0.061523438","-0.14746094","87.5","4.6875","-37.4375"
"1542027691513","540","0.42773438","0.038085938","-0.16992188","88.0625","-2.9375","-32.65625"
"1542027691513","541","0.4140625","0.056640625","-0.10644531","80.5","-13.125","-27.1875"
"1542027691711","542","0.59472656","0.053710938","-0.08984375","79.15625","-23.5","-15.8125"
"1542027691713","543","0.8183594","0.009765625","-0.037109375","56.9375","-30.21875","-8.8125"
"1542027691714","544","1.1005859","-0.021484375","-0.038085938","15.25","-28.34375","-6.78125"
"1542027691714","545","1.3007812","0.0068359375","-0.01953125","-11.125","-21.4375","-3.8125"
"1542027691714","546","1.2783203","-0.017578125","-0.037109375","-24.0","-12.09375","8.03125"
"1542027691714","547","1.5517578","-0.034179688","0.001953125","-31.6875","3.53125","29.40625"
"1542027691714","548","0.8779297","0.041992188","-0.09765625","-29.25","16.46875","21.78125"
"1542027691910","549","1.4072266","-0.07421875","-0.072265625","11.40625","33.84375","-2.46875"
"1542027691912","550","1.2197266","-0.10546875","-0.04296875","-1.0","18.0625","9.03125"
"1542027691912","551","0.8408203","-0.068359375","-0.103515625","-65.625","12.5625","5.90625"
"1542027691915","552","0.578125","0.09863281","-0.21289062","-68.125","9.75","3.34375"
"1542027691916","553","0.36328125","0.08984375","-0.23144531","-41.21875","5.40625","3.59375"
"1542027692110","554","0.34570312","0.11816406","-0.24609375","-28.09375","2.96875","4.9375"
"1542027692110","555","0.6015625","0.14550781","-0.2890625","-16.875","-3.5625","9.25"
"1542027692111","556","0.9550781","0.16308594","-0.22363281","-25.09375","-7.03125","11.71875"
"1542027692111","557","1.1357422","0.20605469","-0.23339844","-40.3125","-9.46875","11.40625"
"1542027692111","558","1.3925781","0.23339844","-0.19238281","-41.59375","-1.84375","18.90625"
"1542027692307","559","1.2285156","0.22949219","-0.15332031","-39.5625","10.65625","26.0"
"1542027692309","560","1.4492188","0.33691406","-0.23828125","-6.25","20.125","41.0"
"1542027692309","561","1.15625","0.25097656","-0.09667969","56.6875","16.65625","23.96875"
"1542027692309","562","1.4375","0.052734375","-0.009765625","81.40625","9.25","-2.75"
"1542027692506","563","1.0947266","0.03515625","-0.0234375","46.4375","-3.6875","-10.28125"
"1542027692506","564","0.6669922","0.09472656","-0.076171875","30.5625","-1.25","-22.84375"
"1542027692706","565","0.4560547","0.1640625","-0.16796875","72.5","5.53125","-24.0"
"1542027692905","566","0.3935547","0.078125","-0.14453125","104.21875","-3.75","-24.90625"
"1542027693102","567","0.5419922","0.041992188","-0.076171875","94.34375","-14.46875","-24.96875"
"1542027693102","568","0.84765625","0.018554688","-0.0234375","66.5625","-29.625","-20.03125"
"1542027693103","569","1.0849609","0.0029296875","-0.03125","22.5","-33.28125","-16.875"
"1542027693104","570","1.1113281","0.0126953125","-0.026367188","-10.34375","-31.75","-22.71875"
"1542027693104","571","1.3847656","0.02734375","-0.0078125","-16.0625","-13.0625","-14.84375"
"1542027693106","572","1.2607422","0.053710938","-0.1328125","-9.125","-0.875","11.40625"
"1542027693106","573","1.3330078","-0.041015625","-0.020507812","-15.34375","7.75","39.0"
"1542027693106","574","0.9013672","0.030273438","-0.11816406","-12.03125","22.6875","27.8125"
"1542027693107","575","0.36621094","0.0146484375","-0.203125","-27.40625","2.375","-14.53125"
"1542027693303","576","1.3964844","0.25683594","-0.18847656","-29.8125","10.125","30.125"
"1542027693304","577","1.4052734","0.2548828","-0.171875","-33.15625","23.78125","27.8125"
"1542027693304","578","1.3896484","0.3642578","-0.26660156","4.6875","20.90625","34.78125"
"1542027693304","579","1.1884766","0.24707031","-0.11035156","58.09375","20.8125","0.0"
"1542027693305","580","1.5039062","0.047851562","-0.044921875","96.71875","9.375","-26.3125"
"1542027693499","581","1.1210938","-0.037109375","-0.0234375","57.90625","-12.09375","-32.78125"
"1542027693500","582","0.6777344","-0.00390625","-0.07910156","25.9375","-12.59375","-46.34375"
"1542027693500","583","0.4609375","0.08105469","-0.16796875","54.4375","-5.4375","-43.34375"
"1542027693500","584","0.3876953","-0.024414062","-0.111328125","78.90625","-14.78125","-36.21875"
"1542027693501","585","0.5654297","-0.055664062","-0.04296875","67.0","-21.6875","-25.28125"
"1542027693701","586","0.98339844","-0.083984375","-0.025390625","41.84375","-33.9375","-7.15625"
"1542027693701","587","1.0878906","-0.14453125","0.01953125","-9.78125","-41.9375","1.6875"
"1542027693702","588","1.1503906","-0.119140625","0.034179688","-51.71875","-34.1875","0.46875"
"1542027693703","589","1.2734375","-0.064453125","-0.026367188","-52.8125","-21.125","19.21875"
"1542027693703","590","1.234375","-0.05078125","-0.026367188","-50.75","-7.28125","52.65625"
"1542027693897","591","1.0371094","0.016601562","0.0048828125","-66.59375","0.03125","82.9375"
"1542027693898","592","0.859375","0.09277344","-0.083984375","-44.5625","24.09375","62.4375"
"1542027693898","593","1.4765625","0.018554688","-0.12890625","-14.71875","35.15625","44.46875"
"1542027694098","594","1.1347656","-0.045898438","-0.107421875","-57.3125","23.25","15.71875"
"1542027694296","595","0.8564453","0.041992188","-0.27148438","-89.6875","25.375","-16.96875"
"1542027694297","596","0.52246094","0.08496094","-0.31445312","-68.4375","16.84375","-22.96875"
"1542027694297","597","0.31152344","0.107421875","-0.28710938","-59.65625","10.40625","-17.40625"
"1542027694297","598","0.35351562","0.1953125","-0.3359375","-41.15625","3.15625","-4.90625"
"1542027694298","599","0.5449219","0.1953125","-0.3095703","-26.5625","-6.4375","4.0"
"1542027694298","600","1.0458984","0.21386719","-0.21875","-32.5","-4.71875","9.25"
"1542027694301","601","1.4707031","0.18554688","-0.18457031","-39.1875","-11.1875","13.40625"
"1542027694302","602","1.3554688","0.10546875","-0.20117188","-52.25","-4.71875","6.5625"
"1542027694302","603","1.5244141","0.15136719","-0.2841797","-38.96875","16.9375","11.28125"
"1542027694694","604","1.0087891","0.09277344","-0.25683594","28.25","5.0625","11.15625"
"1542027694695","605","1.5380859","-0.22265625","-0.091796875","28.65625","-17.53125","-9.53125"
"1542027694695","606","1.0634766","-0.2109375","-0.09082031","1.28125","-16.8125","-14.59375"
"1542027694695","607","0.88671875","-0.1328125","-0.1484375","10.40625","-2.9375","-0.6875"
"1542027694696","608","0.7294922","-0.18359375","-0.08984375","13.90625","-8.4375","16.84375"
"1542027694696","609","0.57421875","-0.21191406","-0.036132812","-2.21875","-12.84375","20.90625"
"1542027694696","610","0.7128906","-0.21875","0.041992188","-30.34375","-20.71875","27.8125"
"1542027694696","611","0.60839844","-0.17382812","0.036132812","-61.0","-23.75","22.9375"
"1542027694696","612","0.7128906","-0.17480469","-0.016601562","-60.8125","-16.25","14.375"
"1542027694890","613","1.0791016","-0.1875","-0.02734375","-73.875","-21.6875","20.375"
"1542027694891","614","1.1738281","-0.001953125","-0.034179688","-127.9375","-23.15625","33.5625"
"1542027694891","615","0.9746094","0.059570312","-0.42089844","-62.46875","24.03125","15.1875"
"1542027694891","616","1.2275391","-0.061523438","-0.3623047","11.59375","39.46875","11.8125"
"1542027694892","617","0.88671875","-0.20800781","-0.23632812","-46.84375","21.03125","15.84375"
"1542027694893","618","0.6044922","0.005859375","-0.37109375","-133.875","6.875","24.15625"
"1542027695091","619","0.45410156","0.20800781","-0.36621094","-128.25","3.65625","30.75"
"1542027695091","620","0.47851562","0.27929688","-0.32714844","-80.09375","3.53125","31.25"
"1542027695288","621","0.75","0.28808594","-0.296875","-58.125","3.46875","30.6875"
"1542027695288","622","1.0556641","0.29785156","-0.32226562","-53.96875","7.4375","38.75"
"1542027695289","623","1.0703125","0.29101562","-0.37402344","-51.09375","12.8125","37.46875"
"1542027695290","624","1.0947266","0.2919922","-0.3671875","-42.8125","21.09375","30.25"
"1542027695290","625","1.1259766","0.2529297","-0.3857422","-26.3125","21.84375","34.84375"
"1542027695487","626","1.4941406","0.24414062","-0.31152344","-28.65625","22.6875","39.53125"
"1542027695488","627","1.0390625","0.24511719","-0.3330078","9.03125","16.84375","15.71875"
"1542027695489","628","1.1181641","0.140625","-0.2548828","53.875","11.8125","-37.25"
"1542027695489","629","1.4453125","-0.025390625","-0.12792969","71.28125","-11.0","-50.96875"
"1542027695489","630","1.1259766","-0.09863281","-0.07324219","23.3125","-24.4375","-60.375"
"1542027695490","631","0.6816406","-0.041992188","-0.14257812","10.65625","-15.15625","-68.375"
"1542027695490","632","0.54589844","0.005859375","-0.17578125","57.0625","-10.5","-53.90625"
"1542027695492","633","0.4111328","-0.045898438","-0.13085938","76.34375","-17.40625","-40.96875"
"1542027695685","634","0.6669922","-0.047851562","-0.12597656","68.28125","-21.6875","-25.96875"
"1542027695686","635","0.8886719","-0.041992188","-0.08984375","39.0625","-30.40625","-12.40625"
"1542027695687","636","1.0224609","-0.00390625","-0.07519531","4.625","-30.90625","-7.21875"
"1542027695687","637","1.0263672","0.02734375","-0.064453125","-6.5","-23.625","-3.6875"
"1542027695689","638","1.2568359","0.0126953125","-0.10839844","-7.65625","-10.40625","17.0625"
"1542027695885","639","1.3876953","-0.076171875","-0.12597656","-23.28125","-3.25","44.90625"
"1542027695885","640","1.0371094","-0.15332031","-0.08300781","-51.03125","-1.46875","57.1875"
"1542027695885","641","1.0507812","-0.02734375","-0.1875","-36.875","18.46875","41.84375"
"1542027695886","642","1.5917969","-0.14746094","-0.21972656","11.03125","33.3125","26.09375"
"1542027695886","643","1.015625","-0.23339844","-0.25683594","-26.25","26.21875","1.875"
"1542027696084","644","0.5986328","-0.07714844","-0.33691406","-48.78125","23.0","-17.15625"
"1542027696084","645","0.36621094","-0.06933594","-0.31835938","-34.0","12.9375","-14.78125"
"1542027696084","646","0.18261719","-0.0068359375","-0.234375","-39.625","2.59375","-3.6875"
"1542027696084","647","0.40820312","0.09667969","-0.26757812","-27.59375","-2.75","11.03125"
"1542027696085","648","0.73046875","0.059570312","-0.26367188","-17.15625","-2.875","21.65625"
"1542027696282","649","1.0078125","0.08105469","-0.2529297","-33.59375","-1.40625","18.125"
"1542027696283","650","1.1484375","0.11035156","-0.29101562","-51.34375","6.15625","10.0625"
"1542027696283","651","1.2832031","0.10058594","-0.28222656","-38.46875","13.34375","18.96875"
"1542027696283","652","1.2539062","0.12402344","-0.234375","-42.0","26.15625","29.15625"
"1542027696284","653","1.5498047","0.21484375","-0.31640625","-3.90625","19.75","52.0"
"1542027696480","654","1.0878906","0.11230469","-0.15625","37.65625","16.78125","9.6875"
"1542027696481","655","1.6748047","0.001953125","-0.115234375","85.4375","3.34375","-23.625"
"1542027696681","656","1.1347656","-0.17089844","-0.064453125","43.5","-15.15625","-29.875"
"1542027696681","657","0.78125","-0.025390625","-0.21289062","22.25","-7.21875","-58.0"
"1542027696682","658","0.44726562","-0.01171875","-0.19433594","58.53125","-9.46875","-55.0"
"1542027696682","659","0.40039062","-0.07714844","-0.17285156","62.125","-19.84375","-35.96875"
"1542027696683","660","0.41015625","0.0146484375","-0.123046875","41.625","-28.8125","-25.71875"
"1542027696685","661","0.8261719","0.048828125","-0.13085938","35.625","-29.96875","-16.5625"
"1542027696685","662","1.0224609","-0.030273438","-0.06738281","7.5625","-37.125","-10.8125"
"1542027696878","663","1.0849609","0.001953125","-0.08984375","-24.0","-33.84375","-19.4375"
"1542027696879","664","1.2353516","-0.07714844","-0.029296875","-30.78125","-26.0625","-17.90625"
"1542027696879","665","1.0166016","-0.13671875","-0.140625","-41.9375","-16.25","3.09375"
"1542027696880","666","1.4560547","-0.11230469","-0.04296875","-49.46875","-1.71875","30.6875"
"1542027696880","667","0.85839844","-0.09863281","-0.036132812","-70.09375","2.375","37.9375"
"1542027697077","668","1.3730469","-0.0068359375","-0.17578125","-47.0","38.875","10.59375"
"1542027697077","669","1.2958984","-0.09765625","-0.21191406","5.90625","42.96875","16.40625"
"1542027697077","670","0.7871094","-0.20507812","-0.24121094","-37.25","41.65625","10.1875"
"1542027697078","671","0.49414062","-0.05078125","-0.34570312","-79.46875","31.25","11.8125"
"1542027697078","672","0.26660156","0.028320312","-0.27929688","-69.0","16.9375","30.3125"
"1542027697277","673","0.33398438","0.09375","-0.30273438","-52.8125","11.65625","49.25"
"1542027697278","674","0.64746094","0.14648438","-0.29882812","-36.46875","8.84375","64.5625"
"1542027697278","675","0.92089844","0.16308594","-0.21191406","-28.09375","11.75","76.28125"
"1542027697278","676","1.3115234","0.107421875","-0.18457031","-28.8125","17.6875","78.46875"
"1542027697278","677","1.3955078","0.024414062","-0.125","-57.375","23.59375","68.90625"
"1542027697476","678","1.4921875","0.09863281","-0.21582031","-53.90625","40.15625","54.5"
"1542027697476","679","1.5537109","0.12011719","-0.22949219","5.34375","21.28125","48.8125"
"1542027697477","680","1.1396484","-0.00390625","-0.16113281","72.1875","18.0","-15.53125"
"1542027697477","681","1.6025391","-0.20507812","-0.06347656","96.0","-1.53125","-58.5625"
"1542027697477","682","1.0966797","-0.18554688","-0.25195312","70.71875","-12.28125","-82.21875"
"1542027697674","683","0.6689453","-0.17480469","-0.25683594","54.4375","-18.3125","-104.9375"
"1542027697674","684","0.53027344","-0.14355469","-0.19140625","63.46875","-33.09375","-99.75"
"1542027697674","685","0.4423828","-0.19140625","-0.16503906","47.28125","-45.3125","-82.0"
"1542027697674","686","0.5185547","-0.0859375","-0.115234375","19.625","-52.125","-62.34375"
"1542027697676","687","0.78808594","0.016601562","-0.068359375","20.4375","-58.4375","-51.46875"
"1542027697872","688","0.94921875","-0.08984375","0.064453125","4.8125","-55.375","-45.4375"
"1542027697873","689","1.2626953","-0.043945312","-0.001953125","-27.71875","-39.25","-18.375"
"1542027697873","690","1.1699219","-0.036132812","0.0068359375","-42.25","-25.59375","20.25"
"1542027697873","691","1.4121094","0.032226562","-0.013671875","-36.40625","7.0625","52.0625"
"1542027697874","692","1.2041016","0.0107421875","-0.04296875","-33.9375","13.09375","76.40625"
"1542027698072","693","1.2050781","-0.0703125","-0.095703125","-24.0","43.75","40.5"
"1542027698072","694","1.4179688","-0.13085938","-0.125","-4.46875","39.0","23.125"
"1542027698072","695","0.8535156","-0.21777344","-0.15332031","-35.28125","28.96875","23.25"
"1542027698072","696","0.5175781","-0.0546875","-0.2685547","-77.78125","24.03125","19.75"
"1542027698073","697","0.265625","0.047851562","-0.23925781","-61.53125","10.53125","24.46875"
"1542027698270","698","0.25","0.057617188","-0.18359375","-41.65625","5.59375","33.0625"
"1542027698270","699","0.5439453","0.111328125","-0.20507812","-33.40625","3.15625","42.40625"
"1542027698469","700","1.0361328","0.12011719","-0.13183594","-35.65625","3.84375","57.96875"
"1542027698470","701","1.2109375","0.10253906","-0.19726562","-48.65625","9.09375","58.46875"
"1542027698470","702","1.4873047","0.080078125","-0.18261719","-68.375","20.6875","38.8125"
"1542027698471","703","1.2539062","0.12597656","-0.17578125","-56.21875","28.375","24.75"
"1542027698471","704","1.7275391","0.13085938","-0.18457031","-16.3125","27.8125","29.28125"
"1542027698471","705","1.0585938","0.13378906","-0.23632812","43.25","18.0625","16.28125"
"1542027698472","706","1.3525391","-0.024414062","-0.13378906","89.09375","6.03125","-27.59375"
"1542027698473","707","1.3808594","-0.2265625","0.043945312","59.0","-23.5625","-53.40625"
"1542027698868","708","0.83496094","-0.13574219","-0.15625","16.59375","-26.875","-69.78125"
"1542027698869","709","0.5644531","0.022460938","-0.19824219","34.40625","-21.0","-75.40625"
"1542027698869","710","0.4296875","-0.038085938","-0.17382812","88.84375","-23.5","-58.71875"
"1542027698869","711","0.45703125","-0.060546875","-0.09667969","89.65625","-36.15625","-41.15625"
"1542027698869","712","0.7363281","-0.10546875","-0.030273438","58.09375","-45.5","-31.8125"
"1542027698870","713","0.953125","-0.11816406","0.021484375","9.875","-49.625","-17.15625"
"1542027698871","714","1.0517578","-0.07519531","0.001953125","-29.96875","-45.5625","-9.59375"
"1542027698872","715","1.2148438","-0.07128906","0.03125","-42.8125","-27.0","-1.40625"
"1542027698872","716","1.1201172","-0.05078125","-0.048828125","-34.5","-3.6875","24.15625"
"1542027699065","717","1.2763672","-0.021484375","-0.09082031","-4.78125","16.21875","53.03125"
"1542027699065","718","1.1816406","-0.1015625","-0.0078125","-13.8125","14.09375","75.65625"
"1542027699066","719","0.9355469","-0.04296875","-0.099609375","-23.28125","32.40625","44.0"
"1542027699066","720","1.40625","-0.09472656","-0.13671875","-10.5625","36.71875","13.65625"
"1542027699067","721","0.91015625","-0.14160156","-0.15625","-42.125","25.625","0.03125"
"1542027699067","722","0.60058594","-0.044921875","-0.2861328","-62.46875","22.03125","-6.59375"
"1542027699265","723","0.4267578","0.04296875","-0.26757812","-48.46875","14.03125","0.40625"
"1542027699265","724","0.38378906","0.043945312","-0.23046875","-29.5625","7.4375","11.59375"
"1542027699265","725","0.5703125","0.05859375","-0.26953125","-24.25","2.65625","17.875"
"1542027699267","726","0.8203125","0.06347656","-0.234375","-29.4375","2.0625","22.1875"
"1542027699267","727","1.0712891","0.03125","-0.20507812","-38.21875","4.625","27.375"
"1542027699462","728","1.3203125","0.055664062","-0.17675781","-48.34375","12.1875","33.5625"
"1542027699463","729","1.2412109","0.040039062","-0.17285156","-46.21875","18.1875","37.15625"
"1542027699463","730","1.890625","0.13769531","-0.20703125","-27.0","34.59375","44.0625"
"1542027699463","731","1.0976562","0.13476562","-0.23730469","40.375","11.71875","24.53125"
"1542027699464","732","1.4736328","-0.09667969","-0.045898438","70.3125","1.625","-35.15625"
"1542027699661","733","1.2929688","-0.07519531","-0.06738281","45.75","-18.25","-51.53125"
"1542027699661","734","0.8388672","-0.018554688","-0.16992188","43.1875","-16.0","-56.90625"
"1542027699662","735","0.61816406","0.034179688","-0.1796875","73.15625","-12.46875","-50.1875"
"1542027699662","736","0.45117188","-0.064453125","-0.115234375","91.21875","-22.96875","-43.15625"
"1542027699662","737","0.3984375","-0.06347656","-0.087890625","73.09375","-30.90625","-39.25"
"1542027699863","738","0.6152344","-0.020507812","-0.059570312","54.4375","-36.5625","-33.46875"
"1542027699864","739","0.8613281","-0.10253906","0.015625","28.1875","-41.65625","-25.46875"
"1542027699864","740","1.0019531","-0.08886719","0.025390625","-2.9375","-38.46875","-20.40625"
"1542027699864","741","1.2773438","-0.1171875","0.080078125","-29.1875","-29.1875","-13.75"
"1542027699864","742","1.1738281","-0.14355469","0.0146484375","-42.0625","-11.5","2.4375"
"1542027700058","743","1.4628906","-0.0625","-0.0029296875","-35.71875","12.3125","25.8125"
"1542027700059","744","1.0263672","-0.05859375","0.032226562","-37.75","20.8125","52.40625"
"1542027700059","745","1.2177734","0.032226562","-0.111328125","-11.5625","48.8125","27.15625"
"1542027700060","746","1.4052734","-0.06933594","-0.16601562","22.3125","50.28125","5.21875"
"1542027700060","747","0.8876953","-0.15039062","-0.23046875","-7.03125","40.09375","-13.5625"
"1542027700258","748","0.50097656","-0.10839844","-0.2919922","-60.875","26.96875","-25.03125"
"1542027700258","749","0.29101562","-0.015625","-0.25195312","-67.40625","11.65625","-20.84375"
"1542027700258","750","0.3232422","0.05078125","-0.22851562","-55.4375","2.1875","-5.625"
"1542027700260","751","0.5332031","0.09667969","-0.24316406","-43.96875","0.65625","15.5"
"1542027700260","752","0.8828125","0.11328125","-0.20117188","-42.4375","4.625","38.9375"
"1542027700457","753","1.2783203","0.115234375","-0.21191406","-53.25","10.84375","52.90625"
"1542027700457","754","1.5332031","0.10449219","-0.1640625","-66.84375","13.90625","57.25"
"1542027700458","755","1.5693359","0.2265625","-0.20507812","-70.625","31.65625","53.6875"
"1542027700458","756","1.4960938","0.3515625","-0.21582031","25.6875","15.0625","44.71875"
"1542027700459","757","1.2070312","0.18457031","-0.08886719","118.75","8.59375","-11.0625"
"1542027700654","758","1.6015625","-0.016601562","-0.051757812","109.65625","-4.59375","-51.65625"
"1542027700655","759","1.1376953","0.05859375","-0.055664062","54.1875","-26.375","-63.0"
"1542027700656","760","0.71777344","0.123046875","-0.09375","50.59375","-23.03125","-82.34375"
"1542027700656","761","0.47460938","0.12207031","-0.140625","89.875","-21.0625","-94.5625"
"1542027700656","762","0.31445312","0.048828125","-0.07910156","110.9375","-24.625","-97.4375"
"1542027700856","763","0.3544922","0.013671875","-0.021484375","100.25","-28.46875","-81.875"
"1542027700856","764","0.57421875","0.021484375","-0.040039062","82.6875","-33.46875","-44.28125"
"1542027700856","765","0.9951172","-0.015625","0.0029296875","43.3125","-42.4375","6.8125"
"1542027700856","766","1.1923828","-0.033203125","0.103515625","-41.59375","-49.46875","32.21875"
"1542027700856","767","1.3300781","-0.01171875","0.14746094","-99.4375","-34.4375","24.28125"
"1542027701052","768","1.2666016","0.024414062","-0.072265625","-90.84375","0.03125","7.375"
"1542027701052","769","1.3154297","0.140625","-0.02734375","-30.03125","20.84375","35.8125"
"1542027701053","770","1.1054688","0.06640625","-0.0625","8.90625","41.0625","37.03125"
"1542027701054","771","1.5361328","-0.036132812","-0.11230469","9.375","50.8125","25.75"
"1542027701054","772","1.0419922","-0.041015625","-0.16992188","-22.78125","30.8125","16.21875"
"1542027701252","773","0.609375","-0.061523438","-0.23535156","-85.90625","13.53125","-7.65625"
"1542027701253","774","0.3310547","0.08691406","-0.25","-99.4375","-0.3125","-17.28125"
"1542027701253","775","0.19628906","0.11621094","-0.19628906","-93.59375","-10.09375","-13.3125"
"1542027701253","776","0.31933594","0.16699219","-0.14355469","-98.09375","-11.90625","3.03125"
"1542027701253","777","0.69433594","0.34570312","-0.14453125","-113.125","-3.625","30.6875"
"1542027701452","778","0.9746094","0.45996094","-0.080078125","-93.59375","1.6875","52.53125"
"1542027701452","779","1.3916016","0.40820312","-0.17871094","-68.0625","15.65625","62.0625"
"1542027701452","780","1.1484375","0.36621094","-0.16308594","-62.09375","25.1875","53.875"
"1542027701648","781","1.9179688","0.6074219","-0.20800781","5.78125","34.34375","65.71875"
"1542027701648","782","1.2402344","0.46972656","-0.103515625","139.5","18.65625","47.28125"
"1542027701650","783","1.5839844","0.044921875","-0.052734375","178.875","17.75","-22.96875"
"1542027701651","784","1.3867188","-0.045898438","-0.06738281","130.65625","-8.875","-47.375"
"1542027701651","785","0.8154297","0.038085938","-0.021484375","56.125","-22.65625","-60.6875"
"1542027701651","786","0.57421875","0.14160156","-0.0625","55.21875","-22.40625","-68.5"
"1542027701651","787","0.4453125","0.12597656","-0.059570312","87.625","-23.8125","-66.78125"
"1542027701849","788","0.3876953","0.09082031","-0.033203125","96.84375","-24.5","-55.8125"
"1542027701851","789","0.5371094","0.07910156","-0.061523438","93.96875","-26.875","-31.25"
"1542027701851","790","0.8027344","0.034179688","-0.025390625","74.15625","-36.28125","-5.8125"
"1542027701851","791","1.109375","-0.056640625","0.06347656","18.65625","-47.9375","7.25"
"1542027701851","792","1.1855469","9.765625E-4","0.053710938","-51.96875","-45.71875","-3.6875"
"1542027702045","793","1.2412109","0.043945312","0.001953125","-68.375","-31.4375","-10.8125"
"1542027702046","794","1.0947266","0.11328125","-0.0068359375","-53.25","-9.34375","-1.3125"
"1542027702047","795","1.1152344","0.10253906","-0.03515625","-29.75","5.28125","39.84375"
"1542027702047","796","1.1005859","0.1171875","-0.022460938","-26.75","29.46875","40.4375"
"1542027702048","797","1.5712891","0.080078125","-0.07519531","-11.84375","45.28125","49.0625"
"1542027702247","798","1.0205078","0.091796875","-0.15136719","-15.6875","40.15625","46.875"
"1542027702247","799","0.6386719","0.04296875","-0.16601562","-47.375","30.0","24.21875"
"1542027702247","800","0.40039062","0.11328125","-0.21484375","-57.15625","22.75","17.625"
"1542027702248","801","0.33007812","0.13574219","-0.22949219","-39.125","16.03125","26.78125"
"1542027702248","802","0.48535156","0.13378906","-0.23730469","-22.53125","15.125","46.4375"
"1542027702445","803","0.75097656","0.12792969","-0.24023438","-9.65625","20.5625","64.375"
"1542027702643","804","1.140625","0.12402344","-0.20996094","-6.71875","25.625","80.5"
"1542027702644","805","1.5244141","0.14746094","-0.140625","-16.75","29.65625","86.28125"
"1542027702645","806","1.3242188","0.17871094","-0.17382812","-19.78125","31.53125","67.71875"
"1542027702645","807","1.8056641","0.31835938","-0.25585938","24.21875","40.625","47.96875"
"1542027702645","808","1.1162109","0.34570312","-0.13769531","132.75","9.8125","16.28125"
"1542027702646","809","1.3125","0.0546875","-0.0078125","157.6875","-6.90625","-33.03125"
"1542027702646","810","1.3447266","-0.01953125","0.051757812","119.90625","-42.96875","-52.875"
"1542027702646","811","0.9765625","0.08496094","0.11425781","66.21875","-57.8125","-73.8125"
"1542027702646","812","0.7373047","0.1015625","0.022460938","70.90625","-52.8125","-93.15625"
"1542027702842","813","0.6064453","0.12011719","0.0048828125","98.96875","-48.96875","-96.15625"
"1542027703039","814","0.56347656","0.033203125","0.060546875","102.03125","-52.03125","-90.03125"
"1542027703240","815","0.64160156","-0.0029296875","0.022460938","73.96875","-57.09375","-81.5625"
"1542027703241","816","0.83691406","-0.044921875","0.033203125","43.125","-69.03125","-71.3125"
"1542027703242","817","0.9580078","-0.10058594","0.056640625","-11.5625","-75.9375","-66.125"
"1542027703242","818","1.1738281","-0.10449219","0.08691406","-65.875","-69.0","-60.75"
"1542027703244","819","1.2021484","-0.032226562","-0.001953125","-78.1875","-50.6875","-44.15625"
"1542027703244","820","1.2949219","0.0126953125","-0.08203125","-50.78125","-17.96875","-11.25"
"1542027703244","821","1.2304688","0.044921875","-0.1328125","-27.78125","6.28125","31.1875"
"1542027703244","822","1.4316406","-0.041992188","-0.08300781","-39.1875","21.59375","50.15625"
"1542027703245","823","1.3222656","0.08105469","-0.12988281","-67.8125","24.59375","68.90625"
"1542027703437","824","0.43652344","0.41015625","-0.057617188","-133.0","-21.75","78.0625"
"1542027703438","825","0.8173828","0.46777344","-0.021484375","-113.59375","-13.625","90.5"
"1542027703438","826","1.2236328","0.42871094","-0.052734375","-109.625","6.21875","93.6875"
"1542027703438","827","1.4775391","0.39160156","-0.16210938","-106.03125","24.9375","80.90625"
"1542027703439","828","1.9023438","0.45507812","-0.18945312","-77.34375","52.15625","64.9375"
"1542027703635","829","1.3623047","0.48828125","-0.26953125","40.4375","29.15625","52.0625"
"1542027703636","830","1.3759766","0.18847656","-0.23730469","112.71875","33.125","-19.1875"
"1542027703636","831","1.5458984","0.08105469","-0.3251953","115.34375","9.375","-52.6875"
"1542027703637","832","0.9716797","0.026367188","-0.22460938","49.84375","-24.1875","-65.75"
"1542027703638","833","0.63671875","0.14453125","-0.24316406","37.40625","-29.4375","-78.3125"
"1542027703837","834","0.47558594","0.13867188","-0.2861328","77.0","-38.34375","-84.125"
"1542027703837","835","0.34375","0.0234375","-0.056640625","80.71875","-42.125","-84.625"
"1542027703837","836","0.49902344","0.036132812","-0.048828125","73.90625","-46.78125","-70.09375"
"1542027703838","837","0.796875","-0.018554688","-0.01953125","40.03125","-51.78125","-35.34375"
"1542027703838","838","1.0761719","-0.0068359375","0.0087890625","-14.78125","-53.3125","-0.8125"
"1542027704033","839","1.0263672","-0.033203125","0.061523438","-63.0","-47.125","3.53125"
"1542027704033","840","1.1425781","-0.013671875","0.030273438","-63.25","-19.90625","8.59375"
"1542027704034","841","1.5078125","-0.015625","0.016601562","-49.09375","15.90625","43.9375"
"1542027704035","842","1.1123047","0.08105469","-0.029296875","-42.375","38.6875","80.84375"
"1542027704035","843","1.2519531","0.17089844","-0.16015625","-3.6875","73.90625","70.46875"
"1542027704232","844","1.4111328","0.029296875","-0.22070312","51.1875","74.8125","58.40625"
"1542027704232","845","0.98046875","-0.17773438","-0.20800781","-18.3125","47.84375","34.90625"
"1542027704233","846","0.6015625","-0.08496094","-0.3564453","-106.46875","25.1875","8.34375"
"1542027704233","847","0.24414062","0.052734375","-0.3330078","-103.53125","3.59375","-0.25"
"1542027704234","848","0.23144531","0.09082031","-0.28320312","-72.15625","-2.8125","12.375"
"1542027704433","849","0.5488281","0.115234375","-0.21679688","-44.6875","-1.0625","47.03125"
"1542027704433","850","0.94433594","0.10644531","-0.14746094","-45.59375","4.5","83.71875"
"1542027704433","851","1.3320312","0.125","-0.15332031","-74.28125","17.375","92.09375"
"1542027704433","852","1.53125","0.1796875","-0.12109375","-87.65625","26.53125","76.8125"
"1542027704435","853","1.7138672","0.3076172","-0.15039062","-52.9375","42.65625","51.8125"
"1542027704631","854","1.3818359","0.32617188","-0.17285156","33.6875","24.03125","34.53125"
"1542027704632","855","1.1416016","0.16113281","-0.20898438","94.65625","18.90625","-36.34375"
"1542027704632","856","1.5292969","0.056640625","-0.125","120.71875","-6.84375","-82.84375"
"1542027704632","857","1.2490234","0.04296875","-0.07128906","86.03125","-39.625","-97.5625"
"1542027704632","858","0.86328125","0.061523438","-0.15527344","60.21875","-46.78125","-105.84375"
"1542027704831","859","0.60253906","0.14453125","-0.21679688","63.21875","-46.03125","-110.78125"
"1542027704831","860","0.3828125","0.015625","-0.07128906","85.4375","-46.84375","-112.1875"
"1542027705028","861","0.3623047","0.005859375","-0.015625","94.09375","-48.46875","-103.90625"
"1542027705028","862","0.5595703","0.001953125","-0.040039062","86.15625","-50.6875","-74.1875"
"1542027705028","863","0.93847656","-0.045898438","0.015625","55.65625","-51.65625","-24.25"
"1542027705031","864","1.3193359","-0.08984375","0.10644531","-19.96875","-56.09375","19.8125"
"1542027705031","865","1.2626953","0.0126953125","0.13867188","-97.125","-44.9375","27.6875"
"1542027705031","866","1.1308594","0.06640625","-0.020507812","-92.0","-7.8125","18.78125"
"1542027705032","867","1.2939453","0.15332031","-0.0703125","-36.5625","22.03125","57.90625"
"1542027705032","868","0.96777344","0.07324219","-0.09277344","0.65625","46.4375","64.25"
"1542027705226","869","1.5898438","0.0068359375","-0.11425781","6.6875","60.21875","61.09375"
"1542027705227","870","1.0976562","-0.025390625","-0.20703125","-19.53125","49.65625","69.8125"
"1542027705228","871","0.6875","-0.018554688","-0.22851562","-78.5","37.65625","53.4375"
"1542027705228","872","0.41210938","0.07324219","-0.23046875","-93.875","21.96875","46.0"
"1542027705228","873","0.28027344","0.125","-0.2578125","-79.53125","12.8125","49.65625"
"1542027705427","874","0.5488281","0.15234375","-0.23046875","-56.96875","15.125","61.15625"
"1542027705428","875","0.84375","0.17773438","-0.18847656","-47.125","18.84375","94.28125"
"1542027705428","876","1.2353516","0.16308594","-0.15527344","-53.59375","20.90625","103.9375"
"1542027705429","877","1.5361328","0.140625","-0.12792969","-82.78125","19.625","82.9375"
"1542027705429","878","1.4414062","0.2763672","-0.20605469","-82.21875","29.15625","39.21875"
"1542027705624","879","1.6142578","0.42285156","-0.25683594","1.3125","16.9375","18.53125"
"1542027705625","880","1.0625","0.2705078","-0.21191406","99.40625","4.75","-34.5625"
"1542027705627","881","1.5507812","0.078125","-0.14648438","134.6875","-10.5","-91.09375"
"1542027705627","882","1.3095703","-0.0087890625","-0.08203125","99.84375","-40.53125","-106.65625"
"1542027705628","883","0.9140625","0.017578125","-0.07910156","65.71875","-44.5625","-123.6875"
"1542027705824","884","0.6972656","0.09277344","-0.1328125","69.5625","-44.6875","-130.03125"
"1542027705824","885","0.54589844","0.044921875","-0.07128906","92.28125","-52.3125","-132.40625"
"1542027705825","886","0.48535156","-0.020507812","-0.034179688","87.21875","-54.65625","-124.34375"
"1542027705825","887","0.5058594","-0.01953125","-0.020507812","67.625","-56.03125","-97.3125"
"1542027705825","888","0.7011719","-0.016601562","0.005859375","47.15625","-52.75","-54.28125"
"1542027706021","889","1.0898438","-0.0390625","0.028320312","12.3125","-46.65625","-7.28125"
"1542027706021","890","1.15625","-0.016601562","0.056640625","-35.96875","-35.65625","24.875"
"1542027706022","891","1.1220703","0.0146484375","0.0","-63.84375","-7.78125","43.625"
"1542027706221","892","1.7011719","0.09863281","-0.017578125","-65.9375","32.03125","96.1875"
"1542027706222","893","1.0917969","0.18652344","-0.17871094","-36.875","67.5","117.34375"
"1542027706222","894","1.2783203","0.14257812","-0.20117188","34.21875","86.71875","89.78125"
"1542027706223","895","1.2333984","0.025390625","-0.12597656","70.46875","63.8125","76.59375"
"1542027706223","896","0.7675781","-0.23144531","-0.22558594","-32.96875","37.34375","52.78125"
"1542027706223","897","0.5136719","0.009765625","-0.23046875","-136.96875","22.125","32.5625"
"1542027706421","898","0.32226562","0.19824219","-0.23632812","-115.5625","4.0","28.5"
"1542027706421","899","0.39453125","0.16992188","-0.21386719","-67.03125","-1.78125","45.03125"
"1542027706421","900","0.74316406","0.13867188","-0.140625","-50.0","6.21875","74.6875"
"1542027706422","901","1.1875","0.17089844","-0.16699219","-50.78125","14.8125","104.84375"
"1542027706618","902","1.2109375","0.13085938","-0.15917969","-68.9375","21.40625","96.96875"
"1542027706618","903","1.3164062","0.19726562","-0.18554688","-77.96875","28.84375","55.59375"
"1542027706618","904","1.3769531","0.30664062","-0.16796875","-41.875","36.3125","17.4375"
"1542027706619","905","1.5009766","0.33496094","-0.20410156","27.9375","16.53125","2.25"
"1542027706619","906","1.28125","0.26757812","-0.1328125","89.15625","10.0625","-47.4375"
"1542027706620","907","1.6523438","0.08984375","-0.078125","128.9375","-12.78125","-91.6875"
"1542027706816","908","1.0986328","0.00390625","-0.12402344","100.3125","-30.71875","-116.65625"
"1542027706817","909","0.7373047","0.047851562","-0.15429688","81.96875","-36.75","-139.96875"
"1542027706817","910","0.6308594","0.05859375","-0.13476562","100.09375","-46.46875","-149.0"
"1542027706817","911","0.5390625","-0.005859375","-0.078125","102.15625","-55.375","-140.15625"
"1542027706818","912","0.57421875","-0.0234375","-0.034179688","85.9375","-54.28125","-108.53125"
"1542027707015","913","0.75683594","-0.029296875","-0.015625","63.34375","-51.96875","-62.34375"
"1542027707016","914","0.9902344","-0.030273438","0.01953125","27.03125","-46.28125","-23.34375"
"1542027707016","915","1.1142578","-0.029296875","0.047851562","-14.90625","-36.21875","-1.59375"
"1542027707017","916","1.1777344","0.0087890625","0.026367188","-28.8125","-17.28125","21.71875"
"1542027707017","917","1.5146484","0.0078125","0.060546875","-37.3125","19.15625","65.28125"
"1542027707214","918","0.9355469","0.11035156","-0.048828125","-40.375","36.84375","87.5"
"1542027707214","919","1.5029297","0.140625","-0.052734375","-3.375","65.84375","65.21875"
"1542027707215","920","1.2851562","0.0390625","-0.1484375","23.25","54.84375","67.625"
"1542027707215","921","0.8544922","-0.059570312","-0.19140625","-34.3125","48.8125","53.34375"
"1542027707216","922","0.5683594","0.06542969","-0.28710938","-87.125","34.21875","47.09375"
"1542027707415","923","0.25683594","0.15429688","-0.32714844","-76.3125","15.0","44.84375"
"1542027707415","924","0.3232422","0.14160156","-0.28808594","-54.53125","9.3125","46.75"
"1542027707416","925","0.66015625","0.15332031","-0.24707031","-35.46875","2.375","57.53125"
"1542027707416","926","1.0820312","0.12695312","-0.18945312","-44.5625","4.3125","74.21875"
"1542027707416","927","1.2998047","0.14746094","-0.21679688","-65.1875","11.75","71.09375"
"1542027707611","928","1.4453125","0.18652344","-0.15527344","-73.0625","15.375","53.8125"
"1542027707612","929","1.4658203","0.2861328","-0.16113281","-48.40625","29.28125","33.84375"
"1542027707612","930","1.4267578","0.36523438","-0.22558594","17.875","15.1875","32.875"
"1542027707613","931","1.0888672","0.29882812","-0.17382812","87.3125","11.59375","-22.21875"
"1542027707613","932","1.5283203","0.09765625","-0.06347656","131.21875","-10.75","-74.0625"
"1542027707809","933","1.109375","0.060546875","-0.11035156","106.625","-29.5625","-89.96875"
"1542027707810","934","0.72265625","0.0703125","-0.08886719","84.40625","-30.84375","-114.9375"
"1542027707812","935","0.5439453","-0.0390625","-0.052734375","92.9375","-30.03125","-126.125"
"1542027707812","936","0.34375","-0.15429688","-0.07128906","96.90625","-28.65625","-98.09375"
"1542027707812","937","0.40527344","-0.06933594","-0.078125","87.9375","-26.0625","-51.21875"
"1542027708208","938","0.7314453","-0.13183594","0.051757812","64.8125","-33.46875","-11.625"
"1542027708208","939","1.1279297","-0.13964844","0.09082031","7.75","-36.625","20.8125"
"1542027708209","940","1.0996094","-0.06640625","0.119140625","-59.21875","-31.8125","32.625"
"1542027708209","941","1.0878906","-0.036132812","0.05859375","-69.65625","-7.21875","24.75"
"1542027708209","942","1.5859375","0.04296875","0.055664062","-42.0625","27.09375","41.1875"
"1542027708210","943","1.3447266","0.036132812","-0.051757812","-19.3125","28.65625","72.0"
"1542027708210","944","1.3505859","-0.057617188","-0.107421875","-18.625","52.09375","25.0"
"1542027708211","945","1.4306641","-0.06347656","-0.08984375","-8.625","39.09375","-8.75"
"1542027708211","946","0.8486328","-0.13964844","-0.12792969","-46.9375","23.0625","-14.0"
"1542027708408","947","0.4560547","-0.078125","-0.2734375","-101.03125","11.09375","-18.5"
"1542027708409","948","0.24414062","0.016601562","-0.20117188","-96.21875","-3.3125","-4.40625"
"1542027708409","949","0.28222656","0.055664062","-0.14257812","-84.375","-9.96875","20.8125"
"1542027708410","950","0.58203125","0.115234375","-0.15722656","-78.09375","-7.03125","53.9375"
"1542027708410","951","0.9199219","0.15234375","-0.1484375","-80.75","-1.84375","90.0625"
"1542027708410","952","1.2519531","0.2109375","-0.11621094","-90.59375","14.9375","117.1875"
"1542027708605","953","1.546875","0.21386719","-0.15917969","-84.3125","21.71875","120.40625"
"1542027708605","954","1.7705078","0.36914062","-0.14648438","-65.8125","37.28125","100.15625"
"1542027708605","955","1.3720703","0.47558594","-0.22363281","60.28125","17.75","59.6875"
"1542027708606","956","1.4511719","0.171875","-0.12011719","152.8125","10.84375","-16.5"
"1542027708606","957","1.5625","0.044921875","-0.09667969","151.15625","-15.8125","-68.75"
"1542027708806","958","1.0761719","0.060546875","-0.12207031","120.53125","-39.03125","-101.28125"
"1542027708806","959","0.7529297","0.022460938","-0.15332031","113.28125","-52.03125","-122.40625"
"1542027708807","960","0.44628906","0.056640625","-0.076171875","94.40625","-63.75","-130.03125"
"1542027708807","961","0.3623047","0.015625","0.06347656","72.5625","-70.03125","-118.53125"
"1542027708808","962","0.4716797","0.032226562","0.13867188","48.4375","-71.4375","-87.125"
"1542027709001","963","0.69433594","0.06542969","0.14648438","20.5","-65.9375","-44.15625"
"1542027709002","964","1.1035156","0.1015625","0.14746094","-17.96875","-53.78125","-15.03125"
"1542027709003","965","1.3046875","0.068359375","0.1484375","-28.28125","-30.71875","-22.46875"
"1542027709003","966","1.1816406","-0.059570312","-0.01171875","5.59375","4.875","-42.75"
"1542027709004","967","1.4980469","-0.0234375","-0.087890625","39.15625","41.71875","-23.875"
"1542027709401","968","1.0869141","-0.0029296875","-0.111328125","31.25","43.4375","17.875"
"1542027709402","969","1.3144531","-0.12402344","-0.0546875","-5.3125","51.5625","18.53125"
"1542027709598","970","1.4345703","-0.037109375","-0.33398438","-4.71875","54.3125","25.3125"
"1542027709600","971","0.8388672","-0.20117188","-0.3330078","-26.375","19.15625","24.15625"
"1542027709602","972","0.46777344","-0.10253906","-0.19824219","-106.53125","10.78125","26.84375"
"1542027709602","973","0.37304688","0.0126953125","-0.23046875","-104.03125","-1.71875","40.875"
"1542027709602","974","0.37597656","0.07128906","-0.1484375","-81.625","-11.625","61.9375"
"1542027709602","975","0.5654297","0.109375","-0.09765625","-67.40625","-3.1875","89.03125"
"1542027709603","976","0.9638672","0.13085938","-0.10546875","-55.8125","9.1875","121.5625"
"1542027709603","977","1.3583984","0.16210938","-0.08984375","-61.59375","26.03125","146.90625"
"1542027709604","978","1.6220703","0.13964844","-0.059570312","-79.53125","33.5","143.40625"
"1542027709800","979","1.2431641","-0.11621094","-0.1953125","106.0","-45.59375","-141.75"
"1542027709800","980","0.91015625","-0.17285156","-0.20410156","40.28125","-64.65625","-192.875"
"1542027709800","981","0.7753906","-0.0234375","-0.18164062","5.0","-70.625","-204.53125"
"1542027709800","982","0.62109375","0.025390625","-0.12207031","25.3125","-74.84375","-189.53125"
"1542027709800","983","0.51171875","0.0087890625","-0.053710938","44.40625","-76.5625","-155.09375"
"1542027709997","984","0.5253906","-0.044921875","-0.013671875","41.375","-66.71875","-113.28125"
"1542027709999","985","0.82128906","-0.0625","-0.043945312","26.0","-57.375","-58.0"
"1542027709999","986","1.0205078","-0.056640625","-0.0078125","-11.375","-47.6875","-3.75"
"1542027709999","987","1.1699219","0.0126953125","0.0126953125","-47.125","-26.1875","40.375"
"1542027709999","988","1.3359375","0.1640625","-0.07128906","-60.25","7.625","76.15625"
"1542027710194","989","1.2568359","0.30078125","-0.109375","-57.09375","30.0","113.15625"
"1542027710195","990","1.2783203","0.2734375","-0.19238281","-49.09375","56.4375","91.40625"
"1542027710195","991","1.4794922","0.25585938","-0.14746094","-3.96875","54.5","78.125"
"1542027710196","992","0.9785156","0.10546875","-0.23925781","-42.0","34.46875","64.125"
"1542027710196","993","0.5234375","0.16113281","-0.2421875","-96.21875","17.125","38.6875"
"1542027710395","994","0.23339844","0.22167969","-0.2548828","-76.4375","3.71875","29.71875"
"1542027710592","995","0.26660156","0.22851562","-0.18554688","-60.125","-1.25","34.84375"
"1542027710592","996","0.5595703","0.24414062","-0.22851562","-55.4375","-2.8125","49.78125"
"1542027710593","997","0.8886719","0.25585938","-0.15527344","-54.65625","-3.0","62.71875"
"1542027710593","998","1.1503906","0.234375","-0.18847656","-60.1875","7.75","64.0625"
"1542027710594","999","1.4775391","0.22460938","-0.17382812","-67.9375","14.3125","61.09375"
"1542027710595","1000","1.2666016","0.2861328","-0.19042969","-58.4375","30.0","58.625"
"1542027710595","1001","1.671875","0.43945312","-0.30273438","-0.25","28.625","73.15625"
"1542027710595","1002","1.0605469","0.3486328","-0.203125","93.0625","14.8125","31.90625"
"1542027710596","1003","1.6503906","0.051757812","0.009765625","147.9375","-3.875","-37.0625"
"1542027710793","1004","1.3193359","-0.10449219","-0.05859375","89.78125","-41.03125","-71.125"
"1542027710793","1005","0.796875","-0.046875","-0.1484375","-8.6875","-49.75","-104.03125"
"1542027710793","1006","0.59375","0.13085938","-0.13964844","-15.75","-45.65625","-125.4375"
"1542027710794","1007","0.40722656","0.12792969","-0.109375","46.0625","-49.8125","-125.0"
"1542027710794","1008","0.39453125","0.03125","-0.053710938","66.875","-47.5","-104.09375"
"1542027710990","1009","0.55859375","9.765625E-4","-0.05078125","52.96875","-43.84375","-63.5625"
"1542027710991","1010","0.8564453","0.01953125","-0.047851562","29.09375","-36.75","-17.53125"
"1542027710991","1011","1.1064453","-0.001953125","-0.017578125","-5.5","-32.84375","12.875"
"1542027710992","1012","1.2246094","0.009765625","0.013671875","-35.84375","-16.625","34.09375"
"1542027710992","1013","1.1455078","0.09667969","-0.06347656","-43.84375","5.40625","55.71875"
"1542027711188","1014","1.5537109","0.13574219","-0.07519531","-30.15625","30.75","96.96875"
"1542027711189","1015","0.8701172","0.20605469","-0.19824219","-6.84375","41.375","90.8125"
"1542027711189","1016","1.5341797","0.030273438","-0.056640625","23.46875","53.28125","62.1875"
"1542027711190","1017","1.1474609","0.05078125","-0.1796875","15.65625","34.21875","56.8125"
"1542027711190","1018","0.66308594","-0.0234375","-0.2109375","-52.875","20.25","29.84375"
"1542027711389","1019","0.44726562","0.12792969","-0.2578125","-67.46875","13.0","16.9375"
"1542027711390","1020","0.27441406","0.12792969","-0.1953125","-47.3125","1.375","23.90625"
"1542027711391","1021","0.5","0.14257812","-0.2109375","-30.21875","2.71875","44.28125"
"1542027711586","1022","0.8808594","0.15625","-0.17480469","-16.25","3.71875","67.78125"
"1542027711587","1023","1.2001953","0.14160156","-0.21777344","-13.8125","13.09375","74.21875"
"1542027711587","1024","1.3144531","0.09082031","-0.21289062","-38.09375","13.09375","53.34375"
"1542027711587","1025","1.1552734","0.17773438","-0.19042969","-47.375","18.71875","18.71875"
"1542027711588","1026","1.71875","0.2841797","-0.18945312","-13.3125","18.1875","11.59375"
"1542027711588","1027","1.0615234","0.2841797","-0.15039062","55.34375","0.46875","-11.96875"
"1542027711589","1028","1.4384766","0.0859375","-0.083984375","106.625","-3.90625","-62.875"
"1542027711787","1029","1.2910156","0.06542969","-0.08203125","103.6875","-21.25","-80.03125"
"1542027711787","1030","0.8203125","0.0146484375","-0.12597656","77.5625","-30.03125","-93.46875"
"1542027711787","1031","0.6386719","0.06738281","-0.12207031","66.9375","-29.625","-106.8125"
"1542027711788","1032","0.4814453","0.057617188","-0.09375","88.25","-36.09375","-112.3125"
"1542027711789","1033","0.46875","0.01171875","-0.04296875","88.1875","-39.75","-100.125"
"1542027711983","1034","0.7050781","-0.0087890625","-0.020507812","70.1875","-41.65625","-68.625"
"1542027711983","1035","0.97265625","-0.038085938","-0.013671875","37.09375","-40.0625","-28.875"
"1542027711985","1036","1.0322266","-0.051757812","0.0126953125","-14.53125","-39.375","-9.71875"
"1542027711985","1037","1.1767578","-0.07421875","0.022460938","-36.28125","-19.3125","5.34375"
"1542027711985","1038","1.1650391","-0.034179688","-0.0546875","-37.5625","1.8125","29.40625"
"1542027712182","1039","1.4267578","-0.005859375","-0.041015625","-31.375","27.375","70.65625"
"1542027712182","1040","0.9736328","0.05859375","-0.07519531","-24.125","47.71875","77.8125"
"1542027712183","1041","1.5371094","0.0068359375","-0.08691406","18.78125","68.53125","61.875"
"1542027712184","1042","1.2167969","-0.059570312","-0.1953125","14.375","52.34375","48.1875"
"1542027712184","1043","0.7939453","-0.1484375","-0.23730469","-74.21875","34.84375","23.4375"
"1542027712383","1044","0.45410156","0.0234375","-0.35742188","-107.4375","20.1875","12.75"
"1542027712385","1045","0.22265625","0.11230469","-0.26953125","-86.875","5.1875","18.125"
"1542027712385","1046","0.3388672","0.13476562","-0.2548828","-64.15625","-0.8125","36.59375"
"1542027712385","1047","0.6621094","0.15820312","-0.20019531","-50.125","3.28125","61.3125"
"1542027712386","1048","1.2099609","0.15820312","-0.1875","-50.78125","11.09375","82.375"
"1542027712579","1049","1.4082031","0.13574219","-0.17285156","-71.25","15.90625","76.15625"
"1542027712580","1050","1.3339844","0.14160156","-0.16992188","-87.78125","25.75","50.03125"
"1542027712581","1051","1.7480469","0.26660156","-0.13964844","-59.71875","40.9375","35.75"
"1542027712581","1052","1.2353516","0.4189453","-0.1875","31.71875","23.84375","27.625"
"1542027712582","1053","1.2607422","0.24511719","-0.16503906","121.5625","18.90625","-22.96875"
"1542027712780","1054","1.5136719","0.015625","-0.08203125","145.5625","-6.5","-69.84375"
"1542027712781","1055","1.0585938","-0.041992188","-0.119140625","107.59375","-29.8125","-101.09375"
"1542027712781","1056","0.7265625","-0.03125","-0.17675781","62.0625","-42.0","-124.34375"
"1542027712781","1057","0.54589844","0.047851562","-0.15332031","52.15625","-48.59375","-137.40625"
"1542027712782","1058","0.45898438","0.040039062","-0.064453125","72.1875","-53.78125","-138.3125"
"1542027712978","1059","0.49414062","9.765625E-4","-0.0048828125","85.25","-52.75","-116.71875"
"1542027712978","1060","0.7871094","-0.049804688","0.038085938","69.125","-45.3125","-64.65625"
"1542027712979","1061","1.2021484","-0.064453125","0.048828125","-1.53125","-47.0","9.125"
"1542027712979","1062","1.0058594","-0.024414062","0.15136719","-98.78125","-39.3125","36.53125"
"1542027712979","1063","1.1669922","0.013671875","0.11035156","-107.0625","-9.78125","35.5"
"1542027713176","1064","1.6015625","0.13183594","-0.00390625","-78.09375","24.28125","67.1875"
"1542027713177","1065","1.2265625","0.1875","-0.16601562","-38.21875","38.375","100.09375"
"1542027713177","1066","1.2539062","0.095703125","-0.25585938","11.40625","54.90625","82.125"
"1542027713177","1067","1.2148438","-0.0859375","-0.15820312","20.6875","40.9375","61.9375"
"1542027713178","1068","0.9580078","-0.17382812","-0.13867188","-53.59375","20.75","41.25"
"1542027713375","1069","0.53222656","-0.028320312","-0.12988281","-116.59375","3.9375","18.96875"
"1542027713375","1070","0.2607422","0.048828125","-0.12792969","-115.5625","-2.21875","11.40625"
"1542027713375","1071","0.2529297","0.10449219","-0.03125","-107.375","-0.6875","28.1875"
"1542027713376","1072","0.625","0.20898438","-0.06738281","-105.78125","6.40625","69.3125"
"1542027713376","1073","1.0742188","0.2998047","-0.046875","-108.90625","8.65625","106.0"
"1542027713574","1074","1.3642578","0.3857422","-0.125","-94.375","22.1875","113.5625"
"1542027713574","1075","1.5361328","0.34472656","-0.14941406","-52.5","25.9375","91.90625"
"1542027713574","1076","1.5644531","0.3779297","-0.23730469","-20.09375","44.65625","54.0"
"1542027713575","1077","1.296875","0.51171875","-0.27246094","63.59375","28.375","24.09375"
"1542027713576","1078","1.2021484","0.32714844","-0.20410156","164.65625","15.0625","-35.53125"
"1542027713774","1079","1.6699219","0.052734375","-0.015625","207.0625","-16.5","-80.59375"
"1542027713774","1080","1.3408203","-0.10839844","-0.07324219","161.375","-51.15625","-102.0625"
"1542027713775","1081","0.8925781","-0.10253906","-0.103515625","88.375","-64.28125","-126.90625"
"1542027713775","1082","0.6191406","0.0","-0.0234375","55.03125","-69.71875","-144.0625"
"1542027713775","1083","0.43945312","0.0126953125","0.056640625","68.03125","-69.59375","-144.0"
"1542027713971","1084","0.47558594","-0.032226562","0.09082031","79.6875","-64.03125","-120.8125"
"1542027713971","1085","0.5800781","-0.028320312","0.08300781","59.75","-58.3125","-72.84375"
"1542027713971","1086","0.84277344","-0.0048828125","0.08886719","22.25","-52.5","-10.6875"
"1542027713972","1087","1.0185547","0.009765625","0.1640625","-27.46875","-40.78125","33.1875"
"1542027713972","1088","1.2802734","0.033203125","0.13476562","-50.0","-16.0625","55.96875"
"1542027714170","1089","1.2041016","0.08496094","-0.055664062","-45.25","19.46875","65.59375"
"1542027714170","1090","1.4511719","0.12988281","-0.068359375","-29.75","49.125","94.59375"
"1542027714170","1091","0.9667969","0.19726562","-0.21191406","11.9375","68.46875","86.53125"
"1542027714170","1092","1.6132812","0.020507812","-0.13964844","65.53125","81.78125","69.375"
"1542027714172","1093","1.1914062","-0.051757812","-0.18847656","53.5","47.71875","60.53125"
"1542027714369","1094","0.6621094","-0.18457031","-0.26660156","-59.40625","25.9375","28.0625"
"1542027714371","1095","0.4033203","0.03125","-0.24804688","-102.875","12.5625","10.0625"
"1542027714371","1096","0.2783203","0.16503906","-0.21972656","-68.3125","1.6875","15.96875"
"1542027714371","1097","0.48046875","0.15136719","-0.21972656","-29.375","-0.9375","37.21875"
"1542027714372","1098","0.88183594","0.09863281","-0.18359375","-24.25","4.125","63.34375"
"1542027714567","1099","1.0986328","0.09375","-0.17871094","-45.375","0.40625","70.46875"
"1542027714567","1100","1.3955078","0.09667969","-0.15234375","-66.65625","13.59375","52.34375"
"1542027714567","1101","1.3105469","0.18457031","-0.1640625","-57.8125","16.03125","27.9375"
"1542027714568","1102","1.7099609","0.21386719","-0.16015625","-22.125","31.53125","13.15625"
"1542027714569","1103","1.1259766","0.27734375","-0.19238281","46.75","10.46875","-3.90625"
"1542027714769","1104","1.3769531","0.10253906","-0.0546875","103.1875","-0.5625","-52.03125"
"1542027714770","1105","1.5097656","0.0234375","-0.015625","107.96875","-21.5625","-73.8125"
"1542027714770","1106","1.0332031","0.0107421875","-0.083984375","83.78125","-30.15625","-89.625"
"1542027714771","1107","0.69921875","0.029296875","-0.15722656","60.71875","-29.25","-114.53125"
"1542027714771","1108","0.48535156","0.057617188","-0.1171875","69.0625","-35.21875","-127.15625"
"1542027714965","1109","0.38085938","0.025390625","-0.072265625","85.375","-39.25","-121.96875"
"1542027714966","1110","0.45410156","9.765625E-4","-0.030273438","82.625","-40.59375","-93.59375"
"1542027714966","1111","0.7324219","-0.030273438","-0.022460938","61.3125","-39.03125","-44.4375"
"1542027714966","1112","1.0273438","-0.036132812","0.009765625","9.625","-40.3125","9.6875"
"1542027714969","1113","1.1855469","0.005859375","0.087890625","-56.90625","-33.875","40.09375"
"1542027715163","1114","1.1337891","0.08496094","0.033203125","-70.09375","-8.8125","51.0625"
"1542027715164","1115","1.3740234","0.10644531","-0.091796875","-38.59375","30.875","63.65625"
"1542027715165","1116","1.2949219","0.15917969","-0.1015625","3.90625","44.90625","97.03125"
"1542027715165","1117","1.1328125","0.09472656","-0.14746094","22.25","60.15625","71.21875"
"1542027715165","1118","1.3681641","-0.047851562","-0.15234375","29.46875","56.4375","35.5625"
"1542027715363","1119","0.93066406","-0.11035156","-0.16308594","-7.40625","29.15625","18.78125"
"1542027715363","1120","0.60058594","-0.038085938","-0.21582031","-89.96875","15.25","7.125"
"1542027715363","1121","0.3935547","0.091796875","-0.22949219","-82.40625","3.40625","9.9375"
"1542027715363","1122","0.34765625","0.1015625","-0.20800781","-51.84375","-0.3125","24.8125"
"1542027715364","1123","0.6044922","0.08203125","-0.23730469","-38.84375","0.90625","47.03125"
"1542027715562","1124","0.8408203","0.076171875","-0.14160156","-40.46875","1.09375","69.75"
"1542027715562","1125","1.09375","0.095703125","-0.140625","-50.625","8.65625","79.28125"
"1542027715562","1126","1.3525391","0.099609375","-0.13574219","-69.03125","15.25","70.46875"
"1542027715562","1127","1.1582031","0.18945312","-0.12207031","-68.25","25.5625","49.96875"
"1542027715563","1128","1.7587891","0.35253906","-0.13183594","-20.53125","30.25","44.0"
"1542027715760","1129","1.1298828","0.32617188","-0.10449219","79.5","15.3125","8.59375"
"1542027715760","1130","1.5449219","0.0068359375","-0.0126953125","128.09375","5.21875","-57.09375"
"1542027715958","1131","1.3291016","0.005859375","-0.11621094","106.1875","-8.5","-93.8125"
"1542027715959","1132","0.9785156","0.0078125","-0.21679688","97.75","-15.75","-113.78125"
"1542027716157","1133","0.6894531","-0.024414062","-0.14453125","106.375","-25.09375","-121.21875"
"1542027716358","1134","0.4658203","-0.041992188","-0.09082031","102.53125","-33.28125","-115.96875"
"1542027716359","1135","0.46679688","-0.060546875","-0.037109375","96.46875","-37.3125","-99.0"
"1542027716359","1136","0.63964844","-0.08984375","-0.0068359375","75.3125","-41.65625","-67.8125"
"1542027716360","1137","0.7998047","-0.10644531","0.07714844","29.21875","-48.65625","-29.96875"
"1542027716360","1138","1.1582031","-0.08886719","0.14746094","-30.28125","-48.21875","1.15625"
"1542027716360","1139","1.2626953","-0.024414062","0.1484375","-72.09375","-37.0625","20.4375"
"1542027716360","1140","1.1337891","-0.017578125","-0.01171875","-77.96875","-5.3125","23.53125"
"1542027716361","1141","1.4033203","0.060546875","-0.034179688","-60.3125","15.78125","58.28125"
"1542027716362","1142","1.6318359","-0.13769531","-0.0703125","-33.9375","39.0625","36.78125"
"1542027716555","1143","0.31347656","-0.00390625","-0.18457031","-43.03125","-4.40625","56.8125"
"1542027716557","1144","0.43652344","-0.00390625","-0.08300781","-76.1875","-15.15625","84.6875"
"1542027716557","1145","0.83203125","0.10546875","-0.0546875","-124.34375","-10.15625","106.375"
"1542027716558","1146","1.1210938","0.26660156","-0.06542969","-169.6875","-9.0625","112.96875"
"1542027716558","1147","1.4335938","0.4345703","-0.1484375","-184.84375","7.0625","98.9375"
"1542027716559","1148","1.1953125","0.49316406","-0.17089844","-116.90625","22.03125","73.59375"
"1542027716755","1149","1.7353516","0.51464844","-0.16699219","-27.40625","36.1875","52.78125"
"1542027716755","1150","1.1464844","0.4736328","-0.33398438","71.09375","24.75","16.40625"
"1542027716756","1151","1.4521484","0.234375","-0.12402344","113.21875","15.0625","-61.65625"
"1542027716756","1152","1.5332031","0.025390625","-0.12109375","119.96875","-18.375","-124.28125"
"1542027716757","1153","1.0722656","-0.0087890625","-0.2685547","92.21875","-33.03125","-162.3125"
"1542027716952","1154","0.79003906","-9.765625E-4","-0.19726562","88.59375","-40.375","-179.46875"
"1542027716952","1155","0.4169922","-0.029296875","-0.14453125","105.28125","-51.71875","-174.8125"
"1542027716953","1156","0.45507812","-0.0859375","-0.041015625","106.5625","-48.125","-143.875"
"1542027716953","1157","0.55859375","-0.09472656","9.765625E-4","88.59375","-46.875","-95.0625"
"1542027716953","1158","0.8671875","-0.07910156","0.037109375","48.09375","-45.125","-31.375"
"1542027717152","1159","1.0419922","-0.044921875","0.060546875","-9.40625","-42.4375","15.84375"
"1542027717153","1160","1.0986328","0.001953125","0.080078125","-46.40625","-24.125","36.4375"
"1542027717154","1161","1.1054688","0.060546875","-0.061523438","-53.84375","7.84375","55.40625"
"1542027717154","1162","1.4628906","0.15625","-0.055664062","-41.59375","40.6875","95.1875"
"1542027717154","1163","0.97558594","0.20605469","-0.1328125","-20.15625","63.78125","102.875"
"1542027717352","1164","1.3818359","0.09082031","-0.12597656","24.9375","86.34375","81.84375"
"1542027717352","1165","1.3173828","0.02734375","-0.20898438","37.65625","74.21875","74.15625"
"1542027717352","1166","0.76660156","-0.12109375","-0.23242188","-31.3125","52.21875","54.5625"
"1542027717353","1167","0.453125","0.044921875","-0.20996094","-87.84375","40.6875","41.25"
"1542027717353","1168","0.40429688","0.18652344","-0.28515625","-57.15625","26.65625","43.6875"
"1542027717548","1169","0.60839844","0.13476562","-0.28515625","-17.40625","18.78125","65.0625"
"1542027717549","1170","0.9169922","0.07128906","-0.26757812","-14.71875","14.5625","89.53125"
"1542027717549","1171","1.1523438","0.09082031","-0.2783203","-37.5625","10.1875","92.15625"
"1542027717550","1172","1.4462891","0.11816406","-0.21289062","-52.6875","9.5","66.4375"
"1542027717550","1173","1.2617188","0.17382812","-0.17480469","-37.0625","2.0","25.9375"
"1542027717749","1174","1.8349609","0.2421875","-0.15332031","-2.03125","5.28125","-3.125"
"1542027717749","1175","1.125","0.22265625","-0.056640625","65.21875","-16.75","-47.5625"
"1542027717750","1176","1.5214844","0.0146484375","0.07714844","105.8125","-25.03125","-105.25"
"1542027717751","1177","1.3535156","0.02734375","-9.765625E-4","98.625","-38.96875","-118.0"
"1542027717751","1178","0.8671875","0.045898438","-0.053710938","91.0","-37.125","-121.15625"
"1542027717946","1179","0.61816406","0.029296875","-0.07714844","96.125","-29.3125","-121.90625"
"1542027717946","1180","0.46191406","0.020507812","-0.08203125","111.4375","-34.4375","-117.3125"
"1542027717947","1181","0.40234375","-0.028320312","-0.024414062","105.8125","-41.9375","-103.71875"
"1542027717947","1182","0.5576172","-0.034179688","-0.0068359375","85.5","-48.1875","-76.90625"
"1542027717948","1183","0.84765625","-0.041992188","0.0107421875","50.03125","-50.5625","-36.40625"
"1542027718145","1184","1.1416016","-0.0546875","0.06347656","-5.875","-54.28125","-1.25"
"1542027718146","1185","1.21875","-0.038085938","0.10546875","-64.90625","-40.71875","11.71875"
"1542027718146","1186","1.0859375","0.028320312","-0.0390625","-69.21875","-6.4375","14.8125"
"1542027718148","1187","1.484375","0.14746094","-0.07128906","-34.6875","31.125","57.65625"
"1542027718148","1188","1.0410156","0.13476562","-0.12402344","2.0","55.78125","77.9375"
"1542027718346","1189","1.4072266","0.036132812","-0.09765625","26.90625","81.28125","60.09375"
"1542027718346","1190","1.2490234","0.01953125","-0.23925781","37.71875","65.96875","49.4375"
"1542027718346","1191","0.7294922","-0.12207031","-0.234375","-39.1875","40.03125","24.9375"
"1542027718346","1192","0.4169922","0.029296875","-0.2734375","-91.15625","29.59375","11.8125"
"1542027718347","1193","0.3251953","0.13378906","-0.3125","-55.4375","21.09375","19.53125"
"1542027718544","1194","0.43359375","0.09277344","-0.2578125","-22.59375","10.53125","40.15625"
"1542027718545","1195","0.80371094","0.08203125","-0.23242188","-29.125","10.96875","72.5"
"1542027718545","1196","1.0556641","0.123046875","-0.22070312","-50.125","12.5625","91.125"
"1542027718545","1197","1.3789062","0.08691406","-0.18261719","-75.46875","19.03125","84.03125"
"1542027718545","1198","1.2988281","0.18066406","-0.15429688","-86.25","22.1875","66.03125"
"1542027718742","1199","1.8671875","0.3173828","-0.19042969","-55.1875","28.0625","54.78125"
"1542027718743","1200","1.2539062","0.4033203","-0.18359375","39.0","10.0625","23.53125"
"1542027718744","1201","1.5556641","0.1484375","-0.030273438","116.75","-6.65625","-36.03125"
"1542027718744","1202","1.3603516","0.037109375","-0.034179688","103.5","-32.375","-74.96875"
"1542027718744","1203","0.95996094","0.045898438","-0.0859375","55.53125","-40.65625","-109.09375"
"1542027718941","1204","0.6816406","0.12011719","-0.111328125","48.15625","-41.6875","-134.84375"
"1542027718942","1205","0.49121094","0.08496094","-0.09765625","76.59375","-48.21875","-143.09375"
"1542027718942","1206","0.4501953","0.024414062","-0.044921875","83.3125","-52.9375","-127.9375"
"1542027718942","1207","0.50390625","0.013671875","-0.033203125","73.34375","-53.90625","-91.1875"
"1542027718942","1208","0.68359375","-0.0048828125","-0.021484375","47.46875","-52.4375","-48.53125"
"1542027719139","1209","0.8935547","0.013671875","0.0068359375","9.625","-48.125","-16.96875"
"1542027719140","1210","1.1816406","0.02734375","0.0234375","-14.3125","-40.375","3.90625"
"1542027719140","1211","0.9921875","0.025390625","-0.056640625","-34.8125","-23.6875","12.5"
"1542027719140","1212","1.3662109","0.038085938","-0.072265625","-37.0","10.53125","32.625"
"1542027719141","1213","1.1728516","0.12207031","-0.15332031","-28.34375","19.15625","71.875"
"1542027719336","1214","1.6542969","0.06347656","-0.13183594","-21.9375","49.90625","64.6875"
"1542027719337","1215","1.4160156","0.056640625","-0.30664062","7.125","53.03125","48.09375"
"1542027719338","1216","1.0146484","-0.0107421875","-0.31347656","16.28125","46.0","34.34375"
"1542027719338","1217","0.6669922","-0.125","-0.25097656","-44.28125","27.21875","39.15625"
"1542027719339","1218","0.3095703","0.0234375","-0.29785156","-92.65625","13.21875","58.875"
"1542027719539","1219","0.20507812","0.15917969","-0.25878906","-87.71875","7.84375","84.9375"
"1542027719539","1220","0.3642578","0.21386719","-0.24902344","-55.3125","6.625","110.15625"
"1542027719539","1221","0.60253906","0.20898438","-0.14746094","-34.8125","6.5","127.4375"
"1542027719539","1222","1.1552734","0.22851562","-0.12109375","-29.75","15.25","134.8125"
"1542027719540","1223","1.3115234","0.16210938","-0.043945312","-59.15625","10.78125","104.71875"
"1542027719736","1224","1.9677734","0.20019531","-0.13183594","-77.21875","42.71875","52.84375"
"1542027719736","1225","1.1757812","0.46679688","-0.31152344","19.34375","12.9375","-0.25"
"1542027719736","1226","1.8994141","0.17089844","0.015625","120.40625","13.65625","-83.21875"
"1542027719736","1227","1.7177734","-0.08691406","-0.1015625","141.9375","-25.71875","-143.03125"
"1542027719737","1228","1.0380859","-0.11328125","-0.26171875","92.40625","-33.875","-190.5"
"1542027719934","1229","0.7578125","0.0","-0.22363281","87.875","-28.6875","-201.625"
"1542027719934","1230","0.5449219","0.005859375","-0.19921875","124.5","-39.03125","-177.75"
"1542027719935","1231","0.4375","-0.07910156","-0.09375","108.125","-51.71875","-145.59375"
"1542027719935","1232","0.46777344","-0.046875","-0.060546875","84.46875","-57.28125","-110.84375"
"1542027720132","1233","0.7285156","-0.020507812","-0.05859375","71.03125","-56.28125","-69.71875"
"1542027720133","1234","1.0488281","-0.064453125","-0.03125","38.375","-58.4375","-32.96875"
"1542027720133","1235","1.1767578","-0.107421875","0.033203125","-20.40625","-55.8125","-11.71875"
"1542027720133","1236","0.9316406","-0.045898438","0.015625","-67.59375","-35.34375","4.8125"
"1542027720134","1237","1.3134766","0.10546875","-0.053710938","-66.59375","10.96875","57.90625"
"1542027720135","1238","0.9941406","0.25","-0.13183594","-46.71875","41.0625","109.25"
"1542027720332","1239","1.5175781","0.25585938","-0.125","-33.40625","84.40625","105.46875"
"1542027720332","1240","1.5458984","0.30664062","-0.24023438","28.71875","95.625","103.8125"
"1542027720332","1241","1.0439453","0.099609375","-0.28320312","18.40625","84.21875","81.71875"
"1542027720333","1242","0.6425781","0.025390625","-0.26757812","-42.0625","63.03125","54.125"
"1542027720333","1243","0.3251953","0.12988281","-0.30664062","-71.625","39.46875","45.34375"
"1542027720532","1244","0.26757812","0.15917969","-0.2861328","-69.03125","26.78125","51.9375"
"1542027720533","1245","0.5029297","0.18945312","-0.28320312","-51.96875","21.84375","72.0625"
"1542027720533","1246","0.8798828","0.19238281","-0.23144531","-33.65625","23.78125","104.28125"
"1542027720533","1247","1.3378906","0.18066406","-0.21484375","-42.0625","24.21875","119.25"
"1542027720533","1248","1.5439453","0.16503906","-0.1796875","-68.3125","24.40625","97.15625"
"1542027720728","1249","1.1748047","0.25195312","-0.21191406","-63.6875","27.375","51.1875"
"1542027720728","1250","1.8076172","0.40625","-0.12792969","-5.5","31.71875","15.96875"
"1542027720729","1251","1.1757812","0.5058594","-0.12109375","123.28125","0.34375","-15.8125"
"1542027720729","1252","1.5429688","0.14941406","0.068359375","216.84375","-15.6875","-74.0"
"1542027720730","1253","1.5185547","-0.044921875","-9.765625E-4","193.15625","-42.375","-104.03125"
"1542027720929","1254","0.94433594","-0.0234375","-0.055664062","121.09375","-57.375","-128.8125"
"1542027720929","1255","0.7001953","0.018554688","-0.0078125","63.28125","-60.625","-150.53125"
"1542027720929","1256","0.60058594","0.08691406","0.0087890625","67.84375","-63.3125","-148.4375"
"1542027720929","1257","0.54589844","0.072265625","0.005859375","87.6875","-66.3125","-124.71875"
"1542027720929","1258","0.67285156","0.00390625","-0.020507812","76.59375","-67.65625","-90.28125"
"1542027721126","1259","0.8203125","-0.061523438","0.032226562","34.34375","-74.1875","-55.25"
"1542027721126","1260","0.9785156","-0.07714844","0.083984375","-17.40625","-69.90625","-30.65625"
"1542027721127","1261","1.1572266","-0.033203125","0.08691406","-47.75","-53.59375","-8.5"
"1542027721128","1262","0.953125","0.022460938","-0.022460938","-47.6875","-22.78125","9.5625"
"1542027721128","1263","1.2783203","0.123046875","-0.032226562","-30.28125","10.96875","54.5625"
"1542027721324","1264","1.3583984","0.08300781","-0.018554688","-18.6875","45.09375","80.6875"
"1542027721325","1265","1.7910156","0.03125","-0.06347656","-17.46875","68.34375","95.6875"
"1542027721326","1266","1.2148438","0.08203125","-0.19433594","-24.96875","68.96875","87.3125"
"1542027721326","1267","0.73339844","0.049804688","-0.2705078","-30.21875","56.625","57.0"
"1542027721526","1268","0.40234375","-0.032226562","-0.24023438","-44.15625","33.625","43.3125"
"1542027721527","1269","0.24316406","-0.0048828125","-0.22460938","-92.78125","17.6875","54.96875"
"1542027721527","1270","0.34277344","0.140625","-0.2265625","-109.15625","3.65625","80.25"
"1542027721527","1271","0.6386719","0.17871094","-0.115234375","-91.25","0.15625","116.3125"
"1542027721527","1272","1.2402344","0.18457031","-0.041015625","-85.46875","9.875","150.0625"
"1542027721528","1273","1.6357422","0.20214844","-0.02734375","-106.34375","8.78125","146.28125"
"1542027721924","1274","1.2724609","0.29296875","-0.20117188","-114.46875","25.5625","94.84375"
"1542027721924","1275","1.8183594","0.43359375","-0.22363281","-36.34375","42.78125","43.8125"
"1542027721924","1276","1.1582031","0.41796875","-0.19628906","83.3125","26.09375","2.375"
"1542027721924","1277","1.4199219","0.18945312","-0.16601562","127.71875","10.1875","-74.21875"
"1542027721925","1278","1.5917969","0.047851562","-0.16601562","129.125","-14.84375","-128.0"
"1542027721925","1279","1.1054688","0.0546875","-0.18359375","109.3125","-27.59375","-159.875"
"1542027721925","1280","0.84472656","0.0087890625","-0.15917969","110.8125","-39.9375","-174.9375"
"1542027721925","1281","0.62890625","-0.017578125","-0.12109375","98.375","-52.4375","-167.4375"
"1542027722120","1282","0.5048828","-0.041015625","-0.07128906","76.28125","-60.625","-146.9375"
"1542027722120","1283","0.7949219","0.053710938","-0.0859375","30.625","-78.8125","-96.34375"
"1542027722120","1284","1.0029297","-0.052734375","-0.01953125","-0.5625","-85.9375","-62.625"
"1542027722121","1285","1.1572266","-0.048828125","-0.016601562","-44.625","-76.4375","-30.84375"
"1542027722121","1286","0.95703125","-0.017578125","-0.041015625","-62.46875","-50.5","3.46875"
"1542027722122","1287","1.3642578","0.10058594","-0.06933594","-49.09375","-2.875","67.5625"
