"# PDIoT walking data"
"# Start time: 20181112T125213"
"# Group: D"
"# Subject: Rimvydas"
"# Activity type: Descending stairs"
"# Sensor position: Wrist"
"# Side of body: Left"
"# Sensor mounting: Body"
"# Number of steps: 100"
"# Notes: "
""
"timestamp","seq","accel_x","accel_y","accel_z","gyro_x","gyro_y","gyro_z"
"1542027133620","0","0.9863281","0.12011719","-0.02734375","0.0","3.65625","-5.4375"
"1542027133623","1","0.99316406","0.12207031","-0.030273438","-2.59375","3.28125","-5.5625"
"1542027133624","2","0.99902344","0.13378906","-0.03125","-4.46875","2.96875","-4.84375"
"1542027133624","3","0.9736328","0.14648438","-0.03515625","-6.4375","3.84375","-5.5"
"1542027133624","4","0.95214844","0.18261719","-0.051757812","-7.46875","5.28125","-5.09375"
"1542027133819","5","0.8984375","0.20410156","-0.055664062","-3.625","7.5625","-2.40625"
"1542027133820","6","0.7597656","0.20117188","-0.07128906","1.03125","11.03125","-1.1875"
"1542027133820","7","0.81152344","0.24511719","-0.06640625","15.0625","14.375","8.03125"
"1542027133823","8","1.2285156","0.24121094","0.018554688","34.28125","7.8125","35.09375"
"1542027133823","9","1.25","0.171875","0.1484375","3.03125","-1.1875","39.0625"
"1542027134018","10","1.15625","0.24511719","0.05078125","-40.53125","5.40625","14.625"
"1542027134019","11","1.0302734","0.3515625","-0.021484375","-19.78125","14.4375","1.875"
"1542027134020","12","0.8535156","0.25878906","-0.02734375","31.59375","14.875","7.375"
"1542027134021","13","0.7949219","0.13378906","-0.038085938","27.21875","8.59375","9.5625"
"1542027134021","14","0.81640625","0.18359375","-0.018554688","6.28125","-0.5","10.1875"
"1542027134217","15","0.8300781","0.18652344","0.0087890625","-7.59375","-10.5625","5.90625"
"1542027134218","16","0.8095703","0.2109375","0.030273438","-29.125","-18.8125","-5.75"
"1542027134218","17","0.7109375","0.22265625","0.021484375","-40.0625","-21.375","-18.15625"
"1542027134417","18","0.77734375","0.26367188","0.020507812","-32.4375","-18.09375","-20.65625"
"1542027134619","19","0.86328125","0.265625","0.040039062","-23.34375","-17.59375","-16.1875"
"1542027134619","20","0.7392578","0.3125","0.018554688","-19.65625","-14.78125","-19.5"
"1542027134620","21","0.7861328","0.30664062","-0.052734375","9.75","-9.34375","-17.59375"
"1542027134620","22","1.0322266","0.21484375","-0.12207031","25.625","-7.46875","-16.3125"
"1542027134620","23","1.953125","0.32226562","0.125","22.1875","-2.625","-5.8125"
"1542027134620","24","1.4384766","0.45898438","-0.24316406","20.0","3.09375","-52.8125"
"1542027134621","25","1.7050781","0.3408203","-0.29589844","56.75","21.21875","-85.34375"
"1542027134621","26","1.1601562","0.11328125","0.001953125","15.78125","-19.53125","-75.40625"
"1542027134623","27","0.85253906","0.24511719","-0.12890625","-85.90625","-40.25","-72.9375"
"1542027134814","28","0.2109375","0.047851562","-0.15039062","0.78125","22.03125","-16.6875"
"1542027134814","29","0.29882812","0.11328125","-0.13378906","17.0625","29.78125","9.03125"
"1542027134815","30","0.43066406","0.123046875","-0.09277344","18.34375","31.0","33.625"
"1542027134815","31","0.6064453","0.18847656","-0.078125","13.15625","33.8125","50.59375"
"1542027134815","32","0.92578125","0.3095703","-0.040039062","29.40625","42.96875","63.15625"
"1542027135015","33","1.9169922","0.3203125","0.17773438","63.21875","34.65625","81.03125"
"1542027135015","34","2.0","0.125","0.42578125","19.875","16.53125","69.375"
"1542027135016","35","2.0","0.2265625","0.33007812","-61.65625","-4.40625","64.875"
"1542027135016","36","1.5859375","0.28125","0.10644531","-107.25","12.3125","44.34375"
"1542027135017","37","0.9482422","0.53515625","-0.26660156","-64.65625","27.15625","39.34375"
"1542027135212","38","0.28710938","0.3125","-0.24121094","38.875","16.40625","35.8125"
"1542027135213","39","0.15527344","0.0703125","-0.01953125","31.28125","0.28125","32.21875"
"1542027135213","40","0.24414062","0.1484375","0.016601562","-11.375","-23.09375","34.03125"
"1542027135213","41","0.375","0.25390625","0.038085938","-28.875","-37.75","19.40625"
"1542027135213","42","0.56152344","0.23730469","-0.06347656","-27.96875","-39.75","-12.53125"
"1542027135410","43","0.8876953","0.28027344","-0.08203125","-28.65625","-41.03125","-37.78125"
"1542027135410","44","1.4472656","0.4189453","-0.0068359375","-26.25","-38.59375","-46.03125"
"1542027135410","45","1.9892578","0.3828125","0.17773438","3.84375","-36.5","-49.21875"
"1542027135412","46","2.0","0.32714844","0.061523438","9.3125","-15.21875","-59.46875"
"1542027135413","47","1.3193359","0.13378906","-0.54785156","20.625","23.90625","-76.5"
"1542027135808","48","0.5419922","-0.009765625","-0.27734375","9.8125","21.03125","-73.875"
"1542027135809","49","0.390625","0.024414062","-0.07421875","-39.625","4.75","-38.34375"
"1542027135810","50","0.22753906","0.15234375","-0.15429688","-51.46875","-9.59375","-7.15625"
"1542027135810","51","0.16601562","0.22558594","-0.2626953","-15.9375","5.0625","-1.3125"
"1542027135811","52","0.35351562","0.30371094","-0.25683594","46.5625","30.9375","11.9375"
"1542027135811","53","0.47265625","0.26367188","-0.11425781","91.53125","36.4375","24.21875"
"1542027135811","54","0.78515625","0.24511719","-0.0107421875","103.9375","41.5","26.0"
"1542027135812","55","2.0","0.37890625","0.27734375","131.8125","30.375","52.59375"
"1542027135812","56","2.0","-0.0078125","0.62890625","60.59375","-24.5625","39.90625"
"1542027136007","57","1.4375","-0.043945312","0.3251953","-109.6875","-34.5","-17.40625"
"1542027136008","58","1.4550781","0.24316406","0.025390625","-121.21875","17.0","-20.21875"
"1542027136008","59","0.8154297","0.359375","-0.17089844","-21.0","31.65625","32.9375"
"1542027136008","60","0.22753906","0.10644531","-0.19140625","18.78125","23.65625","52.34375"
"1542027136010","61","0.26660156","0.025390625","-0.029296875","8.84375","13.71875","56.4375"
"1542027136011","62","0.40625","0.107421875","0.022460938","-5.6875","-8.125","59.875"
"1542027136204","63","0.5253906","0.13964844","0.038085938","-38.28125","-31.6875","47.53125"
"1542027136205","64","0.4560547","0.111328125","0.07519531","-87.0","-38.15625","8.03125"
"1542027136205","65","0.61621094","0.14648438","-0.07421875","-92.90625","-35.15625","-27.65625"
"1542027136206","66","1.5576172","0.22460938","0.26953125","-71.5","-14.90625","-15.8125"
"1542027136206","67","2.0","0.37890625","0.390625","-38.03125","-14.3125","27.9375"
"1542027136406","68","1.6269531","0.12011719","-0.47851562","-23.03125","38.1875","18.40625"
"1542027136407","69","1.5957031","0.15625","-0.578125","28.71875","83.96875","-2.9375"
"1542027136407","70","0.6816406","-0.18554688","-0.18847656","7.125","35.03125","-5.6875"
"1542027136407","71","0.16992188","0.026367188","-0.34570312","-90.78125","2.59375","-1.46875"
"1542027136605","72","0.15429688","0.26953125","-0.484375","-41.53125","-6.375","7.5"
"1542027136802","73","0.083984375","0.25","-0.43066406","15.4375","-11.4375","12.625"
"1542027136802","74","0.28515625","0.20996094","-0.2548828","29.09375","-14.46875","12.0625"
"1542027136802","75","0.5878906","0.29003906","-0.14648438","34.78125","-16.1875","13.71875"
"1542027136803","76","2.0","0.47460938","0.2607422","85.6875","-0.6875","35.03125"
"1542027136804","77","2.0","-0.2548828","0.7636719","65.71875","-56.65625","-2.15625"
"1542027136806","78","1.7636719","-0.4140625","0.40039062","-66.90625","-28.75","-63.8125"
"1542027136806","79","1.7353516","0.18945312","0.13769531","-82.96875","14.9375","-54.46875"
"1542027136806","80","0.89453125","0.12207031","-0.083984375","8.84375","24.75","1.09375"
"1542027136807","81","0.2529297","-0.047851562","-0.31054688","25.9375","22.1875","18.71875"
"1542027137002","82","0.22949219","0.029296875","-0.26367188","13.15625","11.28125","22.625"
"1542027137002","83","0.23828125","0.049804688","-0.1015625","12.5625","-8.8125","18.34375"
"1542027137002","84","0.3779297","-0.0068359375","-0.056640625","1.09375","-24.1875","-2.46875"
"1542027137003","85","0.4873047","0.016601562","-0.056640625","-33.9375","-34.3125","-29.0"
"1542027137003","86","0.86328125","0.00390625","-0.022460938","-40.78125","-35.78125","-39.125"
"1542027137199","87","1.5498047","0.0068359375","0.15722656","-55.3125","-24.4375","-28.15625"
"1542027137199","88","2.0","0.21777344","0.5136719","-63.375","-4.40625","6.9375"
"1542027137199","89","1.6894531","0.3779297","-0.45703125","-3.3125","41.625","54.5"
"1542027137200","90","0.7158203","0.13769531","-0.7236328","61.15625","75.5","25.375"
"1542027137200","91","0.8623047","-0.03515625","0.016601562","37.71875","56.3125","15.5625"
"1542027137400","92","0.56347656","0.018554688","-0.01171875","-89.8125","-9.46875","11.15625"
"1542027137401","93","0.25683594","0.296875","-0.3203125","-122.875","-18.25","-17.65625"
"1542027137402","94","0.296875","0.32910156","-0.41308594","-43.15625","5.96875","-24.75"
"1542027137402","95","0.5078125","0.25585938","-0.18652344","23.90625","14.875","-15.53125"
"1542027137402","96","0.76660156","0.13671875","-0.036132812","29.59375","6.8125","-7.09375"
"1542027137596","97","0.99316406","0.18164062","-0.025390625","9.75","-4.21875","-10.28125"
"1542027137597","98","1.3115234","0.18554688","-0.018554688","-3.4375","-3.875","-29.3125"
"1542027137597","99","2.0","0.109375","0.22460938","-17.71875","0.15625","-44.75"
"1542027137597","100","1.6035156","0.060546875","0.21289062","-40.59375","-24.375","-36.34375"
"1542027137599","101","1.7695312","0.1875","0.076171875","-47.5625","9.3125","-13.6875"
"1542027137794","102","1.2089844","0.24316406","-0.17382812","-20.71875","21.15625","22.4375"
"1542027137795","103","0.5234375","-0.034179688","-0.23046875","-30.09375","8.78125","17.0625"
"1542027137796","104","0.45507812","0.12207031","-0.17578125","-47.75","-1.3125","14.625"
"1542027137796","105","0.6152344","0.09082031","-0.0234375","-34.125","-28.28125","17.0"
"1542027137796","106","0.50878906","0.02734375","0.034179688","-73.4375","-48.84375","1.625"
"1542027137996","107","0.52734375","0.029296875","0.036132812","-109.8125","-53.0625","-24.125"
"1542027137996","108","0.6982422","0.048828125","0.109375","-109.21875","-49.28125","-29.75"
"1542027137997","109","0.8144531","-0.0234375","0.15039062","-101.34375","-44.28125","-11.6875"
"1542027137998","110","1.6376953","0.16992188","0.2685547","-90.59375","-25.28125","25.0"
"1542027137998","111","2.0","0.21191406","0.29003906","-73.5","-1.0","51.0625"
"1542027138193","112","1.6142578","0.26171875","-0.3720703","-53.78125","45.09375","37.34375"
"1542027138193","113","1.5791016","0.08300781","-0.17480469","-29.5","57.46875","25.4375"
"1542027138193","114","1.1064453","-0.046875","-0.11230469","-113.28125","20.125","9.5625"
"1542027138194","115","0.71484375","0.19921875","-0.38867188","-174.09375","1.9375","-3.96875"
"1542027138194","116","0.41601562","0.2529297","-0.33789062","-147.46875","-8.0","-0.5"
"1542027138394","117","0.36816406","0.3203125","-0.25","-103.46875","-8.625","9.8125"
"1542027138394","118","0.74316406","0.31933594","-0.11230469","-50.4375","-7.34375","26.28125"
"1542027138394","119","1.1816406","0.24804688","0.051757812","-64.53125","-6.4375","35.6875"
"1542027138394","120","1.3095703","0.3642578","-0.055664062","-95.71875","4.0625","31.1875"
"1542027138396","121","1.8046875","0.6191406","-0.051757812","-24.78125","12.4375","47.78125"
"1542027138589","122","0.7783203","0.25390625","-0.17675781","72.96875","20.75","14.15625"
"1542027138788","123","0.890625","-0.12011719","-0.22070312","60.65625","22.09375","-36.09375"
"1542027138789","124","1.3310547","0.13964844","0.01171875","23.65625","0.65625","-34.5"
"1542027138789","125","1.0751953","-0.022460938","0.140625","30.75","-27.84375","-30.34375"
"1542027138789","126","0.97558594","-0.16503906","-0.032226562","3.46875","-24.5625","-35.71875"
"1542027138792","127","0.7451172","-0.087890625","0.013671875","-28.34375","-18.21875","-38.65625"
"1542027138792","128","0.671875","-0.103515625","0.07519531","-13.875","-17.21875","-28.40625"
"1542027138792","129","0.6142578","-0.19726562","0.0703125","-17.40625","-19.4375","-22.90625"
"1542027138793","130","0.67578125","-0.16015625","0.07519531","-47.25","-22.96875","-16.6875"
"1542027138793","131","0.5029297","-0.13085938","0.024414062","-67.28125","-33.875","-13.5625"
"1542027138988","132","0.42285156","-0.171875","-0.018554688","-106.8125","-45.5","-20.03125"
"1542027138990","133","0.5800781","-0.05859375","0.030273438","-131.59375","-52.3125","-9.90625"
"1542027138990","134","1.7753906","0.31054688","0.30859375","-115.4375","-27.3125","27.5"
"1542027139185","135","2.0","0.5595703","0.23535156","-83.375","-12.53125","54.71875"
"1542027139188","136","1.6748047","0.640625","-0.6435547","27.6875","75.59375","23.3125"
"1542027139189","137","1.1533203","0.083984375","-0.10546875","127.4375","66.5","12.625"
"1542027139189","138","0.98339844","-0.11035156","-0.13574219","-34.8125","20.625","3.59375"
"1542027139189","139","0.8017578","0.29589844","-0.34375","-93.34375","-7.8125","7.0"
"1542027139189","140","0.29492188","0.18359375","-0.40234375","-65.3125","-6.53125","-19.125"
"1542027139387","141","0.17578125","0.2421875","-0.32910156","-32.375","2.4375","-35.90625"
"1542027139388","142","0.41210938","0.2529297","-0.25097656","5.40625","-1.1875","-22.65625"
"1542027139388","143","0.5732422","0.22949219","-0.14355469","36.71875","-2.8125","4.4375"
"1542027139389","144","1.0576172","0.23339844","-0.083984375","40.21875","-1.0625","-0.5"
"1542027139390","145","1.3476562","0.115234375","0.0068359375","43.0","0.40625","-25.46875"
"1542027139390","146","2.0","-0.060546875","0.39648438","13.09375","-3.1875","-33.53125"
"1542027139583","147","2.0","-0.02734375","0.4794922","-15.46875","-32.5","0.65625"
"1542027139584","148","1.3769531","-0.060546875","0.26660156","-43.09375","1.15625","-2.34375"
"1542027139584","149","1.1103516","0.107421875","-0.0546875","-43.59375","23.96875","9.25"
"1542027139584","150","0.38183594","0.051757812","-0.11230469","-28.46875","14.6875","24.46875"
"1542027139585","151","0.15234375","0.06738281","-0.15917969","-20.84375","6.5","31.90625"
"1542027139783","152","0.23144531","0.048828125","-0.07324219","-18.15625","-9.90625","33.4375"
"1542027139983","153","0.35253906","0.068359375","0.051757812","-60.125","-27.46875","18.40625"
"1542027139984","154","0.5361328","0.13476562","0.005859375","-84.65625","-33.875","-2.875"
"1542027139984","155","1.1083984","0.2529297","0.16601562","-74.0625","-19.3125","-9.90625"
"1542027139985","156","2.0","0.31054688","0.31347656","-36.8125","-1.25","3.53125"
"1542027139987","157","2.0","0.23632812","0.0078125","-27.84375","24.71875","5.34375"
"1542027139987","158","1.2275391","0.23632812","-0.56347656","28.625","70.40625","-1.0"
"1542027139988","159","1.2724609","-0.083984375","-0.140625","38.625","64.0","8.21875"
"1542027139988","160","0.9423828","-0.14257812","-0.049804688","-115.25","2.78125","1.09375"
"1542027139988","161","0.51953125","0.13671875","-0.26953125","-162.3125","-13.8125","-21.375"
"1542027140180","162","0.390625","0.2607422","-0.29492188","-127.46875","-4.09375","-29.3125"
"1542027140180","163","0.3408203","0.21386719","-0.12402344","-72.71875","0.59375","-20.59375"
"1542027140181","164","0.359375","0.15917969","-0.029296875","-36.9375","4.375","-6.0625"
"1542027140181","165","0.62402344","0.17675781","0.043945312","-36.46875","5.53125","8.71875"
"1542027140182","166","0.7919922","0.24902344","0.025390625","-55.9375","9.3125","15.3125"
"1542027140378","167","1.7451172","0.43066406","0.1484375","-29.9375","10.40625","16.90625"
"1542027140379","168","2.0","0.27441406","0.48242188","-10.15625","-14.53125","-11.78125"
"1542027140384","169","1.8417969","0.15722656","0.12402344","-22.90625","-16.4375","-69.84375"
"1542027140384","170","1.8916016","-0.13378906","-0.27441406","21.90625","13.15625","-91.875"
"1542027140385","171","1.0126953","-0.10058594","-0.13378906","-28.59375","-4.09375","-55.6875"
"1542027140580","172","0.36035156","-0.05078125","-0.2578125","-77.40625","-21.0","-35.78125"
"1542027140581","173","0.40722656","0.026367188","-0.19433594","-19.3125","-21.4375","-13.1875"
"1542027140581","174","0.63183594","-0.052734375","0.03125","-11.84375","-35.34375","2.25"
"1542027140581","175","0.765625","-0.14257812","0.1328125","-66.84375","-53.46875","-4.84375"
"1542027140581","176","1.0283203","-0.10546875","0.27734375","-109.5625","-67.9375","-16.125"
"1542027140777","177","1.0556641","-0.068359375","0.2578125","-132.34375","-77.84375","-18.6875"
"1542027140777","178","1.3837891","-0.0390625","0.3876953","-162.5","-73.25","-7.53125"
"1542027140777","179","1.1103516","0.22363281","-0.03125","-161.5","-33.34375","0.65625"
"1542027140777","180","1.6191406","0.37597656","0.07324219","-65.5","-4.21875","57.40625"
"1542027140778","181","1.2724609","0.22949219","0.1875","-89.1875","-1.0625","81.71875"
"1542027140975","182","0.8642578","0.44140625","-0.107421875","-137.34375","-0.25","52.15625"
"1542027140976","183","0.45703125","0.43164062","-0.1484375","-91.4375","4.5","32.40625"
"1542027140976","184","0.35058594","0.29785156","-0.20703125","-69.65625","2.90625","21.03125"
"1542027140977","185","0.39160156","0.36914062","-0.15039062","-76.1875","0.78125","14.375"
"1542027140977","186","0.6269531","0.4658203","-0.16503906","-42.375","2.0625","17.1875"
"1542027141175","187","0.66796875","0.4111328","-0.19628906","-41.21875","5.59375","4.6875"
"1542027141176","188","0.6894531","0.4609375","-0.1953125","-52.5625","6.5","-14.0625"
"1542027141176","189","0.7685547","0.55371094","-0.24121094","11.40625","13.96875","-15.59375"
"1542027141176","190","1.6542969","0.29882812","-0.0068359375","119.3125","19.625","2.1875"
"1542027141176","191","2.0","-0.10839844","0.44628906","94.09375","-7.21875","3.09375"
"1542027141372","192","1.4892578","-0.265625","0.31640625","-21.875","-37.6875","-32.0625"
"1542027141373","193","1.4042969","0.07324219","-0.009765625","-35.34375","-1.25","-48.0"
"1542027141373","194","0.828125","0.043945312","-0.11425781","46.375","9.125","-6.5"
"1542027141374","195","0.40722656","-0.115234375","-0.07910156","42.59375","-7.46875","16.65625"
"1542027141374","196","0.21972656","-0.09082031","-0.02734375","0.03125","-24.0625","14.8125"
"1542027141570","197","0.21972656","-0.053710938","0.038085938","-12.59375","-33.34375","5.78125"
"1542027141570","198","0.3955078","-0.10644531","0.076171875","-33.40625","-40.0625","-9.65625"
"1542027141571","199","0.60839844","-0.109375","0.060546875","-67.03125","-45.125","-27.46875"
"1542027141571","200","1.0664062","0.028320312","0.06738281","-84.3125","-41.6875","-27.40625"
"1542027141572","201","2.0","0.32714844","0.2685547","-85.34375","-21.125","-3.125"
"1542027141769","202","2.0","0.5751953","0.25390625","-70.375","7.75","51.5625"
"1542027141770","203","0.88964844","0.49804688","-1.0996094","78.59375","75.25","46.75"
"1542027141770","204","0.7861328","0.21386719","-0.21191406","138.71875","82.75","47.21875"
"1542027141771","205","0.7265625","-0.17773438","-0.047851562","-34.4375","-3.125","53.03125"
"1542027141772","206","0.31933594","0.31640625","-0.36035156","-162.78125","-30.15625","7.25"
"1542027141971","207","0.14160156","0.55371094","-0.5576172","-74.84375","-5.3125","-20.84375"
"1542027141971","208","0.28320312","0.4638672","-0.25390625","56.5625","12.625","-7.59375"
"1542027141972","209","0.5078125","0.26660156","-0.14941406","112.46875","3.40625","3.90625"
"1542027141972","210","0.89746094","0.22753906","-0.030273438","79.21875","1.375","2.0625"
"1542027141972","211","2.0","0.32617188","0.48046875","82.5","1.75","-3.0"
"1542027142170","212","2.0","-0.23144531","0.62402344","46.375","-43.28125","-51.09375"
"1542027142170","213","1.8017578","-0.06347656","0.2421875","-17.15625","1.09375","-70.15625"
"1542027142170","214","1.2363281","0.16992188","-0.0126953125","23.71875","26.03125","-19.0"
"1542027142170","215","0.59472656","-0.14550781","-0.10546875","60.53125","23.59375","11.8125"
"1542027142171","216","0.5185547","-0.056640625","-0.16894531","27.6875","11.9375","14.375"
"1542027142365","217","0.2841797","-0.13378906","-0.09472656","12.9375","-9.125","5.53125"
"1542027142366","218","0.25390625","-0.15527344","-0.15722656","-1.96875","-19.4375","-7.59375"
"1542027142367","219","0.4296875","-0.22558594","0.020507812","-44.625","-33.65625","-20.9375"
"1542027142367","220","0.56933594","-0.07714844","0.0126953125","-76.3125","-44.28125","-24.96875"
"1542027142367","221","1.0576172","0.08496094","-0.022460938","-75.34375","-41.34375","-21.125"
"1542027142564","222","1.9375","0.2607422","0.21972656","-84.90625","-20.53125","-10.28125"
"1542027142566","223","2.0","0.3388672","0.17773438","-58.71875","-4.15625","34.34375"
"1542027142566","224","1.4462891","0.5732422","-0.5488281","11.9375","62.78125","59.375"
"1542027142567","225","1.1591797","0.3046875","-0.19628906","87.03125","66.15625","84.875"
"1542027142567","226","0.5625","-0.005859375","-0.2421875","-14.78125","19.5625","65.40625"
"1542027142763","227","0.23730469","0.31347656","-0.3828125","-99.875","3.71875","33.375"
"1542027142764","228","0.2861328","0.46679688","-0.3720703","-31.3125","11.09375","30.5625"
"1542027142965","229","0.42871094","0.4140625","-0.26171875","33.90625","10.71875","30.625"
"1542027142965","230","0.5986328","0.38183594","-0.17871094","55.40625","9.5625","24.53125"
"1542027142966","231","0.8339844","0.3779297","-0.12207031","49.90625","9.03125","10.0625"
"1542027142966","232","1.3798828","0.31445312","0.052734375","86.84375","10.375","-13.25"
"1542027142966","233","2.0","0.038085938","0.66796875","116.5","-11.4375","-21.0625"
"1542027142966","234","1.3525391","-0.4267578","0.47070312","20.5625","-39.5625","-76.625"
"1542027142966","235","1.6738281","-0.14355469","0.10644531","-63.84375","6.09375","-103.59375"
"1542027142968","236","0.8203125","-0.032226562","-0.06933594","6.34375","16.21875","-51.59375"
"1542027143163","237","0.2265625","-0.25195312","-0.119140625","53.34375","10.71875","-17.09375"
"1542027143164","238","0.4375","-0.16699219","-0.091796875","24.71875","-1.125","7.25"
"1542027143164","239","0.41796875","-0.13964844","-0.001953125","-13.8125","-32.71875","11.9375"
"1542027143164","240","0.3876953","-0.099609375","-0.056640625","-52.125","-42.875","-9.96875"
"1542027143164","241","0.63183594","-0.06347656","0.041015625","-77.28125","-43.53125","-33.9375"
"1542027143360","242","1.4658203","0.10253906","0.15429688","-70.21875","-27.90625","-14.65625"
"1542027143361","243","2.0","0.296875","0.4951172","-63.84375","-16.1875","32.03125"
"1542027143361","244","1.5039062","0.6064453","-0.46289062","-28.65625","42.53125","61.6875"
"1542027143361","245","1.1972656","0.3251953","-0.41992188","95.75","77.0","61.5625"
"1542027143361","246","0.86328125","-0.12695312","0.03125","48.03125","30.6875","42.15625"
"1542027143758","247","0.49316406","0.08496094","-0.18261719","-122.34375","-8.4375","7.625"
"1542027143759","248","0.29785156","0.4345703","-0.35839844","-117.03125","-10.6875","-8.25"
"1542027143759","249","0.27734375","0.42578125","-0.35351562","-4.15625","5.28125","5.21875"
"1542027143759","250","0.3857422","0.2763672","-0.24609375","52.46875","7.5","11.8125"
"1542027143759","251","0.62597656","0.23730469","-0.1875","46.375","0.65625","9.8125"
"1542027143760","252","1.2324219","0.31933594","-0.033203125","52.0","1.03125","3.46875"
"1542027143760","253","2.0","0.01953125","0.4326172","58.34375","-14.71875","-24.4375"
"1542027143761","254","2.0","-0.2685547","0.61328125","-18.625","-45.78125","-60.4375"
"1542027143761","255","1.5527344","0.021484375","0.17773438","-43.28125","-7.8125","-60.625"
"1542027143956","256","1.2177734","-0.060546875","-0.038085938","7.375","25.75","-19.90625"
"1542027143957","257","0.64160156","-0.07128906","-0.16992188","21.21875","25.6875","14.5"
"1542027143957","258","0.3623047","-0.07910156","-0.1171875","9.375","7.6875","31.25"
"1542027143957","259","0.3173828","-0.056640625","-0.043945312","-9.78125","-13.625","36.96875"
"1542027143958","260","0.35839844","-0.041992188","0.037109375","-27.25","-25.59375","21.96875"
"1542027143958","261","0.46191406","-0.06738281","0.099609375","-57.375","-32.65625","-4.96875"
"1542027144157","262","0.48242188","-0.10449219","0.048828125","-73.5","-33.28125","-27.46875"
"1542027144157","263","0.9667969","0.017578125","0.09277344","-69.78125","-20.78125","-15.15625"
"1542027144158","264","2.0","0.1640625","0.38183594","-61.0625","-1.53125","30.875"
"1542027144158","265","1.9960938","0.4501953","-0.07128906","-32.25","35.8125","82.125"
"1542027144353","266","1.2392578","0.5644531","-0.86035156","110.59375","99.46875","75.25"
"1542027144354","267","1.1367188","-0.15039062","-0.015625","145.4375","84.09375","42.09375"
"1542027144355","268","0.7128906","-0.28027344","-0.1015625","-82.34375","11.53125","-2.75"
"1542027144355","269","0.36328125","0.16113281","-0.33984375","-178.375","-10.15625","-46.65625"
"1542027144355","270","0.32714844","0.32128906","-0.22460938","-110.96875","4.5","-50.84375"
"1542027144356","271","0.6044922","0.14453125","-0.06933594","-31.6875","8.78125","-32.65625"
"1542027144552","272","0.6748047","0.045898438","-0.036132812","-32.90625","6.40625","-25.28125"
"1542027144751","273","0.8066406","0.12792969","-0.020507812","-53.71875","9.3125","-23.6875"
"1542027144752","274","1.1220703","0.19628906","-0.043945312","-43.03125","16.21875","-24.1875"
"1542027144752","275","2.0","0.16015625","0.35546875","-17.40625","18.21875","-9.53125"
"1542027144753","276","1.7021484","0.09082031","0.38378906","-35.53125","-27.0625","-8.8125"
"1542027144754","277","1.7636719","0.11328125","0.064453125","-24.375","17.6875","-31.375"
"1542027144754","278","1.6943359","0.13574219","-0.0078125","-2.40625","32.40625","-18.25"
"1542027144754","279","0.83203125","-0.038085938","-0.095703125","-23.5625","22.1875","-20.875"
"1542027144756","280","0.4765625","-0.056640625","-0.20019531","-29.0","18.0625","-28.53125"
"1542027144756","281","0.5644531","-0.08886719","-0.08300781","-14.0","3.40625","-14.78125"
"1542027144951","282","0.6308594","-0.20214844","0.07324219","-70.15625","-28.6875","-9.71875"
"1542027145149","283","0.93359375","-0.06640625","0.20117188","-107.8125","-53.90625","-11.0"
"1542027145151","284","1.0761719","-0.14648438","0.3046875","-145.09375","-79.78125","-16.8125"
"1542027145152","285","1.6015625","-0.05859375","0.45410156","-223.03125","-89.75","-19.4375"
"1542027145152","286","0.86621094","0.27929688","0.12890625","-224.375","-70.21875","-16.8125"
"1542027145152","287","1.3691406","0.30664062","-0.049804688","-80.15625","-20.03125","10.84375"
"1542027145153","288","1.3554688","0.01171875","0.16113281","-71.0625","-15.8125","36.25"
"1542027145154","289","0.9404297","0.19238281","-0.05859375","-149.0","-14.65625","20.5"
"1542027145154","290","0.63964844","0.34960938","-0.14746094","-114.03125","-7.59375","26.90625"
"1542027145155","291","0.4609375","0.2421875","-0.14941406","-84.0","-0.5625","30.4375"
"1542027145347","292","0.3955078","0.28710938","-0.20019531","-72.90625","4.9375","24.65625"
"1542027145348","293","0.5332031","0.421875","-0.2529297","-33.03125","11.75","23.25"
"1542027145348","294","0.6894531","0.3486328","-0.2841797","-18.8125","6.5","14.375"
"1542027145348","295","0.7861328","0.4921875","-0.24609375","-55.625","-0.6875","-10.5625"
"1542027145349","296","0.94628906","0.56347656","-0.23828125","-43.78125","-10.5","-15.46875"
"1542027145547","297","0.8730469","0.51660156","-0.20214844","-12.40625","-1.84375","-26.8125"
"1542027145547","298","1.2138672","0.390625","-0.13867188","62.59375","8.59375","-28.9375"
"1542027145547","299","2.0","0.3076172","0.30078125","141.53125","4.125","-2.6875"
"1542027145548","300","1.2705078","-0.44433594","0.51171875","76.78125","-45.5","-50.5625"
"1542027145549","301","1.5917969","-0.3466797","0.17089844","-32.0625","-15.53125","-107.1875"
"1542027145745","302","1.0390625","-0.043945312","0.07128906","-18.03125","-6.125","-51.59375"
"1542027145745","303","0.4658203","-0.24023438","-0.009765625","10.46875","9.125","-12.46875"
"1542027145746","304","0.7050781","-0.125","-0.024414062","12.9375","14.625","23.96875"
"1542027145746","305","0.6064453","-0.14257812","0.07910156","-18.5625","-8.6875","41.5625"
"1542027145747","306","0.46972656","-0.034179688","-9.765625E-4","-61.84375","-15.09375","20.8125"
"1542027145946","307","0.69921875","0.087890625","-0.051757812","-59.21875","-20.71875","4.4375"
"1542027145946","308","0.6503906","-0.029296875","0.022460938","-63.25","-35.40625","-3.375"
"1542027145946","309","1.0527344","0.052734375","0.016601562","-84.96875","-37.3125","-6.53125"
"1542027145947","310","1.4882812","0.21875","0.109375","-103.53125","-32.0","22.03125"
"1542027146143","311","2.0","0.5390625","0.29101562","-93.34375","2.84375","73.84375"
"1542027146144","312","1.3818359","0.62402344","-0.6503906","34.84375","59.875","93.75"
"1542027146145","313","0.8544922","0.24902344","-0.2626953","106.96875","69.75","54.0"
"1542027146146","314","0.9794922","-0.03125","-0.07714844","6.9375","27.15625","22.3125"
"1542027146146","315","0.4970703","0.1953125","-0.26660156","-108.84375","-8.25","-13.75"
"1542027146344","316","0.25390625","0.3486328","-0.44628906","-82.40625","-0.25","-34.1875"
"1542027146344","317","0.33691406","0.37402344","-0.359375","22.5","9.6875","-20.84375"
"1542027146344","318","0.4921875","0.12792969","-0.19726562","75.53125","5.0625","-7.15625"
"1542027146345","319","0.9951172","0.09375","-0.005859375","42.40625","-4.78125","-8.0"
"1542027146345","320","1.5361328","0.049804688","0.15625","18.0625","-13.1875","-28.65625"
"1542027146541","321","1.9052734","-0.076171875","0.30664062","-6.375","-17.71875","-49.03125"
"1542027146542","322","1.7099609","-0.12695312","0.37109375","-49.15625","-29.0625","-46.9375"
"1542027146542","323","1.3603516","-0.018554688","0.16699219","-65.3125","-1.96875","-50.0625"
"1542027146543","324","1.1611328","0.059570312","-0.091796875","-38.78125","13.0","-26.9375"
"1542027146544","325","0.5097656","-0.056640625","-0.19726562","-28.9375","9.4375","-2.21875"
"1542027146739","326","0.4111328","0.029296875","-0.1328125","-44.5","0.96875","15.84375"
"1542027146739","327","0.56347656","0.018554688","-0.005859375","-43.53125","-21.0625","26.53125"
"1542027146739","328","0.49121094","-0.00390625","0.06640625","-77.78125","-34.1875","13.40625"
"1542027146746","329","0.6689453","0.056640625","0.059570312","-93.03125","-34.25","-3.25"
"1542027146746","330","0.96484375","-0.0390625","0.15625","-88.53125","-31.21875","-8.25"
"1542027146940","331","2.0","0.111328125","0.48339844","-122.15625","-27.40625","16.15625"
"1542027146940","332","1.8535156","0.41796875","0.017578125","-88.21875","-0.8125","57.78125"
"1542027146941","333","1.7304688","0.34960938","-0.45214844","13.71875","63.71875","60.15625"
"1542027146941","334","1.3955078","-0.08203125","-0.06542969","25.6875","48.03125","34.78125"
"1542027146941","335","0.92089844","-0.08203125","-0.296875","-102.5625","5.71875","0.21875"
"1542027147137","336","0.5","0.087890625","-0.3486328","-164.5","-17.71875","-17.03125"
"1542027147138","337","0.32226562","0.18261719","-0.24609375","-147.53125","-21.4375","-17.46875"
"1542027147138","338","0.4404297","0.2607422","-0.1796875","-84.84375","-19.78125","-5.15625"
"1542027147138","339","0.7949219","0.20605469","-0.08886719","-53.96875","-15.28125","8.90625"
"1542027147140","340","1.1699219","0.18359375","0.036132812","-80.9375","-13.375","12.25"
"1542027147334","341","1.4775391","0.35839844","-0.0390625","-120.0625","3.15625","2.71875"
"1542027147334","342","1.2529297","0.43164062","-0.036132812","-53.25","2.90625","7.90625"
"1542027147336","343","0.73828125","0.22949219","-0.265625","32.09375","29.90625","-25.15625"
"1542027147336","344","1.3212891","0.19335938","-0.17773438","59.6875","28.625","-14.25"
"1542027147336","345","1.5585938","0.01171875","0.19042969","5.84375","-7.21875","-5.5"
"1542027147536","346","1.1904297","0.06933594","0.0029296875","-58.71875","-17.46875","-40.46875"
"1542027147536","347","0.8613281","0.1640625","-0.22265625","-31.375","0.28125","-49.21875"
"1542027147536","348","0.64160156","0.056640625","-0.08496094","10.84375","7.375","-31.375"
"1542027147537","349","0.5810547","-0.078125","-0.0390625","7.96875","-1.53125","-18.4375"
"1542027147538","350","0.8076172","-0.08203125","0.018554688","-14.40625","-15.03125","-9.34375"
"1542027147732","351","1.0439453","-0.08886719","0.16796875","-47.0","-31.4375","-5.875"
"1542027147733","352","1.0556641","-0.08203125","0.19042969","-84.71875","-43.84375","-14.78125"
"1542027147733","353","1.1601562","-0.0234375","0.15039062","-109.21875","-41.53125","-20.21875"
"1542027147734","354","1.0214844","0.095703125","0.095703125","-109.625","-34.3125","-3.3125"
"1542027147734","355","1.0136719","0.21777344","-0.17871094","-47.4375","1.375","12.0625"
"1542027147932","356","1.5332031","0.2705078","-0.072265625","9.375","17.375","54.0625"
"1542027147934","357","1.1914062","0.06347656","-0.044921875","-64.15625","1.9375","45.75"
"1542027147934","358","0.7138672","0.40039062","-0.2421875","-112.25","-1.0625","14.875"
"1542027147934","359","0.4609375","0.34277344","-0.25195312","-58.3125","-4.15625","13.71875"
"1542027147934","360","0.34472656","0.2919922","-0.2705078","-52.9375","-6.1875","14.15625"
"1542027148129","361","0.32714844","0.41210938","-0.28515625","-29.0625","-3.3125","16.9375"
"1542027148130","362","0.49023438","0.3701172","-0.28710938","3.9375","-3.375","22.25"
"1542027148130","363","0.53027344","0.31445312","-0.20214844","2.1875","-4.84375","9.9375"
"1542027148131","364","1.0566406","0.37109375","-0.109375","22.8125","2.96875","-3.90625"
"1542027148131","365","1.9462891","0.13476562","0.16894531","66.09375","-2.15625","-5.75"
"1542027148328","366","2.0","-0.21191406","0.44140625","19.8125","-21.625","-25.90625"
"1542027148329","367","1.5527344","-0.140625","0.2421875","-26.0625","-22.65625","-36.875"
"1542027148330","368","1.0693359","-0.1484375","0.020507812","-0.4375","8.65625","-32.71875"
"1542027148330","369","0.9189453","-0.12695312","-0.046875","-10.5","13.09375","0.03125"
"1542027148330","370","0.46289062","-0.034179688","-0.1328125","-19.84375","-3.5","28.3125"
"1542027148529","371","0.23339844","-0.0087890625","-0.111328125","-5.4375","-10.09375","32.5625"
"1542027148728","372","0.43066406","-0.109375","0.029296875","-33.03125","-27.53125","18.1875"
"1542027148728","373","0.45996094","-0.001953125","-0.0068359375","-85.78125","-42.25","-9.90625"
"1542027148729","374","0.75097656","0.10839844","-0.022460938","-91.6875","-39.25","-26.6875"
"1542027148729","375","1.7070312","0.30664062","0.24902344","-79.25","-13.8125","-4.53125"
"1542027148729","376","2.0","0.5175781","0.099609375","-32.65625","14.21875","50.8125"
"1542027148730","377","1.2089844","0.5058594","-0.9736328","74.8125","87.21875","44.65625"
"1542027148730","378","1.0996094","0.19238281","-0.27148438","170.34375","88.5","24.21875"
"1542027148730","379","0.83691406","-0.29101562","-0.24316406","2.71875","8.90625","15.1875"
"1542027148731","380","0.5","0.19042969","-0.4560547","-128.25","-19.90625","-14.46875"
"1542027149322","381","0.22363281","0.5410156","-0.4658203","-54.75","-3.875","-24.6875"
"1542027149323","382","0.3076172","0.34960938","-0.2998047","71.875","7.5625","-11.90625"
"1542027149323","383","0.5292969","0.16015625","-0.18066406","83.0625","1.6875","-9.34375"
"1542027149323","384","0.69433594","0.2763672","-0.10546875","65.28125","-6.0625","-10.34375"
"1542027149324","385","1.3984375","0.34570312","0.059570312","92.03125","3.46875","-10.75"
"1542027149324","386","2.0","0.044921875","0.4091797","86.03125","-19.78125","-35.0625"
"1542027149325","387","1.8085938","-0.08886719","0.5","-13.5","-43.90625","-62.5"
"1542027149325","388","1.5566406","0.08984375","0.21777344","-54.9375","-11.375","-83.875"
"1542027149326","389","1.3964844","0.08203125","0.12109375","-4.34375","9.1875","-46.09375"
"1542027149521","390","0.8623047","0.17578125","-0.026367188","-34.125","-29.25","-24.96875"
"1542027149521","391","1.1845703","0.24121094","-0.07128906","-41.875","-27.125","-14.90625"
"1542027149521","392","1.6513672","0.34570312","0.041015625","-34.125","-3.6875","-6.4375"
"1542027149522","393","1.8378906","0.4013672","-0.12207031","-8.3125","14.3125","23.375"
"1542027149522","394","1.1074219","0.37890625","-0.5048828","42.34375","44.46875","28.5"
"1542027149722","395","0.8496094","0.22070312","-0.23144531","59.375","35.5625","38.5625"
"1542027149722","396","0.6376953","0.07519531","-0.21582031","-26.125","-1.96875","30.75"
"1542027149722","397","0.40625","0.4326172","-0.26367188","-66.46875","-2.28125","12.9375"
"1542027149723","398","0.45703125","0.5566406","-0.25976562","21.65625","17.5","19.53125"
"1542027149723","399","0.47070312","0.37402344","-0.31054688","87.5","23.3125","19.40625"
"1542027149918","400","0.55078125","0.359375","-0.19921875","67.5","15.84375","11.03125"
"1542027149919","401","0.9873047","0.3857422","-0.0703125","76.21875","10.59375","1.15625"
"1542027149920","402","1.6142578","0.3408203","0.33496094","81.03125","7.375","-23.9375"
"1542027149920","403","1.9980469","0.07128906","0.3720703","58.21875","-39.6875","-33.34375"
"1542027149920","404","1.5126953","-0.040039062","0.3408203","-39.125","-23.6875","-92.90625"
"1542027150119","405","1.4433594","0.17480469","0.13671875","-37.3125","-2.53125","-79.4375"
"1542027150119","406","0.9628906","0.08984375","-0.038085938","26.90625","20.90625","-28.875"
"1542027150119","407","0.5644531","0.034179688","-0.13183594","49.96875","21.71875","10.59375"
"1542027150119","408","0.5957031","-0.0078125","-0.11230469","30.4375","12.5","30.8125"
"1542027150120","409","0.6123047","0.0234375","-0.05078125","-10.625","-11.0625","26.28125"
"1542027150316","410","0.6308594","0.13964844","-0.07519531","-43.34375","-25.21875","-0.25"
"1542027150317","411","0.79003906","0.1328125","-0.01171875","-44.5625","-37.3125","-14.71875"
"1542027150317","412","0.7402344","0.171875","-0.0703125","-56.71875","-47.0625","-22.40625"
"1542027150317","413","1.0556641","0.2548828","-0.025390625","-64.28125","-45.0","-15.46875"
"1542027150318","414","2.0","0.47265625","0.23925781","-67.53125","-20.53125","18.40625"
"1542027150517","415","1.3740234","0.5966797","-0.026367188","-89.5","9.3125","51.0"
"1542027150518","416","1.1962891","0.6777344","-0.38671875","36.96875","54.25","34.28125"
"1542027150518","417","0.9873047","0.28125","-0.12792969","93.625","46.3125","34.15625"
"1542027150518","418","0.6455078","0.04296875","-0.20996094","-40.46875","10.0","3.71875"
"1542027150518","419","0.4296875","0.41308594","-0.30078125","-79.375","2.96875","-8.4375"
"1542027150716","420","0.3798828","0.4248047","-0.29785156","7.25","13.40625","5.90625"
"1542027150717","421","0.5214844","0.28125","-0.2841797","45.28125","17.3125","11.8125"
"1542027150717","422","0.71484375","0.29003906","-0.20800781","34.78125","15.71875","15.3125"
"1542027150717","423","0.90722656","0.31640625","-0.1640625","39.40625","10.59375","16.28125"
"1542027150717","424","1.0488281","0.30273438","-0.14355469","52.15625","9.5","-6.1875"
"1542027150912","425","1.3378906","0.2109375","0.0234375","59.125","4.375","-25.46875"
"1542027150912","426","2.0","0.047851562","0.41210938","14.9375","-36.46875","-9.46875"
"1542027150912","427","1.2792969","0.06738281","0.33398438","-81.8125","-36.21875","-49.8125"
"1542027150913","428","1.4238281","0.24023438","0.01953125","-57.4375","1.5","-49.875"
"1542027150914","429","0.80371094","0.095703125","-0.08691406","10.71875","20.4375","-7.15625"
"1542027151113","430","0.42773438","-0.03125","-0.10253906","-1.84375","18.90625","17.6875"
"1542027151113","431","0.6064453","0.109375","-0.15625","0.40625","5.21875","42.59375"
"1542027151114","432","0.5185547","-0.0390625","-0.0087890625","-17.59375","-21.5625","41.71875"
"1542027151115","433","0.5761719","0.037109375","0.0107421875","-89.4375","-37.84375","6.34375"
"1542027151116","434","0.67089844","0.1171875","-0.02734375","-102.875","-47.8125","-23.8125"
"1542027151310","435","1.1181641","0.13769531","0.12207031","-89.90625","-42.5625","-20.28125"
"1542027151311","436","1.7246094","0.28710938","0.14746094","-89.75","-26.0625","18.28125"
"1542027151311","437","1.8447266","0.5527344","0.0146484375","-77.53125","16.90625","75.53125"
"1542027151311","438","1.3652344","0.53222656","-0.5732422","51.125","70.53125","87.375"
"1542027151311","439","1.1904297","0.16210938","-0.10058594","95.25","64.4375","65.59375"
"1542027151511","440","0.7939453","-0.08886719","-0.16113281","-79.96875","11.65625","16.90625"
"1542027151511","441","0.42285156","0.2841797","-0.2939453","-152.0625","-4.65625","-24.90625"
"1542027151512","442","0.33691406","0.39648438","-0.26367188","-64.03125","7.75","-23.5625"
"1542027151512","443","0.48046875","0.2109375","-0.14160156","12.25","18.28125","-11.25"
"1542027151512","444","0.69921875","0.12695312","-0.057617188","1.875","18.71875","-9.96875"
"1542027151707","445","0.90527344","0.18359375","-0.0107421875","-17.84375","13.0","-9.0625"
"1542027151906","446","0.9433594","0.17089844","9.765625E-4","-37.3125","6.40625","-23.09375"
"1542027151906","447","1.4287109","0.16699219","0.15039062","-56.96875","0.71875","-43.46875"
"1542027151907","448","1.8994141","0.11621094","0.421875","-79.25","-11.1875","-50.25"
"1542027151908","449","1.3662109","0.060546875","0.3125","-99.625","-16.1875","-42.96875"
"1542027151908","450","1.4785156","0.20703125","0.123046875","-80.40625","17.8125","-23.09375"
"1542027151908","451","1.3730469","0.15820312","0.11621094","-48.21875","25.4375","19.8125"
"1542027151909","452","0.92871094","0.11230469","-0.017578125","-67.9375","23.1875","18.0"
"1542027151910","453","0.7988281","0.08300781","-0.046875","-69.84375","16.59375","3.90625"
"1542027151910","454","0.734375","0.038085938","0.09082031","-102.8125","-3.375","-4.78125"
"1542027152107","455","0.77441406","0.11035156","0.18457031","-142.53125","-21.1875","-5.21875"
"1542027152107","456","0.8847656","0.234375","0.234375","-138.875","-34.5625","11.28125"
"1542027152108","457","0.8925781","0.21972656","0.21582031","-134.34375","-47.125","26.96875"
"1542027152108","458","1.3261719","0.21875","0.36523438","-162.625","-44.6875","28.71875"
"1542027152108","459","1.2636719","0.4326172","0.20019531","-164.0625","-42.5625","35.03125"
"1542027152303","460","0.69921875","0.44140625","-0.2685547","-43.59375","7.1875","5.21875"
"1542027152304","461","1.4248047","0.10253906","-0.038085938","39.09375","26.15625","-14.0625"
"1542027152304","462","1.0253906","-0.13476562","0.12988281","-73.4375","-12.78125","-30.21875"
"1542027152304","463","0.765625","0.17285156","-0.22753906","-109.875","-16.96875","-31.5625"
"1542027152305","464","0.6904297","0.11230469","-0.13867188","-62.34375","-12.40625","-8.125"
"1542027152504","465","0.55859375","0.12207031","-0.12988281","-61.90625","-6.65625","4.25"
"1542027152505","466","0.5878906","0.265625","-0.20996094","-25.09375","4.5","16.40625"
"1542027152505","467","0.7861328","0.22265625","-0.17382812","5.78125","7.625","27.5"
"1542027152704","468","0.8417969","0.21972656","-0.14160156","-8.0625","1.375","18.0"
"1542027152705","469","0.8808594","0.33007812","-0.18945312","-19.5","-5.5","-2.8125"
"1542027152706","470","0.85839844","0.2705078","-0.13867188","-22.15625","-13.4375","-23.875"
"1542027152706","471","0.78125","0.2939453","-0.12792969","-33.71875","-16.3125","-45.96875"
"1542027152706","472","0.82128906","0.31640625","-0.13867188","5.96875","-8.25","-52.6875"
"1542027152706","473","1.4501953","0.15820312","0.059570312","69.875","-6.84375","-32.5625"
"1542027152706","474","2.0","0.044921875","0.40234375","57.46875","-32.5625","-12.03125"
"1542027152899","475","1.3564453","-0.25097656","0.3466797","-14.0","-58.4375","-43.84375"
"1542027152900","476","1.3476562","-0.16113281","0.017578125","-31.6875","-16.375","-83.34375"
"1542027152900","477","1.0449219","-0.05078125","0.048828125","4.625","-0.875","-37.78125"
"1542027152900","478","0.60058594","-0.11816406","-0.0390625","17.0625","1.75","7.5"
"1542027152901","479","0.49414062","-0.10839844","-0.053710938","19.625","-0.375","26.78125"
"1542027153098","480","0.54003906","-0.111328125","0.049804688","-9.34375","-9.96875","33.3125"
"1542027153100","481","0.6015625","-0.024414062","0.08691406","-56.15625","-25.90625","25.5"
"1542027153100","482","0.64453125","0.09863281","0.0546875","-76.0625","-34.1875","10.25"
"1542027153101","483","0.70410156","0.13769531","0.05078125","-80.8125","-36.46875","3.46875"
"1542027153101","484","0.8623047","0.21289062","-0.015625","-71.25","-35.71875","3.46875"
"1542027153297","485","1.1894531","0.26757812","0.043945312","-63.6875","-28.15625","14.75"
"1542027153297","486","2.0","0.4169922","0.24121094","-71.3125","-0.3125","29.03125"
"1542027153298","487","1.640625","0.5839844","-0.23339844","-25.96875","34.65625","61.5625"
"1542027153299","488","1.1660156","0.4658203","-0.51660156","86.46875","69.5625","48.8125"
"1542027153299","489","1.0380859","0.111328125","-0.19042969","119.3125","56.5","29.90625"
"1542027153498","490","0.6894531","-0.09765625","-0.1953125","-57.8125","3.15625","-10.40625"
"1542027153498","491","0.3857422","0.26757812","-0.359375","-118.65625","-6.4375","-42.0625"
"1542027153499","492","0.35351562","0.37890625","-0.3330078","-19.0625","6.21875","-31.03125"
"1542027153499","493","0.52246094","0.20703125","-0.22265625","57.0625","11.40625","-12.78125"
"1542027153499","494","0.7734375","0.13085938","-0.13964844","53.15625","4.6875","-5.75"
"1542027153695","495","0.86621094","0.17578125","-0.09765625","29.28125","-2.75","-9.65625"
"1542027153893","496","1.0576172","0.16503906","-0.047851562","23.78125","0.21875","-28.46875"
"1542027153894","497","1.3466797","0.043945312","0.064453125","37.28125","-5.21875","-32.5625"
"1542027153895","498","2.0","-0.0234375","0.43652344","4.875","-16.96875","-14.0"
"1542027153895","499","1.3710938","-0.06640625","0.37597656","-77.53125","-43.96875","-24.6875"
"1542027153895","500","1.5019531","0.015625","0.049804688","-83.75","5.84375","-52.3125"
"1542027153895","501","1.0595703","0.09277344","-0.12792969","-21.875","23.59375","-13.875"
"1542027153897","502","0.38671875","-0.1328125","-0.16308594","-16.4375","15.25","9.375"
"1542027153897","503","0.3955078","-0.053710938","-0.15917969","-37.84375","0.28125","26.34375"
"1542027153898","504","0.5078125","-0.06347656","9.765625E-4","-65.1875","-31.75","37.09375"
"1542027154094","505","0.5751953","0.0078125","0.14550781","-118.59375","-50.96875","27.625"
"1542027154094","506","0.796875","0.12597656","0.16992188","-137.15625","-58.1875","12.375"
"1542027154095","507","0.9013672","0.15625","0.14550781","-116.28125","-50.625","3.34375"
"1542027154095","508","1.5654297","0.2265625","0.27734375","-110.5","-28.46875","21.03125"
"1542027154290","509","2.0","0.48632812","0.16308594","-97.0","1.28125","74.6875"
"1542027154291","510","1.5214844","0.58496094","-0.53125","-14.53125","58.03125","84.21875"
"1542027154291","511","1.6660156","0.41503906","-0.25976562","93.75","78.96875","64.75"
"1542027154292","512","1.1240234","-0.021484375","-0.28027344","7.125","37.21875","22.6875"
"1542027154293","513","0.58984375","0.013671875","-0.39160156","-85.21875","6.28125","-25.96875"
"1542027154293","514","0.3671875","0.12988281","-0.25585938","-100.59375","-2.75","-49.5"
"1542027154492","515","0.453125","0.2109375","-0.16601562","-45.71875","-5.15625","-33.65625"
"1542027154493","516","0.75097656","0.037109375","0.026367188","-27.46875","-1.96875","-9.46875"
"1542027154494","517","1.2109375","0.12695312","0.09765625","-71.625","-3.375","6.875"
"1542027154495","518","1.6191406","0.29882812","0.057617188","-105.78125","6.625","5.46875"
"1542027154495","519","1.3017578","0.328125","0.036132812","-75.6875","12.1875","-7.875"
"1542027154689","520","1.1289062","0.16503906","-0.24316406","-26.4375","30.8125","-32.71875"
"1542027154691","521","0.98535156","0.20898438","-0.3095703","-3.75","24.09375","-22.28125"
"1542027154691","522","1.0693359","0.18945312","-0.08691406","34.59375","9.6875","7.0"
"1542027154691","523","1.1269531","-0.0107421875","-0.0107421875","35.09375","-11.5625","9.9375"
"1542027154692","524","0.98046875","0.0068359375","0.0107421875","-45.25","-21.125","-19.78125"
"1542027154888","525","0.8144531","0.13378906","0.02734375","-57.375","-20.28125","-30.21875"
"1542027154888","526","0.765625","0.091796875","0.05859375","-18.03125","-16.75","-15.875"
"1542027154888","527","0.8203125","-0.046875","0.13964844","-26.625","-20.21875","-3.1875"
"1542027154889","528","0.86035156","-0.00390625","0.16308594","-53.375","-21.125","4.1875"
"1542027154890","529","1.0283203","-0.033203125","0.14648438","-58.3125","-28.59375","8.28125"
"1542027155087","530","1.0800781","-0.068359375","0.18847656","-102.8125","-35.96875","-3.75"
"1542027155284","531","1.3408203","0.09277344","0.14941406","-131.90625","-39.125","0.0"
"1542027155285","532","0.91503906","0.2109375","-0.08203125","-97.5","-13.1875","-6.90625"
"1542027155285","533","1.328125","0.099609375","-0.14746094","-21.375","16.21875","-1.34375"
"1542027155286","534","1.0517578","-0.09667969","-0.09082031","-62.5","4.375","1.375"
"1542027155286","535","0.63378906","0.1484375","-0.20605469","-110.84375","-1.90625","1.6875"
"1542027155288","536","0.48828125","0.234375","-0.25097656","-61.0625","0.59375","18.53125"
"1542027155289","537","0.4638672","0.24121094","-0.30273438","-53.375","2.59375","18.40625"
"1542027155289","538","0.29882812","0.42285156","-0.39746094","-41.34375","-5.6875","-0.625"
"1542027155289","539","0.23144531","0.36816406","-0.4453125","-6.90625","-11.78125","-13.3125"
"1542027155684","540","0.33007812","0.33398438","-0.3515625","-6.125","-18.8125","-12.28125"
"1542027155686","541","1.3320312","0.5361328","-0.08496094","34.46875","-2.59375","25.8125"
"1542027155686","542","2.0","0.22167969","0.60546875","43.3125","-26.8125","47.78125"
"1542027155687","543","1.6357422","-0.061523438","0.34375","-11.25","-27.40625","-33.71875"
"1542027155687","544","1.9033203","0.030273438","0.24316406","-4.46875","1.09375","-71.65625"
"1542027155687","545","1.0302734","-0.07421875","0.00390625","-0.1875","9.4375","-54.28125"
"1542027155687","546","0.390625","-0.13183594","-0.25195312","-1.53125","14.21875","-38.96875"
"1542027155688","547","0.4560547","0.024414062","-0.13085938","13.84375","11.03125","-0.5"
"1542027155688","548","0.41503906","-0.040039062","-0.03515625","28.25","-11.375","23.0625"
"1542027155881","549","0.4765625","-0.08691406","-0.026367188","-1.59375","-20.21875","6.03125"
"1542027155881","550","0.5761719","-0.0029296875","-0.005859375","-47.625","-29.96875","-12.34375"
"1542027155881","551","0.5546875","0.068359375","-0.0029296875","-66.0625","-38.28125","-26.5"
"1542027155881","552","1.078125","0.19433594","0.053710938","-61.1875","-33.84375","-18.03125"
"1542027155883","553","2.0","0.33203125","0.3564453","-80.40625","-14.71875","20.25"
"1542027156079","554","1.6425781","0.46972656","-0.19042969","-100.1875","26.0","44.0625"
"1542027156081","555","1.0654297","0.5859375","-0.88671875","36.53125","84.75","28.96875"
"1542027156082","556","1.2539062","0.2626953","-0.11328125","158.375","86.53125","51.0"
"1542027156082","557","0.93066406","-0.17089844","-0.23730469","-44.5625","7.3125","46.5"
"1542027156082","558","0.4873047","0.27539062","-0.53515625","-163.90625","-15.75","-12.71875"
"1542027156278","559","0.25097656","0.48046875","-0.54003906","-73.75","-10.15625","-29.6875"
"1542027156280","560","0.2841797","0.375","-0.34472656","23.4375","-9.53125","-14.0"
"1542027156280","561","0.3876953","0.2578125","-0.24902344","58.625","-14.46875","-5.6875"
"1542027156281","562","0.8105469","0.3251953","-0.10839844","65.15625","-11.5","4.0"
"1542027156281","563","2.0","0.38085938","0.21875","73.46875","-19.90625","15.84375"
"1542027156479","564","2.0","0.060546875","0.5029297","16.90625","-53.125","-28.09375"
"1542027156479","565","1.5273438","0.02734375","0.2685547","-53.25","-33.40625","-89.5"
"1542027156479","566","1.6953125","0.22363281","0.15917969","-37.5","8.09375","-82.40625"
"1542027156480","567","1.0859375","0.103515625","-0.09765625","23.1875","25.625","-18.8125"
"1542027156480","568","0.4423828","-0.033203125","-0.2548828","11.59375","24.71875","12.875"
"1542027156676","569","0.3154297","0.08496094","-0.30371094","15.625","16.65625","29.65625"
"1542027156676","570","0.42285156","0.026367188","-0.140625","32.53125","-4.28125","35.25"
"1542027156677","571","0.6298828","-0.013671875","-0.041992188","4.25","-25.78125","23.65625"
"1542027156677","572","0.6640625","-0.01171875","-0.00390625","-47.5","-46.34375","1.75"
"1542027156677","573","0.5957031","0.061523438","-0.03515625","-82.0","-44.5625","-18.625"
"1542027156874","574","0.82714844","0.22167969","-0.12988281","-53.375","-34.8125","-7.53125"
"1542027156874","575","1.1757812","0.27539062","-0.064453125","-12.09375","-21.5","26.96875"
"1542027156876","576","2.0","0.4169922","0.20800781","-27.46875","12.1875","56.875"
"1542027156877","577","1.2519531","0.5283203","-0.60839844","13.59375","40.375","67.90625"
"1542027156877","578","0.9472656","0.41601562","-0.45507812","93.0","69.5","44.46875"
"1542027157073","579","1.2158203","0.083984375","-0.080078125","76.34375","40.15625","40.8125"
"1542027157074","580","0.5732422","0.11328125","-0.203125","-80.03125","-3.375","4.9375"
"1542027157074","581","0.53125","0.52734375","-0.375","-61.78125","10.40625","-10.625"
"1542027157074","582","0.61035156","0.4375","-0.38085938","54.25","24.9375","8.59375"
"1542027157075","583","0.4638672","0.18652344","-0.24511719","47.28125","18.125","-3.125"
"1542027157275","584","0.6142578","0.39746094","-0.27734375","47.34375","12.0625","-6.59375"
"1542027157276","585","0.90234375","0.3017578","-0.17285156","77.8125","4.6875","-7.71875"
"1542027157277","586","1.4765625","0.25683594","0.1015625","80.6875","-1.53125","-24.84375"
"1542027157277","587","2.0","0.19726562","0.45410156","79.8125","-42.25","-25.53125"
"1542027157277","588","1.0185547","-0.19628906","0.30566406","3.53125","-39.75","-88.75"
"1542027157473","589","1.6171875","-0.095703125","0.140625","-48.28125","-1.0","-118.125"
"1542027157474","590","0.9609375","0.044921875","-0.051757812","12.625","18.0625","-53.65625"
"1542027157474","591","0.4765625","-0.18457031","-0.099609375","46.125","19.34375","-1.40625"
"1542027157474","592","0.56933594","-0.15429688","-0.0625","15.65625","11.15625","31.0"
"1542027157475","593","0.5654297","-0.04296875","-0.047851562","-19.125","-12.46875","43.0625"
"1542027157671","594","0.49414062","0.029296875","-0.045898438","-56.90625","-23.9375","23.90625"
"1542027157672","595","0.73535156","0.1640625","-0.044921875","-55.375","-26.4375","9.25"
"1542027157672","596","1.0273438","0.20507812","-0.033203125","-43.71875","-26.1875","12.1875"
"1542027157672","597","1.6230469","0.2939453","0.10058594","-41.34375","-10.5625","34.03125"
"1542027157673","598","1.7617188","0.421875","-0.033203125","-39.1875","8.40625","71.03125"
"1542027157869","599","1.3046875","0.578125","-0.5283203","42.78125","52.21875","62.375"
"1542027157869","600","1.3759766","0.27441406","-0.06933594","106.5625","55.46875","56.375"
"1542027157870","601","0.9589844","0.028320312","-0.13769531","-24.78125","11.875","26.71875"
"1542027157870","602","0.55566406","0.27929688","-0.34765625","-81.25","-1.125","-17.59375"
"1542027157871","603","0.421875","0.30859375","-0.31835938","-21.3125","6.875","-24.90625"
"1542027158067","604","0.43066406","0.21679688","-0.25683594","23.1875","6.46875","-14.71875"
"1542027158068","605","0.5996094","0.19628906","-0.18261719","28.71875","6.5625","-6.90625"
"1542027158069","606","0.828125","0.23925781","-0.16210938","9.5","2.125","-2.09375"
"1542027158069","607","0.6816406","0.296875","-0.16113281","5.78125","6.03125","-20.40625"
"1542027158069","608","1.0224609","0.38671875","-0.18066406","65.71875","14.625","-21.9375"
"1542027158268","609","1.3818359","0.12109375","0.03515625","81.40625","3.53125","-25.03125"
"1542027158269","610","2.0","0.15820312","0.20605469","47.03125","-13.0625","-26.375"
"1542027158269","611","1.3564453","0.03515625","0.22753906","13.09375","-26.875","-45.0"
"1542027158269","612","1.7753906","-0.013671875","0.23046875","-23.21875","-15.875","-55.4375"
"1542027158270","613","1.0703125","0.08496094","0.0","-40.84375","-1.1875","-35.90625"
"1542027158464","614","0.6855469","0.09277344","-0.11621094","-18.09375","15.78125","-7.71875"
"1542027158465","615","0.51953125","0.14941406","-0.14257812","29.71875","19.8125","29.90625"
"1542027158466","616","0.49609375","0.0029296875","-0.060546875","20.6875","5.0625","42.28125"
"1542027158466","617","0.4453125","0.0146484375","-0.0390625","-31.5","-12.90625","24.34375"
"1542027158467","618","0.5761719","0.09863281","0.001953125","-60.375","-22.84375","4.0"
"1542027158664","619","0.7832031","0.099609375","0.07128906","-65.625","-31.4375","-6.53125"
"1542027158664","620","1.03125","0.11816406","0.07714844","-70.875","-27.65625","-4.15625"
"1542027158664","621","1.3662109","0.22167969","0.125","-60.625","-17.28125","17.5625"
"1542027158665","622","2.0","0.2919922","0.19921875","-42.5","20.84375","46.25"
"1542027158666","623","1.5810547","0.41796875","-0.4375","29.90625","61.5","70.71875"
"1542027158863","624","0.9609375","0.21484375","-0.47753906","85.125","71.03125","51.25"
"1542027158864","625","0.9189453","-0.12011719","-0.11328125","13.96875","40.34375","26.65625"
"1542027158864","626","0.6074219","0.055664062","-0.140625","-100.125","-2.8125","2.90625"
"1542027158864","627","0.46777344","0.30859375","-0.2685547","-95.65625","-6.5","-19.5"
"1542027158864","628","0.5546875","0.3173828","-0.23925781","-23.34375","5.46875","-19.1875"
"1542027159263","629","0.6171875","0.15527344","-0.125","8.84375","9.8125","-18.25"
"1542027159264","630","0.81347656","0.111328125","-0.045898438","-1.53125","2.84375","-17.09375"
"1542027159264","631","0.84472656","0.07714844","0.025390625","-40.78125","-9.40625","-34.1875"
"1542027159265","632","1.4355469","0.19921875","0.076171875","-58.71875","-12.78125","-40.0625"
"1542027159265","633","1.6201172","0.12402344","0.16796875","-67.28125","-32.5625","-46.21875"
"1542027159265","634","1.8232422","0.16601562","0.25","-85.71875","-33.78125","-46.84375"
"1542027159265","635","1.5292969","0.22460938","-0.005859375","-55.625","-10.03125","-38.53125"
"1542027159266","636","1.3964844","0.11816406","-0.08691406","-54.34375","10.84375","-13.375"
"1542027159266","637","1.0087891","0.21972656","-0.125","-50.90625","14.09375","21.53125"
"1542027159459","638","0.6357422","0.13769531","-0.21679688","-35.59375","8.78125","32.03125"
"1542027159459","639","0.6503906","0.08984375","-0.15625","-29.625","1.28125","29.53125"
"1542027159459","640","0.640625","0.044921875","-0.06347656","-50.3125","-18.21875","17.1875"
"1542027159459","641","1.0058594","0.055664062","0.07910156","-70.4375","-32.0625","8.84375"
"1542027159461","642","1.1767578","-0.0390625","0.23242188","-109.6875","-58.25","0.71875"
"1542027159461","643","1.1777344","-0.034179688","0.32421875","-179.15625","-62.625","-10.34375"
"1542027159659","644","1.4238281","0.22167969","0.32714844","-201.125","-60.1875","6.09375"
"1542027159660","645","0.7451172","0.3154297","-0.12109375","-100.53125","-21.0","27.28125"
"1542027159660","646","1.0820312","0.041992188","-0.087890625","-21.25","15.5625","23.375"
"1542027159660","647","1.2871094","-0.18164062","0.13671875","-84.625","1.28125","9.375"
"1542027159662","648","0.84277344","0.0546875","-0.037109375","-165.84375","-16.0625","-4.09375"
"1542027159856","649","0.71484375","0.27734375","-0.11230469","-133.75","-11.625","10.0625"
"1542027159857","650","0.7548828","0.20800781","-0.09082031","-104.8125","-3.25","28.0625"
"1542027159857","651","0.7294922","0.2939453","-0.111328125","-110.5625","4.875","30.5"
"1542027159857","652","0.7480469","0.43847656","-0.16015625","-87.65625","15.25","33.4375"
"1542027159857","653","0.79785156","0.43652344","-0.24316406","-40.125","25.625","38.4375"
"1542027160055","654","1.0673828","0.37402344","-0.15234375","-37.96875","28.84375","30.0625"
"1542027160057","655","1.5996094","0.47460938","-0.06542969","-30.78125","10.53125","22.875"
"1542027160057","656","0.9628906","0.32421875","-0.10546875","-19.125","8.15625","-31.4375"
"1542027160057","657","1.2919922","0.28710938","-0.16894531","26.65625","11.59375","-61.65625"
"1542027160057","658","1.3359375","0.12402344","0.08886719","53.5","-0.9375","-55.5625"
"1542027160254","659","1.2070312","-0.103515625","0.12792969","26.46875","-11.4375","-52.09375"
"1542027160255","660","1.0136719","-0.056640625","-0.041992188","-4.78125","-7.8125","-48.0"
"1542027160452","661","0.7216797","-0.025390625","-0.033203125","6.40625","-3.5625","-24.96875"
"1542027160452","662","0.65527344","-0.060546875","0.0087890625","18.21875","-5.25","-0.4375"
"1542027160453","663","0.65722656","-0.045898438","0.01171875","2.84375","-14.71875","10.90625"
"1542027160453","664","0.59765625","9.765625E-4","0.022460938","-14.65625","-22.0","10.0625"
"1542027160455","665","0.6816406","0.026367188","0.091796875","-34.0625","-29.625","1.5625"
"1542027160456","666","0.6748047","0.08203125","0.07910156","-60.75","-37.90625","-7.09375"
"1542027160456","667","0.6738281","0.15527344","0.049804688","-70.8125","-35.84375","-10.875"
"1542027160456","668","0.6953125","0.23046875","-0.0390625","-51.21875","-30.96875","-4.90625"
"1542027160651","669","1.2148438","0.2890625","-0.018554688","-23.625","-17.90625","12.375"
"1542027160652","670","1.9414062","0.34375","0.123046875","-27.46875","-2.875","27.5625"
"1542027160654","671","1.6943359","0.4296875","-0.20410156","-15.34375","23.0625","26.78125"
"1542027160654","672","0.8769531","0.2998047","-0.4482422","60.96875","48.625","10.59375"
"1542027160655","673","0.7470703","0.11425781","-0.20605469","86.71875","45.28125","11.40625"
"1542027160850","674","0.9609375","0.040039062","-0.0859375","17.0","9.125","23.71875"
"1542027160850","675","0.5654297","0.12695312","-0.19238281","-43.40625","-7.46875","0.03125"
"1542027160850","676","0.4423828","0.2763672","-0.2841797","-17.84375","10.40625","-21.25"
"1542027160851","677","0.55371094","0.26660156","-0.19824219","43.3125","19.9375","-3.8125"
"1542027160851","678","0.60058594","0.15625","-0.12597656","54.0625","15.3125","12.0625"
"1542027161051","679","0.8544922","0.21972656","-0.12890625","46.90625","7.8125","14.3125"
"1542027161051","680","1.3115234","0.21484375","0.0126953125","43.5625","-5.09375","-2.875"
"1542027161051","681","2.0","0.15625","0.5019531","10.1875","-22.46875","-17.53125"
"1542027161051","682","1.3339844","0.059570312","0.36621094","-62.28125","-58.0","-57.6875"
"1542027161052","683","1.6738281","0.08691406","0.10253906","-60.875","-4.65625","-86.375"
"1542027161249","684","1.2158203","0.18847656","0.021484375","16.53125","21.59375","-26.125"
"1542027161249","685","0.53515625","-0.0126953125","-0.076171875","29.15625","24.875","9.375"
"1542027161250","686","0.45214844","0.037109375","-0.1328125","20.375","23.0625","32.46875"
"1542027161250","687","0.5722656","0.040039062","-0.03515625","17.5","0.90625","50.09375"
"1542027161250","688","0.54003906","0.06347656","0.01171875","-33.34375","-20.84375","44.78125"
"1542027161445","689","0.44726562","0.11816406","-0.0078125","-63.0625","-28.03125","14.3125"
"1542027161446","690","0.5263672","0.08105469","0.046875","-62.625","-26.625","-14.25"
"1542027161446","691","0.67285156","0.049804688","0.022460938","-52.125","-28.34375","-16.5625"
"1542027161447","692","1.2285156","0.10546875","0.12207031","-47.1875","-23.625","6.5625"
"1542027161448","693","1.9580078","0.19824219","0.24121094","-58.3125","-9.59375","32.5625"
"1542027161646","694","1.8271484","0.37402344","-0.087890625","-51.65625","27.75","56.5625"
"1542027161646","695","1.3310547","0.42773438","-0.6347656","52.71875","78.15625","59.125"
"1542027161647","696","1.3125","0.1171875","-0.16503906","103.6875","82.6875","52.0625"
"1542027161648","697","0.89941406","-0.078125","-0.20410156","-39.125","21.84375","16.09375"
"1542027161649","698","0.51660156","0.16015625","-0.39160156","-91.8125","5.28125","-29.5625"
"1542027161843","699","0.4482422","0.25390625","-0.36523438","-45.84375","6.625","-37.90625"
"1542027161844","700","0.4189453","0.11621094","-0.23632812","-4.53125","2.78125","-29.5625"
"1542027161844","701","0.4716797","0.076171875","-0.12695312","-0.9375","-0.6875","-29.0"
"1542027161845","702","0.74609375","0.14355469","-0.11425781","-2.34375","-4.90625","-25.40625"
"1542027161845","703","1.1923828","0.10546875","0.12402344","-17.46875","-8.875","-25.09375"
"1542027162045","704","1.9833984","0.12890625","0.26757812","-50.25","-24.96875","-35.0625"
"1542027162045","705","1.6865234","0.15429688","0.18359375","-77.59375","-37.3125","-50.0"
"1542027162045","706","1.4003906","0.22167969","0.060546875","-51.59375","-10.625","-56.03125"
"1542027162046","707","1.6777344","0.109375","0.1171875","-1.3125","-1.78125","-21.75"
"1542027162046","708","1.1513672","0.046875","0.033203125","-52.4375","-7.46875","0.65625"
"1542027162241","709","0.7871094","0.14160156","-0.15917969","-65.1875","-3.625","-4.96875"
"1542027162440","710","0.6425781","0.12695312","-0.15429688","-33.71875","-4.03125","-2.09375"
"1542027162441","711","0.68359375","0.005859375","-0.068359375","-45.125","-19.25","1.15625"
"1542027162441","712","0.8261719","0.040039062","0.026367188","-78.9375","-33.40625","-0.4375"
"1542027162442","713","1.1308594","0.038085938","0.18164062","-97.5625","-47.1875","1.875"
"1542027162442","714","1.0917969","0.015625","0.22949219","-125.5","-63.25","3.03125"
"1542027162442","715","1.25","0.068359375","0.22851562","-156.21875","-63.90625","1.15625"
"1542027162443","716","1.6181641","0.19140625","0.3310547","-183.3125","-68.75","22.4375"
"1542027162445","717","0.73535156","0.29101562","-0.059570312","-147.78125","-41.09375","20.96875"
"1542027162445","718","1.1474609","0.25878906","-0.12792969","-61.84375","-3.3125","28.625"
"1542027162642","719","1.1210938","0.005859375","0.07519531","-70.875","-16.4375","41.125"
"1542027162642","720","0.7548828","0.11621094","-0.016601562","-160.53125","-27.125","22.5625"
"1542027162643","721","0.6875","0.34570312","-0.107421875","-134.28125","-23.03125","27.9375"
"1542027162644","722","0.69921875","0.29882812","-0.07519531","-102.25","-14.0","40.34375"
"1542027162644","723","0.73828125","0.4404297","-0.10449219","-107.8125","-6.4375","30.875"
"1542027162837","724","0.8779297","0.58496094","-0.203125","-63.8125","0.59375","27.34375"
"1542027162837","725","0.8496094","0.5263672","-0.2421875","-88.15625","3.71875","1.875"
"1542027162838","726","0.93847656","0.80859375","-0.28515625","-66.40625","13.34375","-10.21875"
"1542027162838","727","1.5146484","0.92578125","-0.19042969","40.9375","21.40625","8.71875"
"1542027162839","728","0.7050781","0.49609375","-0.21582031","80.90625","26.34375","-48.0"
"1542027163038","729","1.1904297","0.44726562","-0.045898438","128.53125","38.1875","-95.78125"
"1542027163038","730","1.5712891","0.06640625","0.19433594","109.90625","9.03125","-72.03125"
"1542027163039","731","1.0449219","-0.07128906","0.24511719","-2.6875","-14.65625","-80.53125"
"1542027163039","732","0.8154297","0.08105469","0.044921875","-26.1875","5.96875","-96.28125"
"1542027163039","733","0.6123047","0.0048828125","-0.072265625","44.71875","23.3125","-71.0"
"1542027163234","734","0.4716797","-0.25097656","0.045898438","34.96875","12.0625","-53.84375"
"1542027163237","735","0.47753906","-0.15039062","0.028320312","-19.375","-11.96875","-34.375"
"1542027163237","736","0.5546875","-0.07519531","0.043945312","-47.1875","-37.96875","-9.0625"
"1542027163237","737","0.6425781","-0.0078125","0.06542969","-74.0","-48.78125","10.375"
"1542027163237","738","0.79296875","0.15429688","-0.00390625","-76.84375","-45.96875","35.09375"
"1542027163433","739","1.234375","0.328125","0.16308594","-65.6875","-28.8125","68.21875"
"1542027163434","740","2.0","0.6142578","0.42089844","-71.125","0.03125","125.96875"
"1542027163434","741","1.6943359","0.86328125","-0.5253906","-27.65625","73.78125","137.25"
"1542027163435","742","1.2070312","0.7207031","-0.29101562","142.625","91.90625","99.28125"
"1542027163435","743","0.8779297","0.1484375","-0.21191406","113.9375","53.03125","58.8125"
"1542027163634","744","0.5810547","0.14257812","-0.31835938","-53.90625","7.625","19.21875"
"1542027163635","745","0.39453125","0.36621094","-0.3154297","-84.5625","-8.75","4.125"
"1542027163636","746","0.37304688","0.453125","-0.36816406","-21.125","-5.5625","0.34375"
"1542027163636","747","0.5605469","0.38671875","-0.265625","39.59375","-0.8125","-4.46875"
"1542027163636","748","0.73828125","0.34570312","-0.18847656","66.5625","-0.4375","-6.375"
"1542027163830","749","1.2138672","0.22949219","-0.045898438","69.25","-5.09375","-14.46875"
"1542027163831","750","1.3408203","0.09082031","0.20507812","40.15625","-19.0625","-34.0625"
"1542027163831","751","2.0","0.078125","0.6767578","-26.0625","-63.6875","-27.40625"
"1542027163832","752","1.5009766","0.078125","0.5732422","-106.875","-77.53125","-63.84375"
"1542027163832","753","1.4960938","0.0068359375","0.13769531","-81.625","-3.0","-90.28125"
"1542027164032","754","0.8066406","0.17285156","-0.15429688","-2.8125","21.46875","-41.65625"
"1542027164032","755","0.23535156","-0.08496094","-0.09765625","28.90625","11.53125","3.21875"
"1542027164032","756","0.2783203","-0.021484375","-0.11035156","25.625","-3.5625","37.40625"
"1542027164033","757","0.4814453","-0.024414062","0.0","13.59375","-27.0625","48.25"
"1542027164229","758","0.5419922","0.0078125","0.06738281","-39.5","-38.59375","28.84375"
"1542027164230","759","0.6503906","0.14257812","0.024414062","-69.15625","-37.0","5.59375"
"1542027164230","760","0.7998047","0.24511719","0.0126953125","-55.1875","-29.8125","2.5"
"1542027164230","761","1.2207031","0.3408203","0.064453125","-16.75","-15.03125","25.1875"
"1542027164230","762","1.5458984","0.37304688","0.12792969","-11.3125","9.09375","50.03125"
"1542027164232","763","2.0","0.4970703","-0.013671875","7.5625","29.40625","79.625"
"1542027164428","764","1.4287109","0.4580078","-0.4970703","54.78125","62.125","42.03125"
"1542027164429","765","1.1865234","0.1796875","-0.16601562","79.15625","59.75","13.28125"
"1542027164429","766","0.68847656","0.015625","-0.19628906","-38.53125","14.3125","-5.875"
"1542027164429","767","0.35253906","0.24511719","-0.3251953","-77.15625","-0.1875","-17.21875"
"1542027164429","768","0.1953125","0.35742188","-0.34570312","-18.6875","7.5625","-14.125"
"1542027164626","769","0.24609375","0.32421875","-0.27734375","62.84375","17.3125","2.4375"
"1542027164626","770","0.48242188","0.25878906","-0.20019531","103.0625","18.53125","17.1875"
"1542027164824","771","0.6816406","0.21777344","-0.17382812","110.46875","7.8125","26.28125"
"1542027164824","772","1.3779297","0.17773438","-0.0126953125","88.0","-1.40625","23.53125"
"1542027164825","773","1.9609375","0.041015625","0.3515625","30.1875","-31.9375","-9.78125"
"1542027164826","774","2.0","-0.09863281","0.8642578","-53.1875","-75.8125","-44.15625"
"1542027164826","775","1.0146484","-0.19824219","0.44335938","-83.5","-29.0","-97.125"
"1542027164828","776","1.2666016","-0.015625","-0.08691406","-14.125","31.65625","-87.59375"
"1542027164828","777","0.7988281","-0.051757812","0.021484375","34.53125","34.34375","-19.78125"
"1542027164828","778","0.33398438","-0.14550781","-0.13085938","19.03125","12.875","19.875"
"1542027165025","779","0.19042969","0.03125","-0.19628906","-19.84375","-3.1875","30.3125"
"1542027165025","780","0.34179688","0.11621094","-0.10449219","-16.9375","-19.1875","23.375"
"1542027165026","781","0.4326172","0.10839844","-0.016601562","-46.65625","-37.6875","2.3125"
"1542027165027","782","0.6503906","0.234375","-0.029296875","-73.625","-46.03125","-23.15625"
"1542027165225","783","1.0361328","0.35839844","0.022460938","-52.5625","-37.84375","-33.09375"
"1542027165225","784","2.0","0.37304688","0.33203125","-47.125","-17.46875","-1.65625"
"1542027165225","785","2.0","0.63671875","0.16699219","-98.59375","11.65625","28.78125"
"1542027165226","786","1.2705078","0.9326172","-0.63671875","-20.34375","78.28125","-11.25"
"1542027165226","787","1.0908203","0.5361328","-0.3388672","140.65625","80.96875","-15.6875"
"1542027165226","788","0.69433594","-0.123046875","-0.38085938","24.09375","3.40625","-18.4375"
"1542027165423","789","0.43066406","0.0859375","-0.39160156","-102.3125","-32.1875","-40.65625"
"1542027165424","790","0.23828125","0.5595703","-0.39257812","-53.78125","-22.15625","-53.71875"
"1542027165424","791","0.1953125","0.3330078","-0.25097656","61.1875","1.3125","-51.90625"
"1542027165424","792","0.20703125","0.24902344","-0.12792969","98.9375","13.96875","-48.21875"
"1542027165620","793","0.6044922","0.4814453","-0.10253906","107.40625","23.96875","-36.5"
"1542027165818","794","1.3603516","0.4892578","0.111328125","113.3125","10.84375","-19.90625"
"1542027165818","795","2.0","0.484375","0.5488281","46.3125","-23.5","-1.78125"
"1542027165818","796","1.8378906","0.48828125","0.5341797","-86.375","-46.78125","6.03125"
"1542027165821","797","1.4521484","0.5839844","0.29589844","-122.21875","-4.78125","-45.125"
"1542027165821","798","1.0615234","0.4951172","-0.07519531","-14.3125","45.5625","-17.84375"
"1542027165822","799","0.5263672","0.23925781","-0.23339844","57.78125","59.875","3.34375"
"1542027165824","800","0.28710938","0.09863281","-0.12597656","38.25","48.4375","7.25"
"1542027165824","801","0.36328125","0.19335938","-0.24902344","14.9375","25.8125","18.96875"
"1542027165824","802","0.49121094","0.22460938","-0.19726562","10.84375","-12.28125","41.375"
"1542027166016","803","0.5859375","0.15332031","-0.0068359375","-32.59375","-44.15625","43.0"
"1542027166217","804","0.8154297","0.41796875","-0.025390625","-86.9375","-64.84375","7.90625"
"1542027166218","805","0.89941406","0.6064453","0.015625","-95.65625","-65.3125","-44.3125"
"1542027166218","806","1.5537109","0.609375","0.14746094","-62.8125","-44.6875","-42.375"
"1542027166219","807","1.9765625","0.6826172","0.14453125","-92.1875","-5.5","-0.1875"
"1542027166221","808","1.3496094","0.8457031","-0.4951172","-29.0","65.53125","45.40625"
"1542027166221","809","0.9667969","0.64941406","-0.5810547","7.125","26.71875","18.65625"
"1542027166222","810","0.7548828","0.3359375","-0.2685547","40.625","-11.1875","40.03125"
"1542027166222","811","0.41015625","0.043945312","-0.043945312","-45.3125","-20.78125","24.34375"
"1542027166222","812","0.25097656","0.35058594","-0.056640625","-103.71875","-7.53125","-9.71875"
"1542027166415","813","0.20898438","0.47558594","-0.04296875","-23.03125","13.65625","-17.34375"
"1542027166415","814","0.38378906","0.3876953","-0.061523438","43.0625","36.375","-6.96875"
"1542027166415","815","0.5751953","0.37304688","-0.032226562","38.8125","40.6875","-8.9375"
"1542027166416","816","1.1347656","0.48632812","0.018554688","52.46875","40.875","1.4375"
"1542027166417","817","1.9677734","0.3857422","0.2626953","59.90625","9.9375","20.96875"
"1542027166615","818","2.0","0.32226562","0.44921875","-17.84375","-15.46875","9.25"
"1542027166615","819","1.5126953","0.23242188","0.18164062","-70.375","-17.78125","1.75"
"1542027166615","820","1.2460938","0.41210938","0.034179688","-110.3125","-3.4375","-10.75"
"1542027166615","821","0.8466797","0.5498047","-0.16015625","-51.09375","-8.0","21.40625"
"1542027166615","822","0.44628906","0.30664062","-0.07128906","-31.09375","-24.5","22.75"
"1542027166813","823","0.27441406","0.25","0.001953125","-46.71875","-30.03125","14.5"
"1542027166813","824","0.36132812","0.20214844","0.07421875","-38.96875","-35.90625","6.09375"
"1542027166814","825","0.53515625","0.11816406","0.15917969","-64.40625","-55.1875","-5.5"
"1542027166815","826","0.63671875","0.109375","0.22460938","-108.84375","-74.96875","-23.21875"
"1542027166815","827","0.57128906","0.23535156","0.15429688","-139.53125","-83.9375","-53.0625"
"1542027167011","828","1.0810547","0.7841797","0.08300781","-121.65625","-73.125","-87.0"
"1542027167012","829","2.0","0.86621094","0.6455078","-90.09375","-46.15625","-68.0625"
"1542027167012","830","1.5576172","1.1181641","-0.8466797","-152.96875","6.625","-15.21875"
"1542027167012","831","1.90625","0.62109375","-1.3173828","-3.0","37.03125","-2.75"
"1542027167013","832","1.0292969","0.43847656","-0.23535156","35.8125","-60.6875","50.78125"
"1542027167209","833","0.40820312","-0.01171875","0.032226562","-61.84375","-64.71875","31.65625"
"1542027167210","834","0.28222656","0.25683594","0.11621094","-84.25","-35.78125","24.03125"
"1542027167210","835","0.21289062","0.29296875","0.18554688","-20.34375","-0.875","30.875"
"1542027167210","836","0.58496094","0.38085938","0.044921875","-28.875","11.75","22.5"
"1542027167211","837","0.71875","0.5058594","0.0146484375","-65.9375","15.90625","7.5625"
"1542027167409","838","1.3525391","0.7792969","-0.17871094","-92.125","22.3125","-3.96875"
"1542027167409","839","1.8867188","0.8251953","-0.546875","-16.5","10.53125","19.5625"
"1542027167409","840","1.0185547","-0.095703125","-0.30664062","51.0","-6.78125","4.8125"
"1542027167410","841","0.90722656","0.28027344","-0.017578125","-38.78125","1.28125","-8.5625"
"1542027167411","842","1.1210938","0.54785156","0.24902344","16.15625","-14.1875","39.96875"
"1542027167607","843","0.8642578","0.40625","0.3828125","-8.8125","-13.03125","24.15625"
"1542027167609","844","0.8125","0.39746094","0.2109375","-31.8125","11.65625","1.3125"
"1542027167609","845","0.7363281","0.25097656","0.10644531","0.53125","15.71875","2.0625"
"1542027167609","846","0.6972656","0.16601562","-0.0107421875","-28.15625","1.09375","-8.25"
"1542027167609","847","0.6748047","0.2548828","-0.09863281","-52.1875","-9.0625","-16.6875"
"1542027167809","848","0.6845703","0.3154297","-0.08203125","-44.75","-17.03125","-22.53125"
"1542027167809","849","0.7128906","0.36035156","-0.11035156","-40.96875","-27.25","-27.46875"
"1542027167809","850","0.68652344","0.35253906","-9.765625E-4","-51.84375","-36.28125","-28.21875"
"1542027167809","851","0.703125","0.4267578","0.024414062","-58.125","-40.46875","-25.15625"
"1542027167811","852","0.6767578","0.43945312","0.025390625","-59.15625","-40.0","-21.5"
"1542027168004","853","0.66015625","0.46875","0.020507812","-62.5","-33.84375","-17.34375"
"1542027168204","854","0.9921875","0.63671875","0.029296875","-34.625","-24.5625","-8.375"
"1542027168204","855","1.8496094","0.7480469","0.19335938","-7.8125","-6.3125","9.03125"
"1542027168206","856","1.7626953","0.49902344","-0.40429688","80.0625","37.59375","15.71875"
"1542027168206","857","1.7167969","0.109375","-0.40527344","41.125","27.75","-24.78125"
"1542027168206","858","1.2333984","0.28515625","-0.11328125","-48.53125","-34.1875","-2.34375"
"1542027168403","859","0.6513672","0.36132812","0.0625","-67.65625","-40.0","-3.8125"
"1542027168404","860","0.38476562","0.2578125","-0.005859375","-32.96875","-12.03125","5.78125"
"1542027168405","861","0.3623047","0.20117188","-0.03515625","-7.03125","10.1875","25.5"
"1542027168406","862","0.39941406","0.22363281","-0.08105469","-0.375","14.5625","35.625"
"1542027168406","863","0.4794922","0.30371094","-0.091796875","-2.8125","17.8125","34.46875"
"1542027168406","864","0.63671875","0.46289062","-0.12402344","-1.65625","20.25","19.46875"
"1542027168407","865","0.6855469","0.5185547","-0.17871094","-2.9375","24.15625","-5.375"
"1542027168407","866","0.6425781","0.4658203","-0.23144531","21.34375","22.375","-17.40625"
"1542027168408","867","0.83691406","0.31640625","-0.18554688","53.8125","24.53125","-24.5"
"1542027168603","868","1.4550781","0.33691406","0.10058594","70.96875","18.34375","9.03125"
"1542027168604","869","2.0","0.26171875","0.5019531","19.875","-24.0625","49.1875"
"1542027168604","870","1.5683594","0.27539062","0.5654297","-122.09375","-39.3125","25.5"
"1542027168604","871","1.3193359","0.6298828","0.115234375","-126.84375","-4.78125","-25.84375"
"1542027168604","872","0.81347656","0.55371094","-0.0625","-3.3125","9.1875","-0.875"
"1542027168799","873","0.41210938","0.21972656","-0.07128906","31.125","9.03125","8.71875"
"1542027168800","874","0.30566406","0.27246094","-0.10058594","-8.6875","-8.0","-2.6875"
"1542027168800","875","0.29101562","0.18554688","-0.043945312","-8.625","-27.25","-14.65625"
"1542027168800","876","0.39453125","0.14941406","0.022460938","-40.46875","-42.3125","-31.625"
"1542027168802","877","0.546875","0.22070312","0.026367188","-60.75","-46.9375","-53.59375"
"1542027168999","878","0.87109375","0.34277344","0.06542969","-64.53125","-32.71875","-53.46875"
"1542027169000","879","1.3369141","0.5595703","0.24609375","-80.03125","-21.4375","-38.59375"
"1542027169000","880","2.0","0.95996094","0.059570312","-75.75","7.625","22.25"
"1542027169000","881","1.5517578","0.8359375","-0.63183594","-6.53125","34.09375","4.0625"
"1542027169000","882","1.2851562","0.5234375","-0.265625","36.1875","12.375","9.375"
"1542027169200","883","0.84375","0.27539062","0.0146484375","-20.53125","-18.25","15.1875"
"1542027169200","884","0.44140625","0.17382812","0.037109375","-53.3125","-25.65625","3.53125"
"1542027169200","885","0.27929688","0.16894531","-0.01953125","-50.5","-6.53125","1.8125"
"1542027169200","886","0.33398438","0.18261719","-0.06347656","-15.8125","9.625","19.09375"
"1542027169201","887","0.5126953","0.1953125","-0.041992188","-8.1875","14.15625","22.3125"
"1542027169396","888","0.6113281","0.38085938","-0.103515625","-35.71875","15.125","13.96875"
"1542027169397","889","0.88671875","0.48535156","-0.15136719","-24.375","10.65625","5.53125"
"1542027169398","890","1.15625","0.44140625","-0.14746094","-30.28125","-0.25","-18.625"
"1542027169398","891","1.7109375","0.44921875","0.11621094","-32.90625","-31.6875","-14.84375"
"1542027169398","892","1.8984375","0.23925781","0.484375","-58.71875","-55.9375","4.8125"
"1542027169596","893","1.2792969","0.31640625","0.30566406","-111.09375","-30.34375","-9.96875"
"1542027169597","894","1.5556641","0.55078125","0.18164062","-77.90625","-9.59375","28.5"
"1542027169597","895","1.0322266","0.4794922","0.10253906","-41.9375","0.21875","48.5"
"1542027169597","896","0.6894531","0.35742188","0.0078125","-33.34375","11.65625","30.9375"
"1542027169597","897","0.62402344","0.22363281","0.0048828125","-22.84375","15.90625","25.5"
"1542027169793","898","0.6074219","0.08300781","0.1328125","-48.40625","10.65625","28.84375"
"1542027169793","899","0.6748047","0.26660156","0.115234375","-65.125","0.65625","27.875"
"1542027169795","900","0.9658203","0.39648438","-0.0029296875","-60.1875","-17.78125","12.0625"
"1542027169796","901","0.9707031","0.4423828","0.025390625","-112.375","-44.3125","-27.40625"
"1542027169796","902","1.0009766","0.53222656","0.0234375","-123.625","-61.46875","-60.875"
"1542027169991","903","1.4492188","0.47851562","0.059570312","-77.59375","-66.1875","-42.6875"
"1542027170194","904","0.640625","0.16894531","-0.048828125","-31.25","-39.1875","-58.84375"
"1542027170196","905","1.3935547","0.08105469","0.037109375","10.0","-17.90625","-57.625"
"1542027170196","906","1.5322266","-0.31054688","0.20410156","-64.71875","-49.15625","-3.875"
"1542027170196","907","1.1728516","0.28027344","-0.11230469","-239.8125","-68.0","-34.4375"
"1542027170196","908","0.8203125","0.953125","-0.2529297","-154.9375","-55.25","-37.1875"
"1542027170197","909","0.41503906","0.5126953","-0.051757812","-30.34375","-32.96875","-26.375"
"1542027170197","910","0.22363281","0.16699219","-0.053710938","-5.3125","-14.71875","-9.0"
"1542027170197","911","0.2919922","0.3828125","-0.06542969","-24.90625","-4.96875","0.21875"
"1542027170197","912","0.5029297","0.5029297","-0.05078125","2.84375","5.53125","9.25"
"1542027170390","913","0.67871094","0.49316406","-0.14941406","-2.875","13.0","-3.875"
"1542027170390","914","0.7949219","0.4716797","-0.2578125","-12.21875","15.125","-15.625"
"1542027170390","915","0.9511719","0.4248047","-0.27734375","-8.625","10.65625","-8.0"
"1542027170391","916","0.80566406","0.33398438","-0.25976562","-4.34375","7.75","-10.5625"
"1542027170391","917","1.0107422","0.32910156","-0.171875","39.84375","11.9375","2.65625"
"1542027170591","918","1.3535156","0.24707031","0.19335938","58.6875","3.09375","38.125"
"1542027170591","919","2.0","0.1953125","0.6357422","-17.09375","-10.09375","83.53125"
"1542027170591","920","1.3701172","0.5029297","0.6816406","-64.53125","-4.84375","49.0625"
"1542027170592","921","1.6416016","0.37402344","0.27929688","-42.6875","11.09375","36.1875"
"1542027170592","922","1.0244141","0.5800781","0.0","-41.09375","29.65625","33.1875"
"1542027170789","923","0.5029297","0.4794922","-0.18554688","2.0","26.65625","14.75"
"1542027170789","924","0.48242188","0.32714844","-0.18945312","42.21875","22.09375","-0.125"
"1542027170985","925","0.4404297","0.06542969","-0.09375","34.96875","1.5","3.21875"
"1542027170986","926","0.42382812","0.125","-0.017578125","-3.6875","-17.71875","-5.21875"
"1542027170987","927","0.51953125","0.061523438","0.026367188","-20.9375","-41.53125","-27.78125"
"1542027170987","928","0.5996094","0.021484375","0.08984375","-61.71875","-62.875","-39.875"
"1542027170988","929","0.8701172","0.12207031","0.13085938","-97.78125","-77.15625","-37.84375"
"1542027170988","930","0.8886719","0.33789062","0.13574219","-125.875","-75.8125","-41.75"
"1542027170988","931","1.2431641","0.70214844","0.27929688","-106.28125","-42.8125","-48.71875"
"1542027170990","932","1.9931641","0.9863281","0.390625","-43.15625","8.96875","-12.15625"
"1542027171186","933","1.7148438","1.0800781","-0.4638672","16.65625","67.90625","27.375"
"1542027171186","934","1.0683594","0.43652344","-0.5761719","68.84375","33.90625","6.5625"
"1542027171186","935","0.7236328","0.099609375","-0.123046875","75.90625","10.0625","27.625"
"1542027171187","936","0.5185547","0.016601562","0.09765625","-15.6875","-1.125","26.46875"
"1542027171188","937","0.24609375","0.14453125","0.0703125","-61.0","10.40625","10.84375"
"1542027171383","938","0.18066406","0.34570312","-0.11816406","-4.96875","32.6875","15.3125"
"1542027171384","939","0.18359375","0.40429688","-0.19433594","68.78125","44.1875","21.03125"
"1542027171384","940","0.24511719","0.3125","-0.18066406","81.78125","45.28125","10.71875"
"1542027171385","941","1.2910156","0.5673828","0.15820312","129.625","51.0625","26.71875"
"1542027171385","942","2.0","0.19140625","0.9033203","114.3125","2.0","49.4375"
"1542027171582","943","1.8554688","0.060546875","0.8564453","-55.1875","1.8125","9.8125"
"1542027171780","944","1.6943359","0.31640625","-0.01171875","-28.8125","23.84375","-14.3125"
"1542027171781","945","1.1904297","0.24316406","-0.21679688","-3.625","10.78125","5.90625"
"1542027171781","946","0.5078125","0.26953125","-0.09277344","-13.1875","-6.53125","10.25"
"1542027171781","947","0.35351562","0.32617188","-0.060546875","24.46875","0.34375","10.375"
"1542027171783","948","0.38085938","0.17773438","0.0546875","49.1875","-0.3125","13.28125"
"1542027171784","949","0.38671875","0.23144531","0.123046875","8.53125","-15.75","1.03125"
"1542027171784","950","0.45996094","0.23828125","0.13476562","-11.5625","-29.3125","-24.25"
"1542027171785","951","0.62109375","0.1875","0.19433594","-22.125","-34.75","-35.28125"
"1542027171785","952","0.82128906","0.32617188","0.13867188","-41.28125","-32.59375","-46.21875"
"1542027171979","953","1.109375","0.53222656","0.25195312","-49.8125","-23.28125","-52.9375"
"1542027171979","954","2.0","0.7421875","0.3359375","-40.65625","7.96875","-37.0"
"1542027171980","955","2.0","0.3388672","-0.7548828","-9.125","26.59375","-11.0625"
"1542027171981","956","1.0820312","0.4765625","-0.49804688","-10.875","24.75","1.15625"
"1542027171981","957","0.9501953","0.3388672","-0.047851562","54.25","15.4375","45.875"
"1542027172178","958","0.4609375","0.076171875","0.20117188","7.5625","-13.5625","40.75"
"1542027172179","959","0.21972656","0.21191406","0.08496094","-67.65625","-7.9375","7.5"
"1542027172180","960","0.12988281","0.3486328","-0.051757812","-19.375","12.8125","8.59375"
"1542027172180","961","0.33789062","0.3955078","-0.103515625","40.625","33.6875","11.28125"
"1542027172180","962","0.6142578","0.32910156","-0.08691406","51.5625","34.40625","14.28125"
"1542027172377","963","0.9658203","0.39648438","-0.060546875","61.625","33.625","23.65625"
"1542027172378","964","1.4892578","0.24609375","0.056640625","90.6875","26.84375","25.375"
"1542027172378","965","1.9716797","-0.07714844","0.27148438","64.25","4.75","30.25"
"1542027172378","966","1.7529297","0.26464844","0.58691406","-115.875","-34.4375","13.84375"
"1542027172379","967","1.5117188","0.52734375","0.5214844","-60.375","-20.09375","-11.90625"
"1542027172578","968","1.2744141","0.47460938","0.16894531","-40.53125","-11.125","-5.5625"
"1542027172579","969","0.52246094","0.40625","-0.0625","-30.21875","-1.1875","-10.34375"
"1542027172579","970","0.20605469","0.39746094","-0.21582031","10.46875","5.46875","-10.34375"
"1542027172579","971","0.2607422","0.25390625","-0.13769531","49.53125","2.1875","2.1875"
"1542027172579","972","0.41015625","0.10839844","0.06542969","21.09375","-21.375","5.34375"
"1542027172774","973","0.5546875","0.091796875","0.21972656","-26.0625","-40.40625","-10.75"
"1542027172775","974","0.6582031","0.08496094","0.20214844","-55.0","-47.125","-32.1875"
"1542027172775","975","0.8623047","0.16992188","0.20507812","-82.03125","-40.375","-45.0"
"1542027172776","976","1.4306641","0.5175781","0.23828125","-70.9375","-23.5625","-25.96875"
"1542027172776","977","2.0","0.8183594","0.29003906","-47.375","18.46875","-11.6875"
"1542027172974","978","2.0","0.7597656","-0.74902344","7.5","48.375","-4.40625"
"1542027172975","979","1.1445312","0.50683594","-0.3330078","44.1875","16.9375","17.0625"
"1542027172975","980","0.6230469","0.2109375","-0.0087890625","34.40625","2.65625","23.71875"
"1542027172975","981","0.3310547","0.076171875","0.030273438","-8.125","-2.28125","15.71875"
"1542027172975","982","0.17285156","0.13183594","0.022460938","-13.9375","5.34375","15.0625"
"1542027173171","983","0.26953125","0.25390625","0.001953125","25.625","18.78125","29.84375"
"1542027173172","984","0.5966797","0.36816406","-0.08886719","70.34375","29.21875","49.4375"
"1542027173172","985","0.5703125","0.37695312","-0.17578125","73.53125","36.96875","40.09375"
"1542027173370","986","0.7392578","0.3984375","-0.21386719","83.25","34.21875","19.21875"
"1542027173371","987","1.1230469","0.3486328","-0.107421875","102.53125","23.78125","9.125"
"1542027173372","988","1.5205078","0.20019531","0.12011719","75.0625","-9.15625","-4.53125"
"1542027173373","989","2.0","0.080078125","0.3408203","-12.15625","-35.15625","-36.8125"
"1542027173374","990","1.8691406","0.2861328","0.31347656","-95.65625","-73.875","-58.4375"
"1542027173374","991","1.5634766","0.33203125","0.23925781","-132.65625","-52.4375","-87.0"
"1542027173374","992","1.2734375","0.5205078","-0.09472656","-74.53125","-23.875","-63.5625"
"1542027173572","993","0.5644531","0.40625","-0.07519531","12.5625","-12.53125","-29.375"
"1542027173572","994","0.27734375","0.20703125","-0.15527344","28.375","-10.09375","-23.625"
"1542027173573","995","0.32421875","0.15039062","-0.16601562","32.09375","-24.78125","-20.9375"
"1542027173573","996","0.36523438","0.022460938","-0.06347656","-6.0625","-59.09375","-13.1875"
"1542027173574","997","0.51464844","0.016601562","0.061523438","-72.59375","-88.5625","-11.0625"
"1542027173768","998","0.57910156","0.048828125","0.140625","-113.25","-98.34375","-9.71875"
"1542027173768","999","0.7167969","0.16210938","0.13964844","-111.84375","-85.71875","6.875"
"1542027173769","1000","1.1640625","0.36035156","0.29296875","-66.0","-49.46875","58.09375"
"1542027173769","1001","1.7226562","0.34570312","0.08496094","-9.40625","10.3125","118.03125"
"1542027173770","1002","1.9199219","0.32714844","0.03515625","-5.375","83.3125","164.96875"
"1542027173967","1003","1.5039062","0.484375","-0.36816406","7.6875","109.375","179.71875"
"1542027173967","1004","1.1328125","0.22851562","-0.11425781","21.78125","96.46875","151.40625"
"1542027173967","1005","0.85546875","-0.021484375","-0.103515625","-75.9375","59.3125","108.125"
"1542027173968","1006","0.6386719","0.17871094","-0.18359375","-168.65625","33.625","57.53125"
"1542027174365","1007","0.57910156","0.5136719","-0.23339844","-152.46875","24.875","22.875"
"1542027174565","1008","0.66015625","0.59375","-0.25878906","-62.28125","21.34375","8.15625"
"1542027174567","1009","0.7216797","0.4013672","-0.21191406","-0.75","15.4375","-4.46875"
"1542027174764","1010","0.8857422","0.33691406","-0.23730469","2.84375","8.90625","-20.34375"
"1542027174963","1011","1.0390625","0.28222656","-0.16113281","-11.4375","-2.875","-61.0625"
"1542027174964","1012","1.5126953","0.2529297","0.0048828125","-5.03125","-16.9375","-101.40625"
"1542027174964","1013","2.0","0.09277344","0.3173828","-5.03125","-39.625","-116.53125"
"1542027174964","1014","1.8164062","0.15136719","0.20410156","-41.34375","-72.03125","-134.0"
"1542027174964","1015","1.8378906","0.12109375","0.041015625","-35.40625","-38.53125","-135.21875"
"1542027174964","1016","0.45898438","-0.12011719","-0.07421875","0.84375","23.3125","-68.625"
"1542027174964","1017","0.296875","-0.053710938","-0.12597656","12.75","34.09375","-37.5"
"1542027174965","1018","1.2119141","0.018554688","0.30273438","-210.28125","-114.09375","17.1875"
"1542027174965","1019","0.66015625","0.119140625","0.0","-75.9375","17.6875","65.40625"
"1542027175161","1020","1.1181641","0.3515625","-0.12792969","-69.28125","5.71875","35.03125"
"1542027175162","1021","1.3505859","0.47265625","-0.12695312","-54.6875","23.59375","8.46875"
"1542027175162","1022","0.81640625","0.45117188","-0.10449219","27.03125","17.4375","-14.65625"
"1542027175162","1023","0.953125","0.23242188","-0.08203125","71.40625","16.90625","-52.5"
"1542027175162","1024","1.3535156","0.059570312","-9.765625E-4","67.625","10.1875","-61.65625"
"1542027175358","1025","1.5097656","-0.111328125","0.2265625","15.4375","-13.6875","-63.5"
"1542027175359","1026","1.5839844","-0.10058594","0.29296875","-64.96875","-23.5","-63.625"
"1542027175360","1027","1.1523438","0.123046875","0.0087890625","-53.1875","-5.6875","-46.09375"
"1542027175360","1028","0.7792969","0.072265625","-0.038085938","8.59375","12.9375","-15.03125"
"1542027175360","1029","0.58984375","0.0068359375","-0.033203125","26.28125","17.875","7.5"
"1542027175558","1030","0.54003906","0.046875","-0.034179688","22.375","6.8125","20.125"
"1542027175560","1031","0.5341797","0.04296875","-0.0107421875","7.84375","-12.78125","22.03125"
"1542027175560","1032","0.5341797","0.036132812","0.018554688","-27.0","-32.78125","9.9375"
"1542027175561","1033","0.54296875","0.06933594","0.059570312","-73.375","-44.875","-11.625"
"1542027175561","1034","0.6826172","0.15917969","0.091796875","-97.4375","-48.1875","-22.96875"
"1542027175757","1035","0.79003906","0.25097656","0.03515625","-80.8125","-45.5625","-13.4375"
"1542027175955","1036","0.83984375","0.2685547","-0.017578125","-33.875","-35.96875","3.34375"
"1542027175957","1037","1.34375","0.25683594","0.07714844","-4.09375","-20.03125","17.0625"
"1542027175958","1038","2.0","0.2109375","0.5019531","-46.40625","-6.0625","34.15625"
"1542027175958","1039","1.5029297","0.5761719","-0.5517578","-35.78125","44.0625","28.4375"
"1542027175958","1040","1.0693359","0.40429688","-0.3154297","83.46875","68.28125","24.875"
"1542027175960","1041","0.9550781","0.0234375","-0.13671875","65.59375","29.03125","30.3125"
"1542027175960","1042","0.49414062","-0.0107421875","-0.25976562","-63.5","-10.875","1.21875"
"1542027175960","1043","0.30371094","0.23339844","-0.34179688","-83.6875","-12.84375","-31.875"
"1542027175960","1044","0.29296875","0.3486328","-0.25878906","-24.5","-3.96875","-24.125"
"1542027176155","1045","0.4765625","0.31835938","-0.0703125","43.125","9.6875","6.15625"
"1542027176352","1046","0.6982422","0.3076172","-0.080078125","85.0625","15.65625","38.125"
"1542027176354","1047","0.8574219","0.24023438","-0.0390625","79.875","15.625","38.3125"
"1542027176354","1048","1.0195312","0.1875","-0.0126953125","64.5","17.4375","9.25"
"1542027176355","1049","1.4882812","0.111328125","0.12597656","58.46875","0.46875","-25.78125"
"1542027176355","1050","2.0","-0.0126953125","0.4033203","13.09375","-17.59375","-52.5"
"1542027176356","1051","1.7421875","-0.06738281","0.35546875","-60.625","-52.25","-63.5625"
"1542027176356","1052","1.4765625","0.06542969","0.18847656","-95.65625","-24.5","-62.28125"
"1542027176361","1053","1.0146484","0.20898438","-0.057617188","-49.09375","9.09375","-18.25"
"1542027176362","1054","0.49609375","0.09472656","-0.15332031","15.0625","21.53125","14.9375"
"1542027176550","1055","0.34179688","0.001953125","-0.11621094","26.65625","16.21875","28.96875"
"1542027176551","1056","0.43652344","-0.068359375","-0.021484375","16.71875","-7.875","33.5625"
"1542027176552","1057","0.48535156","-0.15429688","0.03125","-35.15625","-40.1875","25.0625"
"1542027176749","1058","0.4951172","-0.08300781","0.07714844","-113.0625","-63.5625","0.09375"
"1542027176752","1059","0.7109375","0.07128906","0.018554688","-134.78125","-67.03125","-16.0"
"1542027176753","1060","1.4287109","0.23925781","0.2548828","-121.0","-62.6875","2.0625"
"1542027176754","1061","2.0","0.3095703","0.5966797","-145.28125","-48.53125","34.53125"
"1542027176754","1062","1.4365234","0.6582031","-0.20703125","-120.0","14.3125","73.53125"
"1542027176754","1063","1.1083984","0.59472656","-0.3984375","5.40625","83.78125","82.8125"
"1542027176754","1064","1.1689453","0.37304688","-0.046875","62.53125","94.84375","78.96875"
"1542027176948","1065","0.6845703","-0.0146484375","-0.11621094","-67.15625","41.375","23.4375"
"1542027176948","1066","0.47558594","0.23925781","-0.23828125","-164.0625","23.46875","-29.5"
"1542027176948","1067","0.4765625","0.4921875","-0.3408203","-129.21875","17.8125","-43.59375"
"1542027176949","1068","0.5058594","0.42382812","-0.2861328","-46.53125","15.65625","-37.625"
"1542027176950","1069","0.7373047","0.24414062","-0.15820312","-8.0","12.0","-29.875"
"1542027177148","1070","0.94140625","0.14257812","-0.08886719","-38.09375","1.15625","-37.625"
"1542027177149","1071","1.0839844","0.23632812","-0.12207031","-66.375","3.40625","-44.03125"
"1542027177149","1072","1.6103516","0.35351562","0.037109375","-18.8125","2.5","-16.6875"
"1542027177149","1073","2.0","0.27929688","0.42382812","50.65625","-30.84375","19.34375"
"1542027177149","1074","1.3164062","0.049804688","0.09667969","76.03125","-28.09375","-19.65625"
"1542027177346","1075","1.6298828","-0.36816406","0.025390625","26.03125","-0.1875","-75.09375"
"1542027177346","1076","1.328125","-0.053710938","0.15527344","-86.0","-9.40625","-67.65625"
"1542027177347","1077","0.55078125","9.765625E-4","0.0029296875","-128.0625","-22.0625","-56.0"
"1542027177347","1078","0.43652344","0.14160156","-0.16113281","-39.5","-14.90625","-31.5"
"1542027177347","1079","0.6201172","0.001953125","-0.0859375","3.65625","-20.53125","-3.875"
"1542027177545","1080","0.7451172","-0.13769531","0.05859375","-55.1875","-43.03125","3.21875"
"1542027177546","1081","1.0214844","0.07714844","0.15820312","-114.8125","-60.25","8.46875"
"1542027177546","1082","1.0898438","0.20800781","0.23535156","-130.21875","-72.03125","28.25"
"1542027177546","1083","0.99316406","0.2578125","0.1953125","-131.4375","-61.59375","47.96875"
"1542027177547","1084","1.1083984","0.3203125","0.12011719","-125.3125","-39.4375","63.28125"
"1542027177744","1085","1.3964844","0.3779297","0.17675781","-108.28125","-23.28125","89.46875"
"1542027177744","1086","0.64160156","0.3828125","-0.1328125","-57.625","-0.3125","78.96875"
"1542027177745","1087","1.3027344","0.26367188","-0.15234375","18.125","29.21875","41.125"
"1542027177746","1088","1.4404297","-0.12792969","0.16015625","-17.09375","2.96875","2.71875"
"1542027177746","1089","1.0058594","0.024414062","-0.09765625","-139.90625","-10.09375","-43.15625"
"1542027177942","1090","0.78515625","0.26660156","-0.22070312","-121.0625","-4.46875","-36.9375"
"1542027177942","1091","0.6035156","0.1953125","-0.19824219","-61.84375","1.75","-5.375"
"1542027177943","1092","0.47851562","0.16015625","-0.24414062","-51.40625","7.625","9.03125"
"1542027177944","1093","0.58984375","0.26367188","-0.2529297","-27.78125","14.3125","18.0625"
"1542027177944","1094","0.7080078","0.25390625","-0.22949219","-3.375","16.46875","24.59375"
"1542027178141","1095","0.76953125","0.27148438","-0.23046875","-6.71875","16.34375","20.125"
"1542027178142","1096","0.71777344","0.30078125","-0.23828125","-13.9375","12.125","8.84375"
"1542027178142","1097","0.7216797","0.3388672","-0.21386719","-12.65625","7.1875","-2.6875"
"1542027178142","1098","0.6425781","0.30664062","-0.21289062","17.75","7.5","-20.53125"
"1542027178142","1099","1.0654297","0.29882812","-0.16210938","74.3125","9.6875","-25.09375"
"1542027178340","1100","1.8642578","0.0078125","0.28125","85.1875","-8.375","-20.21875"
"1542027178341","1101","2.0","-0.25195312","0.61035156","-17.65625","-59.09375","-37.5"
"1542027178341","1102","1.3173828","-0.10449219","0.2861328","-113.46875","-46.21875","-74.1875"
"1542027178341","1103","1.3544922","0.21289062","-0.038085938","-42.5","5.0625","-50.0"
"1542027178341","1104","0.7783203","0.032226562","-0.005859375","39.59375","25.5","3.09375"
"1542027178539","1105","0.4609375","-0.08496094","-0.068359375","26.28125","22.3125","25.6875"
"1542027178540","1106","0.54296875","0.068359375","-0.049804688","18.53125","7.8125","41.4375"
"1542027178540","1107","0.5517578","0.026367188","0.021484375","11.21875","-11.1875","39.71875"
"1542027178540","1108","0.67089844","0.0546875","0.033203125","-39.5625","-24.0625","16.84375"
"1542027178540","1109","0.75","0.13574219","0.028320312","-60.8125","-30.96875","-2.8125"
"1542027178739","1110","0.80371094","0.13574219","0.0234375","-58.125","-30.65625","-6.4375"
"1542027178740","1111","1.0566406","0.20605469","-0.055664062","-33.34375","-25.90625","8.59375"
"1542027178740","1112","1.3730469","0.20605469","0.02734375","-24.5","-13.3125","23.4375"
"1542027178740","1113","2.0","0.43164062","0.123046875","-21.125","11.65625","43.75"
"1542027178740","1114","1.2441406","0.43652344","-0.6308594","59.4375","48.375","47.15625"
"1542027178936","1115","0.78515625","0.2705078","-0.3564453","127.0625","59.96875","17.4375"
"1542027178937","1116","1.0205078","-0.040039062","-0.076171875","51.0625","19.625","11.8125"
"1542027178938","1117","0.59375","0.12402344","-0.17285156","-55.75","-18.875","-14.0625"
"1542027178939","1118","0.30078125","0.2841797","-0.38085938","-51.15625","-13.9375","-42.625"
"1542027178939","1119","0.2998047","0.31835938","-0.30078125","17.75","1.5","-39.1875"
"1542027179136","1120","0.46875","0.22070312","-0.17480469","73.78125","4.875","-21.5"
"1542027179136","1121","0.6582031","0.14257812","-0.10253906","81.28125","0.65625","-11.375"
"1542027179139","1122","1.5400391","0.20507812","0.12597656","84.09375","-2.21875","-8.0"
"1542027179139","1123","2.0","-0.13183594","0.46289062","41.3125","-37.6875","-32.4375"
"1542027179139","1124","2.0","-0.20117188","0.55371094","-73.1875","-54.65625","-61.65625"
"1542027179336","1125","1.2998047","0.028320312","0.14550781","-103.21875","-18.375","-62.8125"
"1542027179337","1126","1.3251953","0.17675781","-0.059570312","-2.625","31.25","-8.9375"
"1542027179532","1127","0.86816406","0.13964844","-0.12402344","70.3125","43.9375","53.09375"
"1542027179532","1128","0.43554688","-0.061523438","-0.1328125","37.28125","27.4375","61.5"
"1542027179532","1129","0.33496094","0.099609375","-0.17382812","8.03125","8.46875","52.28125"
"1542027179534","1130","0.40527344","0.038085938","-0.048828125","7.0625","-13.125","34.15625"
"1542027179534","1131","0.609375","-0.02734375","0.09667969","-43.40625","-32.78125","3.03125"
"1542027179534","1132","0.76660156","0.053710938","0.09667969","-84.5","-44.5625","-18.21875"
"1542027179535","1133","0.95703125","0.16992188","-0.013671875","-73.6875","-38.71875","-14.53125"
"1542027179535","1134","1.2646484","0.18066406","0.043945312","-53.46875","-24.90625","15.1875"
"1542027179731","1135","2.0","0.4794922","0.16796875","-40.0625","13.34375","56.625"
"1542027179731","1136","1.3974609","0.5019531","-0.6015625","63.71875","65.53125","73.78125"
"1542027179731","1137","1.1845703","0.22070312","-0.21777344","111.25","79.5","26.78125"
"1542027179731","1138","1.0996094","-0.08203125","-0.125","-1.59375","29.21875","-5.375"
"1542027179733","1139","0.51464844","0.19433594","-0.34765625","-73.8125","-1.40625","-27.96875"
"1542027179929","1140","0.38671875","0.28808594","-0.45214844","-20.65625","5.0","-32.375"
"1542027179930","1141","0.5986328","0.23046875","-0.37402344","34.21875","7.5","-18.9375"
"1542027179930","1142","0.6142578","0.14160156","-0.24511719","33.0","-1.90625","-14.84375"
"1542027179931","1143","0.7324219","0.28320312","-0.24023438","40.9375","-2.46875","-14.125"
"1542027179931","1144","0.7402344","0.18945312","-0.19140625","79.40625","-3.625","-20.71875"
"1542027180127","1145","1.2490234","0.1015625","-0.0068359375","94.65625","-14.65625","-25.09375"
"1542027180127","1146","2.0","-0.02734375","0.5341797","29.71875","-37.125","-26.1875"
"1542027180129","1147","1.6386719","-0.036132812","0.46972656","-83.03125","-83.21875","-38.03125"
"1542027180129","1148","1.5800781","0.15625","0.09277344","-110.0625","-19.25","-59.84375"
"1542027180130","1149","1.2929688","0.21972656","-0.032226562","23.84375","39.78125","3.59375"
"1542027180329","1150","0.5673828","9.765625E-4","-0.028320312","38.0","46.75","31.0625"
"1542027180331","1151","0.34472656","0.09277344","-0.24023438","16.53125","36.4375","31.53125"
"1542027180331","1152","0.4248047","-0.057617188","-0.013671875","10.59375","7.625","24.40625"
"1542027180332","1153","0.33984375","-0.045898438","0.0146484375","-53.78125","-22.0625","5.78125"
"1542027180332","1154","0.5722656","0.080078125","0.0048828125","-72.71875","-30.78125","-11.0"
"1542027180526","1155","0.82128906","0.053710938","0.0078125","-59.15625","-33.21875","-8.125"
"1542027180527","1156","0.95410156","0.11328125","-0.0068359375","-62.625","-26.5625","7.375"
"1542027180527","1157","1.5683594","0.23339844","0.06347656","-62.03125","-10.03125","28.375"
"1542027180527","1158","2.0","0.36132812","0.02734375","-32.5","24.53125","41.375"
"1542027180528","1159","1.6308594","0.45996094","-0.5214844","63.09375","60.46875","74.625"
"1542027180725","1160","1.1865234","0.26171875","-0.37402344","100.5625","67.78125","58.40625"
"1542027180725","1161","1.0703125","-0.017578125","-0.17285156","10.375","34.15625","30.1875"
"1542027180725","1162","0.5449219","0.13574219","-0.26757812","-76.0625","0.46875","-2.75"
"1542027180725","1163","0.27441406","0.203125","-0.31054688","-47.8125","0.59375","-27.34375"
"1542027180727","1164","0.2529297","0.4580078","-0.38378906","18.65625","-5.4375","-41.21875"
"1542027180923","1165","0.25976562","0.17382812","-0.32226562","40.6875","-9.78125","-28.8125"
"1542027180923","1166","0.4326172","0.25097656","-0.22851562","40.75","-10.4375","-27.34375"
"1542027180924","1167","1.2705078","0.25683594","0.09472656","55.96875","-22.46875","-33.34375"
"1542027180924","1168","2.0","0.053710938","0.40820312","7.96875","-51.71875","-45.90625"
"1542027180924","1169","2.0","0.078125","0.63671875","-69.28125","-45.5","-32.5"
"1542027181122","1170","1.3300781","0.07714844","0.24609375","-80.8125","1.28125","-48.34375"
"1542027181123","1171","1.4121094","0.13867188","-0.009765625","2.0","42.78125","-36.21875"
"1542027181123","1172","0.8378906","0.04296875","-0.06542969","55.59375","53.8125","11.71875"
"1542027181124","1173","0.45996094","-0.021484375","-0.13085938","40.75","41.65625","25.6875"
"1542027181125","1174","0.5683594","0.1015625","-0.18359375","12.75","22.8125","35.4375"
"1542027181323","1175","0.54003906","0.076171875","-0.015625","0.96875","0.90625","39.0625"
"1542027181323","1176","0.56933594","0.14355469","0.03125","-38.78125","-16.8125","19.6875"
"1542027181324","1177","0.64941406","0.12890625","0.07421875","-73.625","-26.1875","-8.3125"
"1542027181324","1178","0.71191406","0.18945312","0.095703125","-72.40625","-28.21875","-20.15625"
"1542027181324","1179","1.0234375","0.20996094","0.001953125","-56.65625","-28.6875","-15.15625"
"1542027181520","1180","1.3984375","0.25195312","0.072265625","-56.34375","-16.8125","-0.25"
"1542027181520","1181","2.0","0.41601562","0.06738281","-33.09375","9.3125","29.15625"
"1542027181520","1182","1.5986328","0.46972656","-0.40820312","21.03125","52.59375","34.03125"
"1542027181520","1183","1.1943359","0.28320312","-0.3095703","89.53125","48.4375","24.75"
"1542027181521","1184","0.828125","-0.09277344","-0.19140625","-7.71875","11.46875","-1.34375"
"1542027181719","1185","0.6113281","0.06738281","-0.20996094","-93.15625","-12.53125","-23.5"
"1542027181720","1186","0.47460938","0.14355469","-0.20703125","-88.28125","-16.875","-32.125"
"1542027181720","1187","0.57421875","0.14941406","-0.16113281","-44.625","-13.5","-21.4375"
"1542027181720","1188","0.5810547","0.10449219","-0.10449219","-40.40625","-12.90625","-15.15625"
"1542027181721","1189","0.69433594","0.19433594","-0.10644531","-43.84375","-10.5625","-13.5"
"1542027181916","1190","0.6933594","0.13769531","-0.0703125","-44.28125","-11.96875","-18.75"
"1542027181917","1191","1.0537109","0.265625","-0.055664062","-60.75","-14.125","-27.1875"
"1542027181917","1192","1.5830078","0.22558594","0.16210938","-53.53125","-26.5","-15.75"
"1542027181918","1193","2.0","0.24804688","0.43554688","-89.0625","-43.59375","0.0"
"1542027181918","1194","1.4990234","0.28710938","0.1484375","-109.6875","-19.125","-10.6875"
"1542027182513","1195","1.6386719","0.24707031","-0.1640625","-45.25","27.6875","-19.5"
"1542027182715","1196","1.1503906","0.23730469","-0.028320312","15.0","35.3125","17.3125"
"1542027182715","1197","0.57910156","0.041992188","-0.15527344","-13.125","15.65625","23.25"
"1542027182716","1198","0.5605469","0.11816406","-0.21582031","-40.96875","1.5","23.96875"
"1542027182716","1199","0.57714844","0.0859375","-0.046875","-62.6875","-18.4375","20.375"
"1542027182716","1200","0.8027344","0.16601562","0.034179688","-86.375","-31.03125","7.0"
"1542027182717","1201","1.0810547","0.123046875","0.19140625","-95.34375","-44.5","-5.4375"
"1542027182718","1202","1.1376953","0.087890625","0.21679688","-118.90625","-49.34375","-14.3125"
"1542027182718","1203","1.3408203","0.1640625","0.17675781","-128.875","-45.3125","-2.75"
"1542027182718","1204","1.4873047","0.18945312","0.22949219","-128.0625","-37.5625","30.0"
"1542027182911","1205","1.6591797","0.51660156","-0.08105469","1.3125","12.75","22.75"
"1542027182911","1206","0.75683594","0.15917969","-0.08886719","-6.90625","8.09375","-25.53125"
"1542027182911","1207","0.96777344","0.23632812","-0.23828125","9.5625","17.4375","-60.125"
"1542027182912","1208","1.3339844","0.20019531","0.026367188","75.1875","9.03125","-16.875"
"1542027182913","1209","1.3564453","-0.12792969","0.28320312","31.1875","-13.4375","-7.875"
"1542027183112","1210","1.1298828","-0.01171875","0.0126953125","-42.4375","-6.84375","-28.6875"
"1542027183113","1211","0.85546875","0.07324219","-0.06347656","2.375","9.6875","-11.0"
"1542027183113","1212","0.6503906","-0.03515625","0.029296875","35.625","9.5","8.21875"
"1542027183113","1213","0.6123047","-0.049804688","-0.029296875","6.8125","-4.15625","15.84375"
"1542027183113","1214","0.6035156","-0.00390625","0.043945312","-26.5","-20.9375","12.875"
"1542027183308","1215","0.67285156","0.076171875","0.0625","-49.875","-33.53125","2.375"
"1542027183308","1216","0.7832031","0.055664062","0.09082031","-80.15625","-48.28125","-15.6875"
"1542027183309","1217","0.80371094","0.12890625","0.091796875","-114.8125","-54.875","-29.75"
"1542027183310","1218","0.83691406","0.21679688","-0.009765625","-96.8125","-50.125","-22.46875"
"1542027183310","1219","0.96484375","0.26367188","-0.026367188","-57.8125","-37.3125","-1.90625"
"1542027183507","1220","1.1337891","0.3232422","-0.08984375","-25.53125","-21.5625","12.9375"
"1542027183507","1221","2.0","0.43847656","0.038085938","-32.71875","2.0","39.53125"
"1542027183508","1222","1.3769531","0.5371094","-0.44628906","11.53125","42.15625","62.0"
"1542027183508","1223","1.2001953","0.50097656","-0.40039062","122.96875","53.375","40.03125"
"1542027183509","1224","1.0722656","-0.01171875","-0.14550781","71.8125","20.90625","15.96875"
"1542027183706","1225","0.6660156","0.18652344","-0.2734375","-79.71875","-6.4375","-23.28125"
"1542027183707","1226","0.34960938","0.38671875","-0.35058594","-56.65625","-6.59375","-38.59375"
"1542027183708","1227","0.34570312","0.2939453","-0.2548828","17.875","0.65625","-31.9375"
"1542027183708","1228","0.52734375","0.23535156","-0.17578125","39.0","1.625","-21.625"
"1542027183708","1229","0.55859375","0.23632812","-0.140625","28.4375","-3.5","-17.53125"
"1542027183905","1230","0.49609375","0.2998047","-0.1796875","31.28125","-4.71875","-27.34375"
"1542027183905","1231","0.8847656","0.33496094","-0.15039062","56.1875","-3.875","-33.21875"
"1542027183905","1232","1.6767578","0.22167969","0.14257812","49.125","-19.53125","-41.75"
"1542027183906","1233","2.0","0.12109375","0.24707031","-13.375","-30.28125","-51.21875"
"1542027183906","1234","1.9335938","0.12890625","0.27441406","-53.71875","-10.5625","-35.40625"
"1542027184105","1235","1.4462891","0.23925781","-0.045898438","-5.25","23.59375","-30.53125"
"1542027184105","1236","1.203125","0.10058594","-0.09277344","47.46875","45.03125","3.21875"
"1542027184106","1237","0.67578125","0.0703125","-0.22070312","29.03125","45.21875","35.1875"
"1542027184106","1238","0.3984375","0.07128906","-0.28027344","20.4375","26.96875","50.78125"
"1542027184106","1239","0.36523438","0.119140625","-0.28515625","12.75","1.8125","54.6875"
"1542027184304","1240","0.4658203","0.060546875","-0.125","-24.3125","-29.25","39.28125"
"1542027184304","1241","0.60253906","0.11425781","-0.02734375","-85.15625","-53.0625","5.21875"
"1542027184304","1242","0.6796875","0.13964844","-0.037109375","-110.96875","-62.34375","-32.5"
"1542027184304","1243","1.0605469","0.21582031","-0.022460938","-76.125","-58.5","-37.125"
"1542027184305","1244","1.5634766","0.234375","0.119140625","-50.125","-48.21875","-3.96875"
"1542027184501","1245","2.0","0.34570312","0.17480469","-77.09375","-7.65625","43.9375"
"1542027184501","1246","1.2685547","0.5048828","-0.5527344","-37.0","59.6875","65.46875"
"1542027184501","1247","1.375","0.5595703","-0.21289062","71.53125","79.75","68.59375"
"1542027184502","1248","1.1601562","0.045898438","-0.16992188","22.8125","42.84375","59.1875"
"1542027184700","1249","0.5566406","0.22460938","-0.37890625","-139.90625","13.0","5.34375"
"1542027184700","1250","0.29296875","0.4169922","-0.39941406","-114.09375","12.3125","-18.25"
"1542027184702","1251","0.39746094","0.36035156","-0.30859375","-18.4375","13.65625","-9.65625"
"1542027184703","1252","0.55371094","0.17773438","-0.18847656","-0.3125","10.125","-8.75"
"1542027184703","1253","0.7285156","0.203125","-0.17382812","-23.28125","5.71875","-8.1875"
"1542027184899","1254","0.85253906","0.23535156","-0.09472656","-29.3125","5.34375","-12.53125"
"1542027184899","1255","0.9082031","0.18164062","-0.08105469","-33.28125","5.28125","-29.96875"
"1542027184899","1256","1.3574219","0.2265625","0.016601562","-35.0625","1.6875","-30.28125"
"1542027184899","1257","1.46875","0.19628906","0.14648438","-42.9375","-10.4375","-23.875"
"1542027184901","1258","2.0","0.32128906","0.2529297","-36.46875","-12.40625","-8.0625"
"1542027185099","1259","1.4277344","0.15625","0.015625","-10.8125","5.96875","-11.125"
"1542027185099","1260","1.4550781","0.125","-0.052734375","-30.46875","22.125","-19.96875"
"1542027185100","1261","1.1728516","0.18359375","-0.040039062","-46.71875","11.875","5.53125"
"1542027185100","1262","0.6875","0.1640625","-0.20019531","-51.59375","-2.8125","11.59375"
"1542027185100","1263","0.59472656","0.1640625","-0.17871094","-55.0","-9.90625","7.6875"
"1542027185297","1264","0.73339844","0.15039062","-0.0625","-65.75","-23.8125","5.34375"
"1542027185298","1265","0.796875","0.16894531","0.0068359375","-76.625","-35.40625","0.65625"
"1542027185298","1266","1.0068359","0.13769531","0.09667969","-83.5625","-45.1875","-1.25"
"1542027185298","1267","1.0742188","0.08105469","0.14941406","-103.40625","-53.0625","-2.46875"
"1542027185299","1268","1.2851562","0.119140625","0.14648438","-132.46875","-57.6875","4.0625"
"1542027185495","1269","1.390625","0.18164062","0.1875","-145.21875","-50.5","29.03125"
"1542027185495","1270","0.6455078","0.33007812","-0.25097656","-76.6875","-14.25","39.90625"
"1542027185495","1271","1.3857422","0.18457031","-0.13378906","32.625","15.84375","34.34375"
"1542027185496","1272","1.2373047","-0.203125","0.15332031","-36.09375","-9.53125","15.0625"
"1542027185497","1273","0.90527344","0.06640625","-0.18066406","-153.59375","-20.40625","-19.125"
"1542027185695","1274","0.6640625","0.22851562","-0.19238281","-110.125","-15.8125","-4.59375"
"1542027185695","1275","0.5986328","0.20410156","-0.16992188","-78.6875","-6.96875","13.96875"
"1542027185695","1276","0.62890625","0.3046875","-0.21582031","-61.28125","0.59375","26.90625"
"1542027185894","1277","0.61328125","0.3486328","-0.21191406","-39.25","8.78125","31.71875"
"1542027185894","1278","0.70214844","0.3515625","-0.24511719","-23.75","13.21875","16.65625"
"1542027185894","1279","0.74902344","0.3232422","-0.21972656","-20.71875","13.21875","-3.5625"
"1542027185894","1280","0.7685547","0.3623047","-0.25097656","-21.0625","14.4375","-14.71875"
"1542027185894","1281","0.79589844","0.3388672","-0.25","1.6875","20.1875","-13.875"
"1542027185896","1282","0.69433594","0.25878906","-0.23632812","24.34375","21.46875","-13.875"
"1542027185896","1283","1.0810547","0.3359375","-0.19433594","67.0625","20.5625","-8.6875"
"1542027186094","1284","1.5097656","0.13867188","0.0859375","79.6875","-1.125","-16.0625"
"1542027186095","1285","2.0","-0.013671875","0.41210938","26.90625","-27.25","-33.53125"
"1542027186095","1286","1.3203125","-0.17773438","0.3076172","-63.375","-52.8125","-73.25"
"1542027186096","1287","1.3388672","0.01953125","0.045898438","-77.21875","-11.84375","-86.0625"
"1542027186096","1288","0.9902344","0.19824219","-0.02734375","9.375","11.9375","-18.09375"
"1542027186289","1289","0.66308594","0.028320312","-0.009765625","47.03125","19.46875","34.53125"
"1542027186291","1290","0.6542969","0.05859375","-0.01953125","30.0","13.96875","52.78125"
"1542027186291","1291","0.6855469","0.07910156","0.022460938","8.96875","-0.5","47.03125"
"1542027186291","1292","0.62890625","0.076171875","0.0390625","-31.25","-14.125","26.0"
"1542027186292","1293","0.6503906","0.0703125","0.0078125","-50.625","-18.5","2.65625"
"1542027186488","1294","0.6777344","0.030273438","0.087890625","-67.34375","-26.5","-8.5"
"1542027186489","1295","0.7841797","0.10546875","0.07714844","-73.0625","-32.5","-0.9375"
"1542027186489","1296","0.8457031","0.10449219","-0.009765625","-59.9375","-31.25","15.84375"
"1542027186687","1297","1.1894531","0.083984375","0.107421875","-60.9375","-19.78125","34.53125"
"1542027186689","1298","1.8095703","0.22949219","0.1171875","-38.53125","9.4375","70.0"
"1542027186689","1299","1.7880859","0.34570312","-0.23242188","35.03125","44.53125","107.53125"
"1542027186689","1300","1.4453125","0.26757812","-0.4189453","118.28125","72.1875","96.34375"
"1542027186689","1301","1.2138672","-0.06640625","-0.07714844","93.6875","60.46875","55.65625"
"1542027186689","1302","0.83691406","-0.0048828125","-0.20605469","-33.03125","13.65625","13.71875"
"1542027186691","1303","0.52246094","0.16894531","-0.34277344","-47.875","0.15625","-17.53125"
