"# PDIoT walking data"
"# Start time: 20181002T133313"
"# Group: F"
"# Subject: Natasa"
"# Activity type: Climbing stairs"
"# Sensor position: Wrist"
"# Side of body: Right"
"# Sensor mounting: Body"
"# Number of steps: 30"
"# Notes: "
""
"timestamp","seq","accel_x","accel_y","accel_z","gyro_x","gyro_y","gyro_z"
"1538483593700","0","-0.35253906","-0.22753906","-0.91015625","1.0","7.65625","-2.0625"
"1538483593701","1","-0.29882812","-0.17675781","-0.9160156","7.03125","8.8125","-8.0625"
"1538483593701","2","-0.26464844","-0.22167969","-0.9560547","-4.8125","-0.8125","-17.5625"
"1538483593701","3","-0.2919922","-0.20410156","-0.96972656","13.6875","-14.5","-23.6875"
"1538483593701","4","-0.29882812","-0.140625","-0.92089844","12.09375","-10.15625","-38.5625"
"1538483593898","5","-0.2861328","-0.19140625","-0.8486328","5.3125","1.5","-50.78125"
"1538483593898","6","-0.3203125","-0.23535156","-0.80371094","2.09375","11.625","-54.5625"
"1538483593899","7","-0.35253906","-0.2998047","-0.8486328","2.28125","30.5625","-56.53125"
"1538483593902","8","-0.37304688","-0.3251953","-0.76953125","-18.46875","45.9375","-60.125"
"1538483593902","9","-0.33496094","-0.29296875","-0.7597656","-34.28125","60.21875","-59.5625"
"1538483594098","10","-0.27539062","-0.24414062","-0.79296875","13.875","81.21875","-65.4375"
"1538483594099","11","-0.23046875","-0.18945312","-0.65527344","38.46875","104.59375","-79.28125"
"1538483594099","12","-0.09375","-0.11816406","-0.47070312","57.625","134.5","-90.40625"
"1538483594100","13","0.083984375","-0.28222656","-0.7216797","60.1875","166.84375","-107.53125"
"1538483594100","14","0.17089844","-0.14160156","-0.5957031","49.21875","193.09375","-124.375"
"1538483594296","15","0.40039062","-0.16601562","-0.453125","36.21875","217.6875","-136.78125"
"1538483594296","16","0.7763672","-0.56933594","-0.9248047","-79.6875","251.9375","-156.625"
"1538483594296","17","0.828125","0.0078125","-0.52246094","-79.53125","287.09375","-145.8125"
"1538483594297","18","1.3037109","0.24023438","-0.17480469","17.78125","316.25","-136.84375"
"1538483594298","19","2.0058594","0.18554688","-0.22363281","136.53125","307.96875","-151.5"
"1538483594494","20","2.0058594","-0.296875","-0.296875","141.125","215.375","-188.46875"
"1538483594495","21","1.8867188","-0.3828125","-0.24023438","35.71875","104.90625","-162.28125"
"1538483594498","22","1.3144531","-0.13671875","-0.30566406","-43.6875","-4.25","-66.15625"
"1538483594498","23","0.42773438","0.12109375","-0.17773438","-0.21875","-89.125","25.5"
"1538483594498","24","0.765625","0.13476562","-0.11230469","112.8125","-49.78125","71.96875"
"1538483594694","25","1.2958984","-0.037109375","-0.21777344","160.03125","-69.1875","99.71875"
"1538483594694","26","1.7988281","-0.17578125","-0.25097656","137.28125","-121.53125","98.875"
"1538483594694","27","1.4296875","-0.15820312","-0.43359375","67.40625","-111.78125","69.34375"
"1538483594695","28","1.2568359","-0.13769531","-0.55859375","3.3125","-50.0625","64.53125"
"1538483594695","29","1.0761719","-0.35253906","-0.45507812","-65.59375","-18.6875","65.84375"
"1538483594894","30","0.72558594","-0.21289062","-0.47460938","-123.65625","-16.25","60.0625"
"1538483594894","31","0.20996094","-0.047851562","-0.6142578","-141.34375","-49.9375","61.46875"
"1538483594894","32","-0.39746094","-0.12597656","-0.43164062","-126.09375","-76.0","88.6875"
"1538483594894","33","0.024414062","-0.43554688","-0.37890625","-184.5625","-29.6875","105.40625"
"1538483594894","34","0.3857422","-0.4375","-0.44335938","-199.75","-8.8125","91.875"
"1538483595090","35","0.74609375","-1.0947266","-0.55859375","-164.53125","-23.53125","80.1875"
"1538483595091","36","0.9814453","-1.1757812","-0.39453125","-171.875","-26.03125","75.4375"
"1538483595092","37","1.9111328","-1.0117188","-0.38867188","-116.1875","-16.125","86.0"
"1538483595092","38","1.6601562","-0.78125","-0.09277344","-26.96875","-53.125","105.90625"
"1538483595093","39","1.2529297","-0.546875","0.055664062","-43.5","-30.34375","135.25"
"1538483595292","40","0.94140625","-0.06347656","0.15722656","-80.8125","-10.875","126.78125"
"1538483595292","41","0.5966797","0.15820312","0.12597656","-8.90625","20.1875","94.65625"
"1538483595292","42","0.34960938","0.26464844","0.038085938","-16.59375","42.46875","47.1875"
"1538483595488","43","0.38671875","0.17382812","-0.10644531","-49.65625","71.6875","-0.1875"
"1538483595489","44","0.87402344","0.033203125","-0.1796875","-72.4375","102.75","-52.84375"
"1538483595490","45","1.3007812","0.0546875","-0.23925781","-78.25","116.3125","-102.71875"
"1538483595490","46","1.7207031","-0.15917969","-0.40820312","-63.15625","151.84375","-116.03125"
"1538483595490","47","1.5732422","-0.15039062","-0.42089844","-123.46875","135.65625","-79.03125"
"1538483595491","48","1.3339844","-0.10644531","-0.38867188","-122.0","88.65625","-22.8125"
"1538483595492","49","1.2207031","-0.055664062","-0.7080078","-76.59375","45.09375","-9.59375"
"1538483595688","50","0.8330078","-0.14257812","-0.8125","-19.46875","1.9375","-14.71875"
"1538483595688","51","0.453125","-0.4033203","-0.9345703","-19.40625","-24.3125","9.21875"
"1538483595688","52","0.27539062","-0.53808594","-0.9902344","-54.4375","-39.21875","46.375"
"1538483595688","53","0.10058594","-0.6660156","-0.8388672","-139.5625","-58.5625","74.46875"
"1538483595689","54","0.7480469","-1.0830078","-0.8359375","-236.75","4.375","86.78125"
"1538483595887","55","1.4101562","-1.2070312","-0.6269531","-262.9375","-92.125","91.3125"
"1538483595887","56","1.8261719","-1.6386719","-0.69921875","-180.59375","-138.34375","94.96875"
"1538483595887","57","2.0058594","-1.5332031","-0.42773438","-145.625","-172.3125","120.1875"
"1538483595889","58","2.0058594","-1.0244141","-0.061523438","-55.21875","-199.0625","163.5"
"1538483595889","59","2.0058594","-0.67578125","0.24316406","-33.25","-146.75","214.71875"
"1538483596085","60","1.5957031","-0.12207031","0.6113281","-123.40625","-90.1875","193.71875"
"1538483596085","61","1.0029297","0.92578125","0.8769531","-73.59375","-38.78125","163.5"
"1538483596085","62","0.30273438","1.1855469","0.70214844","11.53125","39.34375","44.125"
"1538483596283","63","0.77441406","1.0019531","0.40429688","-27.625","101.125","-104.4375"
"1538483596285","64","1.3261719","0.4716797","0.1953125","12.03125","148.90625","-174.9375"
"1538483596286","65","1.859375","-0.056640625","-0.30859375","109.15625","167.8125","-176.8125"
"1538483596286","66","1.8144531","-0.27148438","-0.6777344","98.21875","149.875","-156.84375"
"1538483596286","67","1.6787109","-0.7236328","-1.21875","51.9375","135.09375","-102.90625"
"1538483596287","68","1.5751953","-0.77734375","-1.3417969","12.34375","106.375","-78.0625"
"1538483596287","69","1.1630859","-0.8876953","-1.1992188","40.40625","48.4375","-29.40625"
"1538483596481","70","0.6298828","-1.1103516","-1.2646484","56.65625","-1.5","32.84375"
"1538483596484","71","0.0234375","-1.0253906","-1.2333984","-95.6875","-68.4375","94.3125"
"1538483596484","72","-0.34472656","-0.75097656","-0.8886719","-145.625","-76.3125","168.28125"
"1538483596485","73","0.5839844","-0.9716797","-0.6894531","-203.59375","-63.0","208.1875"
"1538483596486","74","1.9306641","-0.9550781","-0.47753906","-255.0625","-55.25","180.96875"
"1538483596680","75","1.7822266","-0.6308594","-0.15820312","-206.46875","-152.78125","134.15625"
"1538483596681","76","2.0058594","-0.7314453","0.22363281","-96.25","-102.0","127.03125"
"1538483596681","77","2.0058594","-0.041992188","0.7207031","-86.15625","-81.9375","86.3125"
"1538483596682","78","1.2050781","0.3076172","0.7109375","-18.46875","10.71875","64.46875"
"1538483596682","79","0.66796875","0.5185547","0.6611328","-37.21875","77.84375","18.375"
"1538483596882","80","0.38476562","0.5751953","0.3330078","-4.9375","97.15625","-21.53125"
"1538483596882","81","0.49023438","0.4033203","0.055664062","63.5625","110.375","-76.0625"
"1538483596882","82","0.7949219","0.0390625","-0.19628906","110.71875","110.4375","-124.5625"
"1538483596882","83","1.4824219","-0.22949219","-0.5986328","121.53125","114.0625","-131.59375"
"1538483596882","84","1.5791016","-0.3408203","-0.828125","82.34375","91.03125","-115.125"
"1538483597078","85","1.6054688","-0.4716797","-0.9638672","69.21875","76.8125","-80.3125"
"1538483597079","86","1.5869141","-0.6269531","-1.171875","60.375","46.78125","-54.0"
"1538483597080","87","1.2509766","-0.7314453","-1.2060547","35.21875","17.625","-18.5625"
"1538483597084","88","0.7050781","-0.5830078","-1.0957031","16.5","-40.90625","25.625"
"1538483597084","89","-0.05078125","-0.484375","-1.1621094","-40.53125","-102.125","60.5625"
"1538483597280","90","-0.10644531","-0.5","-0.8720703","-97.15625","-94.875","95.875"
"1538483597280","91","0.60839844","-0.671875","-0.6953125","-129.8125","-74.84375","136.15625"
"1538483597280","92","1.1123047","-0.8300781","-0.56152344","-140.90625","-103.125","147.71875"
"1538483597281","93","1.265625","-0.8232422","-0.4765625","-140.6875","-121.25","128.25"
"1538483597281","94","1.4882812","-0.80078125","-0.375","-96.4375","-102.125","115.53125"
"1538483597478","95","1.8154297","-0.22460938","-0.061523438","-69.375","-74.96875","99.0"
"1538483597478","96","1.2949219","0.296875","0.63183594","2.875","-37.125","81.4375"
"1538483597479","97","1.0615234","0.6035156","0.60058594","-0.71875","47.53125","36.1875"
"1538483597480","98","0.9160156","0.5917969","0.41308594","-5.0","102.75","-42.78125"
"1538483597480","99","0.8222656","0.60253906","0.09765625","37.5","104.65625","-102.46875"
"1538483597675","100","1.0556641","0.2998047","-0.044921875","173.15625","97.625","-160.875"
"1538483597675","101","1.3691406","-0.30566406","-0.5625","225.40625","94.53125","-185.25"
"1538483597675","102","1.6591797","-0.7441406","-0.9199219","124.65625","90.0","-166.0"
"1538483597676","103","1.6572266","-0.8925781","-1.1054688","60.5","66.25","-125.4375"
"1538483597676","104","1.3886719","-0.92285156","-1.1845703","57.9375","40.25","-64.6875"
"1538483597875","105","0.8339844","-0.85253906","-1.09375","48.53125","12.3125","-18.90625"
"1538483597876","106","0.28222656","-0.7207031","-1.0869141","-15.6875","-21.6875","24.21875"
"1538483597876","107","-0.11425781","-0.5957031","-0.96191406","-65.28125","-58.75","63.0"
"1538483597876","108","-0.0703125","-0.53808594","-0.78027344","-88.4375","-77.125","104.96875"
"1538483597876","109","0.59277344","-0.75390625","-0.6767578","-107.71875","-71.0","145.9375"
"1538483598072","110","1.6269531","-0.87597656","-0.7011719","-125.0625","-88.59375","159.78125"
"1538483598073","111","1.4277344","-0.6308594","-0.53808594","-101.0","-128.875","174.5625"
"1538483598073","112","1.9453125","-0.65527344","-0.44433594","-73.28125","-88.9375","172.125"
"1538483598073","113","1.8632812","-0.16210938","0.17382812","-57.0625","-68.125","104.4375"
"1538483598074","114","1.1699219","0.5595703","0.52441406","23.875","-18.75","64.15625"
"1538483598273","115","0.71972656","0.66503906","0.59375","33.03125","56.9375","9.71875"
"1538483598273","116","0.57910156","0.61328125","0.12597656","44.375","100.75","-65.5625"
"1538483598273","117","0.78515625","0.33789062","0.001953125","66.90625","101.0625","-126.28125"
"1538483598273","118","1.1123047","-0.19726562","-0.39746094","116.65625","85.25","-181.8125"
"1538483598273","119","1.4179688","-0.2685547","-0.7480469","74.46875","79.4375","-183.65625"
"1538483598471","120","1.5019531","-0.3701172","-0.734375","68.625","101.71875","-169.4375"
"1538483598471","121","1.6845703","-0.65234375","-0.7109375","74.59375","124.0625","-177.90625"
"1538483598472","122","1.6230469","-0.51660156","-0.6123047","35.40625","112.21875","-164.125"
"1538483598472","123","1.0898438","-0.45703125","-0.77441406","47.4375","76.5","-88.125"
"1538483598669","124","0.44726562","-0.41210938","-0.9423828","53.46875","22.0625","-22.71875"
"1538483598669","125","-0.16210938","-0.5","-0.8095703","-2.6875","-22.53125","11.40625"
"1538483598669","126","0.107421875","-0.54589844","-0.68359375","-115.59375","8.28125","37.40625"
"1538483598669","127","0.9589844","-0.52734375","-0.4501953","-233.875","37.4375","46.5"
"1538483598670","128","1.3046875","-0.3408203","-0.2939453","-280.125","-62.21875","32.78125"
"1538483598869","129","2.0058594","-0.140625","-0.3466797","-243.6875","-52.625","32.46875"
"1538483598869","130","2.0058594","0.038085938","-0.13769531","-104.34375","-116.78125","47.0"
"1538483598869","131","1.8867188","0.052734375","0.13964844","55.625","-189.40625","107.5"
"1538483598869","132","1.3916016","0.16601562","0.6152344","67.21875","-235.875","156.4375"
"1538483598870","133","0.28222656","0.7246094","0.7578125","119.625","-193.375","182.9375"
"1538483599066","134","0.32128906","0.43652344","0.4404297","-5.40625","-146.5","122.625"
"1538483599066","135","0.78027344","0.3876953","0.032226562","32.96875","-87.0625","29.59375"
"1538483599066","136","0.7919922","0.29785156","-0.05859375","100.71875","0.03125","-63.46875"
"1538483599067","137","1.03125","0.09277344","-0.056640625","131.71875","69.9375","-127.0"
"1538483599068","138","1.2861328","-0.20410156","-0.32910156","104.375","111.3125","-163.5"
"1538483599266","139","1.6650391","-0.46777344","-0.6152344","124.46875","155.125","-190.71875"
"1538483599266","140","1.5400391","-0.93847656","-1.0263672","85.71875","180.6875","-186.78125"
"1538483599266","141","1.0263672","-0.88964844","-1.03125","43.53125","124.84375","-91.96875"
"1538483599267","142","0.35546875","-1.0273438","-1.4765625","43.78125","18.96875","-27.09375"
"1538483599267","143","-0.38378906","-1.0478516","-1.2255859","-86.15625","-51.90625","19.15625"
"1538483599463","144","0.3671875","-0.859375","-1.1171875","-110.53125","-52.4375","101.4375"
"1538483599465","145","1.4287109","-0.9326172","-0.7314453","-116.4375","-73.5625","133.78125"
"1538483599465","146","1.7900391","-0.6767578","-0.63964844","-128.84375","-173.78125","153.5"
"1538483599465","147","2.0058594","-0.54296875","-0.34960938","-69.25","-158.40625","153.8125"
"1538483599466","148","2.0058594","-0.0234375","0.26464844","-59.0","-154.625","100.15625"
"1538483599661","149","1.1904297","0.16601562","0.56933594","10.3125","-87.90625","49.625"
"1538483599661","150","0.7578125","0.6279297","0.90234375","-7.9375","15.0","-1.78125"
"1538483599662","151","0.515625","0.63671875","0.7832031","-26.34375","88.0625","-60.46875"
"1538483599663","152","0.71484375","0.5654297","0.3857422","8.4375","137.96875","-113.28125"
"1538483599664","153","1.3369141","9.765625E-4","-0.07128906","119.9375","142.75","-170.59375"
"1538483599863","154","1.6611328","-0.47070312","-0.46289062","180.5625","105.4375","-164.78125"
"1538483599863","155","1.6337891","-1.0068359","-0.9550781","152.59375","61.75","-136.78125"
"1538483599863","156","1.3818359","-0.98828125","-1.0126953","117.8125","31.28125","-95.09375"
"1538483599864","157","1.0957031","-1.046875","-1.2578125","102.375","20.71875","-64.375"
"1538483599864","158","0.72558594","-1.0253906","-1.046875","61.96875","-0.8125","-6.71875"
"1538483600059","159","0.42871094","-0.8466797","-0.9941406","-15.375","-33.21875","51.46875"
"1538483600061","160","0.10253906","-0.53515625","-0.82128906","-65.84375","-64.125","94.59375"
"1538483600061","161","-0.0146484375","-0.5703125","-0.5683594","-60.84375","-63.8125","141.71875"
"1538483600061","162","0.5878906","-0.8623047","-0.6279297","-148.125","-47.75","168.6875"
"1538483600061","163","1.1865234","-0.91503906","-0.54003906","-198.0625","-76.0","175.96875"
"1538483600259","164","1.3232422","-0.7314453","-0.4716797","-154.65625","-116.21875","161.75"
"1538483600260","165","1.7373047","-0.5566406","-0.38671875","-61.6875","-95.71875","139.21875"
"1538483600260","166","1.6337891","-0.35058594","-0.10253906","-26.71875","-45.375","81.53125"
"1538483600260","167","1.1445312","-0.12597656","0.17675781","-17.03125","14.4375","36.9375"
"1538483600260","168","0.5839844","0.68359375","0.5566406","15.21875","60.15625","-6.40625"
"1538483600457","169","0.5136719","0.05078125","0.06347656","37.1875","150.90625","-88.25"
"1538483600458","170","0.44628906","0.13183594","-0.13574219","-74.34375","171.65625","-142.75"
"1538483600458","171","1.1650391","-0.29882812","-0.24121094","-151.34375","181.875","-119.875"
"1538483600458","172","1.3623047","-0.08984375","-0.3388672","-181.25","118.09375","-113.875"
"1538483600459","173","1.3896484","0.115234375","-0.35253906","-11.09375","91.90625","-81.1875"
"1538483600656","174","1.3251953","0.13574219","-0.25195312","176.03125","80.40625","-37.21875"
"1538483600656","175","1.2392578","-0.20898438","-0.3203125","228.90625","85.59375","-20.03125"
"1538483600656","176","1.0595703","-0.51171875","-0.44726562","103.40625","83.53125","-44.5625"
"1538483600857","177","0.8388672","-0.31933594","-0.4033203","-86.78125","65.53125","-60.59375"
"1538483600857","178","0.58691406","-0.115234375","-0.43847656","-115.65625","48.375","-38.75"
"1538483600857","179","0.5908203","-0.08984375","-0.49902344","-63.96875","33.78125","-13.65625"
"1538483601053","180","0.65527344","-0.11035156","-0.45898438","-40.15625","3.46875","2.6875"
"1538483601054","181","0.7763672","-0.111328125","-0.5097656","-39.96875","-21.3125","8.84375"
"1538483601055","182","0.8955078","-0.17089844","-0.515625","-50.53125","-36.03125","11.84375"
"1538483601055","183","1.03125","-0.18359375","-0.4560547","-69.9375","-51.96875","17.65625"
"1538483601055","184","1.1259766","-0.18164062","-0.40429688","-92.53125","-68.75","22.84375"
"1538483601057","185","1.1728516","-0.13769531","-0.28808594","-84.28125","-96.59375","28.75"
"1538483601057","186","1.4814453","-0.16015625","-0.24902344","-8.40625","-84.4375","42.78125"
"1538483601255","187","1.453125","-0.27929688","-0.17480469","26.5","-95.40625","46.625"
"1538483601255","188","1.0859375","-0.38183594","0.0048828125","-5.65625","-75.46875","71.09375"
"1538483601255","189","1.1552734","-0.40820312","-0.045898438","-88.25","-35.0","78.84375"
"1538483601255","190","0.97265625","-0.41601562","-0.005859375","-178.09375","-13.21875","61.78125"
"1538483601255","191","0.8486328","-0.3359375","0.0","-195.4375","2.90625","61.65625"
"1538483601255","192","0.77441406","-0.34277344","-0.15332031","-188.21875","9.8125","75.3125"
"1538483601256","193","0.82421875","-0.43066406","-0.24707031","-194.03125","4.625","81.90625"
"1538483601652","194","0.88671875","-0.48339844","-0.25","-207.8125","-15.84375","78.90625"
"1538483601652","195","0.90527344","-0.46484375","-0.28320312","-210.3125","-41.59375","69.46875"
"1538483601652","196","1.0585938","-0.30859375","-0.34765625","-178.46875","-60.8125","55.0"
"1538483601652","197","1.1767578","-0.20898438","-0.34472656","-82.9375","-81.4375","38.75"
"1538483601652","198","1.2431641","-0.19238281","-0.29492188","22.71875","-96.6875","30.75"
"1538483601653","199","1.2236328","-0.15039062","-0.20214844","90.96875","-100.4375","36.9375"
"1538483601653","200","1.1787109","-0.14453125","-0.20507812","141.3125","-76.4375","43.03125"
"1538483601654","201","0.67285156","0.055664062","-0.2919922","123.125","-38.71875","55.84375"
"1538483601654","202","0.94921875","-0.09277344","-0.32714844","74.78125","31.59375","52.8125"
"1538483601849","203","0.9707031","0.08300781","-0.2998047","-69.75","95.125","-13.65625"
"1538483601850","204","0.91308594","0.080078125","-0.296875","-65.65625","120.75","-42.34375"
"1538483601850","205","0.87597656","-0.07519531","-0.35253906","-56.3125","150.1875","-67.9375"
"1538483601850","206","0.90527344","-0.13476562","-0.37890625","-111.8125","168.0","-80.8125"
"1538483601851","207","1.0039062","-0.12402344","-0.4951172","-173.21875","172.09375","-80.4375"
"1538483602047","208","1.0664062","-0.02734375","-0.6308594","-156.84375","151.71875","-68.46875"
"1538483602049","209","1.1689453","-0.083984375","-0.6347656","-206.46875","101.71875","-54.4375"
"1538483602049","210","1.2246094","0.024414062","-0.77246094","-184.625","48.3125","-31.5625"
"1538483602049","211","1.3173828","0.0546875","-0.7089844","-103.625","-6.3125","-18.375"
"1538483602049","212","1.2685547","-0.19726562","-0.65527344","-49.65625","-53.4375","-7.625"
"1538483602250","213","1.0097656","-0.32226562","-0.53125","-35.8125","-90.84375","22.09375"
"1538483602250","214","0.80078125","-0.453125","-0.43554688","-44.90625","-108.65625","66.96875"
"1538483602250","215","1.1669922","-0.80859375","-0.58691406","-117.0625","-93.96875","86.90625"
"1538483602250","216","1.2001953","-0.84472656","-0.36816406","-165.15625","-149.3125","90.53125"
"1538483602251","217","1.2519531","-0.875","-0.15234375","-75.3125","-187.875","116.21875"
"1538483602445","218","1.9277344","-1.0058594","-0.052734375","-16.40625","-174.21875","159.375"
"1538483602446","219","1.9375","-0.6826172","0.021484375","-27.28125","-174.40625","202.8125"
"1538483602446","220","1.9785156","-0.34375","0.053710938","-50.15625","-128.75","217.09375"
"1538483602447","221","1.6787109","-0.03515625","0.16210938","-58.09375","-94.375","162.71875"
"1538483602447","222","1.3876953","0.16894531","0.2890625","-36.84375","-41.53125","90.9375"
"1538483602644","223","0.9248047","0.44726562","0.48535156","-4.1875","24.40625","45.03125"
"1538483602645","224","0.703125","0.33203125","0.43359375","-30.9375","69.8125","5.4375"
"1538483602645","225","0.54785156","0.38183594","0.34375","-13.40625","100.9375","-20.125"
"1538483602645","226","0.7685547","0.17089844","0.064453125","42.125","141.21875","-59.3125"
"1538483602645","227","0.9560547","-0.046875","-0.27929688","33.34375","166.84375","-103.625"
"1538483602844","228","1.5341797","-0.2734375","-0.6201172","-31.3125","187.65625","-150.8125"
"1538483602845","229","1.9609375","-0.27246094","-0.875","-55.21875","183.375","-143.96875"
"1538483602846","230","2.0058594","-0.3359375","-1.0927734","48.09375","153.65625","-97.59375"
"1538483602846","231","1.7265625","-0.53027344","-1.2412109","125.125","81.59375","-53.46875"
"1538483602846","232","1.0087891","-0.6015625","-1.09375","131.78125","-8.09375","-26.0625"
"1538483603041","233","0.35742188","-0.57714844","-1.0273438","109.25","-59.78125","5.0625"
"1538483603041","234","-0.16992188","-0.6171875","-0.95996094","46.9375","-88.09375","32.15625"
"1538483603242","235","-0.20507812","-0.8095703","-0.78027344","-52.0625","-56.84375","67.25"
"1538483603242","236","0.4404297","-0.7861328","-0.60839844","-184.4375","-48.0","116.6875"
"1538483603242","237","1.4072266","-0.74609375","-0.5908203","-208.5","-55.625","132.5625"
"1538483603242","238","1.7216797","-0.61035156","-0.54003906","-172.0","-105.0625","128.3125"
"1538483603244","239","2.0058594","-0.60058594","-0.27441406","-111.8125","-96.34375","103.15625"
"1538483603244","240","1.9296875","-0.051757812","0.2705078","-65.125","-115.0625","58.21875"
"1538483603245","241","1.2246094","0.1328125","0.7529297","29.5","-60.5625","39.84375"
"1538483603245","242","0.5878906","0.40429688","0.8066406","1.90625","20.1875","21.71875"
"1538483603440","243","0.4404297","0.38378906","0.38476562","1.0625","89.9375","-19.84375"
"1538483603440","244","0.6113281","0.34765625","0.013671875","48.09375","113.3125","-57.96875"
"1538483603441","245","0.9667969","-0.083984375","-0.33984375","113.96875","95.1875","-104.125"
"1538483603441","246","1.4277344","-0.31835938","-0.5859375","92.0","72.5625","-111.9375"
"1538483603441","247","1.4453125","-0.37402344","-0.6533203","84.84375","40.625","-78.90625"
"1538483603637","248","1.3476562","-0.59472656","-0.7421875","81.625","33.71875","-51.28125"
"1538483603638","249","1.2705078","-0.61035156","-1.0488281","33.03125","28.59375","-36.625"
"1538483603638","250","0.80371094","-0.5761719","-1.0332031","51.78125","-3.0625","-19.34375"
"1538483603638","251","0.18945312","-0.7597656","-1.0302734","40.71875","-36.53125","8.84375"
"1538483603838","252","0.27734375","-0.7480469","-1.1015625","11.59375","-38.46875","48.9375"
"1538483603838","253","0.18945312","-0.6279297","-0.78125","-44.0625","-75.09375","94.84375"
"1538483603839","254","0.6269531","-0.6064453","-0.5722656","-81.59375","-75.875","135.375"
"1538483603839","255","0.9785156","-0.51660156","-0.45898438","-110.34375","-104.03125","158.75"
"1538483603839","256","1.2666016","-0.6220703","-0.45214844","-96.5","-98.71875","150.5625"
"1538483604034","257","1.5126953","-0.5732422","-0.42089844","-94.59375","-77.84375","116.40625"
"1538483604233","258","1.7900391","-0.3388672","-0.20214844","-133.28125","-32.0","73.78125"
"1538483604234","259","1.4228516","0.11816406","0.2607422","-21.46875","4.96875","25.03125"
"1538483604234","260","1.0107422","0.18359375","0.39746094","12.84375","59.25","-12.875"
"1538483604235","261","0.7480469","0.26757812","0.20996094","-2.125","111.5625","-46.875"
"1538483604235","262","0.50683594","0.29003906","-0.013671875","5.6875","101.34375","-86.96875"
"1538483604236","263","0.97265625","0.0859375","-0.17089844","70.5","114.71875","-128.59375"
"1538483604237","264","1.2402344","-0.15136719","-0.54785156","145.875","79.5","-141.78125"
"1538483604238","265","1.4980469","-0.49609375","-0.80859375","151.125","65.53125","-118.90625"
"1538483604238","266","1.3769531","-0.6621094","-0.9003906","78.0625","29.75","-96.4375"
"1538483604432","267","1.2548828","-0.64453125","-1.1503906","79.96875","20.0","-71.03125"
"1538483604630","268","1.0195312","-0.78125","-1.1464844","60.8125","3.09375","-42.65625"
"1538483604631","269","0.61816406","-0.75683594","-0.9267578","21.8125","-31.28125","-3.71875"
"1538483604632","270","0.34570312","-0.5234375","-0.921875","-13.40625","-56.46875","39.84375"
"1538483604632","271","-0.05078125","-0.32226562","-0.6982422","-42.84375","-93.28125","74.9375"
"1538483604633","272","-0.017578125","-0.4296875","-0.5","-38.625","-55.9375","103.03125"
"1538483604633","273","0.63183594","-0.6152344","-0.57128906","-117.375","-19.25","106.4375"
"1538483604633","274","1.2119141","-0.49804688","-0.3828125","-162.71875","-40.5625","104.1875"
"1538483604635","275","1.3535156","-0.28320312","-0.26171875","-97.53125","-51.96875","85.875"
"1538483604635","276","1.7177734","-0.18554688","-0.30273438","-116.75","1.9375","51.75"
"1538483604830","277","1.6542969","0.038085938","0.14941406","-59.5625","25.78125","4.21875"
"1538483604830","278","1.2148438","0.046875","0.2578125","-14.6875","56.0","-6.09375"
"1538483604831","279","0.80078125","0.2626953","0.28027344","4.03125","76.34375","-22.65625"
"1538483604831","280","0.5019531","0.1796875","0.1015625","54.28125","90.96875","-38.4375"
"1538483604832","281","0.45507812","0.12109375","0.037109375","41.9375","99.09375","-52.0625"
"1538483605029","282","1.0205078","-0.111328125","-0.28222656","60.25","108.5","-83.75"
"1538483605030","283","1.1494141","-0.024414062","-0.39257812","87.53125","88.28125","-104.25"
"1538483605030","284","1.4287109","-0.13085938","-0.38085938","160.59375","68.9375","-87.21875"
"1538483605030","285","1.5820312","-0.21386719","-0.59277344","139.28125","54.96875","-57.0"
"1538483605031","286","1.6025391","-0.27246094","-0.8564453","143.6875","52.65625","-21.90625"
"1538483605228","287","1.2158203","-0.40625","-0.7832031","129.53125","28.0","15.4375"
"1538483605228","288","0.8417969","-0.49414062","-0.7451172","94.90625","-11.875","35.28125"
"1538483605230","289","0.57421875","-0.43359375","-0.8486328","35.84375","-53.6875","57.5625"
"1538483605230","290","0.10644531","-0.29296875","-0.5576172","-15.75","-92.3125","78.8125"
"1538483605230","291","0.41308594","-0.5546875","-0.5888672","-75.0","-53.0","90.625"
"1538483605426","292","0.81152344","-0.5761719","-0.5449219","-149.34375","-72.40625","97.65625"
"1538483605426","293","1.0166016","-0.47070312","-0.39648438","-192.4375","-73.5","96.9375"
"1538483605426","294","1.6191406","-0.48828125","-0.31933594","-150.6875","-63.25","82.875"
"1538483605427","295","2.0058594","-0.32910156","-0.20019531","-80.5","-51.90625","32.71875"
"1538483605428","296","1.3515625","-0.048828125","0.2763672","-46.3125","-48.84375","-4.5"
"1538483605625","297","0.97753906","0.35253906","0.6855469","3.5","-3.0","8.84375"
"1538483605825","298","0.50878906","0.4375","0.6308594","-10.59375","68.59375","-1.21875"
"1538483605826","299","0.23925781","0.43164062","0.28027344","-3.59375","105.5","-45.90625"
"1538483605826","300","1.0478516","0.12890625","0.072265625","60.0625","150.5","-99.1875"
"1538483605826","301","1.3144531","-0.13964844","-0.29003906","96.75","104.71875","-108.9375"
"1538483605828","302","1.8046875","-0.37695312","-0.71191406","142.65625","68.53125","-66.59375"
"1538483605828","303","1.4882812","-0.3857422","-0.7675781","112.9375","26.21875","-26.1875"
"1538483605828","304","1.4091797","-0.5","-1.0527344","104.3125","12.125","-21.375"
"1538483605828","305","1.046875","-0.5","-1.0263672","61.84375","-10.15625","-17.21875"
"1538483605829","306","0.65234375","-0.66796875","-0.86816406","45.0625","-35.53125","7.625"
"1538483606022","307","0.35351562","-0.58203125","-0.96484375","-20.125","-43.25","36.25"
"1538483606022","308","-0.045898438","-0.48242188","-0.9042969","-92.15625","-71.0","62.8125"
"1538483606221","309","-0.0078125","-0.8232422","-0.7597656","-105.75","-62.71875","103.46875"
"1538483606221","310","0.65722656","-1.1943359","-0.8652344","-125.46875","-48.65625","135.0625"
"1538483606221","311","1.328125","-1.3623047","-0.58203125","-219.40625","-99.09375","157.71875"
"1538483606222","312","1.8984375","-0.9248047","-0.32714844","-176.75","-124.0","166.125"
"1538483606223","313","2.0058594","-0.578125","-0.072265625","-83.125","-112.875","139.90625"
"1538483606223","314","1.6894531","0.0068359375","0.41796875","-40.8125","-96.46875","97.65625"
"1538483606224","315","1.1669922","0.4970703","0.7207031","-12.3125","-15.96875","61.28125"
"1538483606225","316","0.8046875","0.71484375","0.7207031","-6.34375","87.5","-5.96875"
"1538483606421","317","0.7558594","0.48242188","0.32617188","-21.59375","143.71875","-73.84375"
"1538483606619","318","0.8017578","0.5419922","0.09375","-16.65625","147.5625","-88.25"
"1538483606619","319","1.328125","-0.009765625","-0.3466797","81.0","137.96875","-121.46875"
"1538483606619","320","1.3691406","-0.14160156","-0.60058594","104.25","87.6875","-125.59375"
"1538483606619","321","1.3427734","-0.4375","-0.78222656","150.65625","59.71875","-100.71875"
"1538483606620","322","1.3056641","-0.59765625","-0.953125","110.25","38.3125","-94.96875"
"1538483606621","323","1.3398438","-0.6435547","-1.0507812","65.6875","23.71875","-89.40625"
"1538483606622","324","1.2089844","-0.63183594","-0.9003906","72.875","-9.0","-53.96875"
"1538483606623","325","0.99316406","-0.57421875","-0.73339844","87.0625","-45.4375","-10.625"
"1538483606623","326","0.63183594","-0.48339844","-0.6201172","66.90625","-63.0625","11.71875"
"1538483606817","327","0.21875","-0.36523438","-0.5800781","43.84375","-60.75","32.28125"
"1538483606817","328","-0.15625","-0.3232422","-0.48828125","2.6875","-52.15625","74.09375"
"1538483606818","329","0.59472656","-0.5703125","-0.5048828","-70.5","46.5","85.03125"
"1538483606819","330","1.0419922","-0.5761719","-0.53027344","-216.34375","7.90625","74.03125"
"1538483606819","331","1.0634766","-0.4296875","-0.41796875","-234.5","-16.3125","67.4375"
"1538483607017","332","1.0009766","-0.24902344","-0.375","-148.25","-46.53125","86.0"
"1538483607018","333","0.9902344","-0.30566406","-0.3935547","-75.1875","-63.0","85.5625"
"1538483607216","334","0.87109375","-0.30371094","-0.29589844","-42.09375","-69.84375","77.75"
"1538483607216","335","0.6660156","-0.23339844","-0.20996094","-14.9375","-71.375","82.65625"
"1538483607216","336","0.5595703","-0.24804688","-0.20996094","13.25","-49.21875","93.9375"
"1538483607216","337","0.58984375","-0.3544922","-0.2578125","-0.28125","-13.03125","91.90625"
"1538483607218","338","0.64941406","-0.421875","-0.30566406","-62.1875","22.3125","73.5625"
"1538483607218","339","0.7285156","-0.3544922","-0.38378906","-107.65625","44.59375","55.3125"
"1538483607219","340","0.83203125","-0.265625","-0.4716797","-117.65625","56.125","48.03125"
"1538483607219","341","0.9824219","-0.13769531","-0.5332031","-108.21875","57.65625","38.5"
"1538483607414","342","1.0732422","-0.03515625","-0.43164062","-72.8125","49.78125","18.4375"
"1538483607414","343","1.2041016","0.018554688","-0.45996094","-16.65625","56.5625","-13.1875"
"1538483607414","344","0.87109375","0.041015625","-0.58496094","0.125","44.96875","-25.09375"
"1538483607416","345","0.7685547","0.038085938","-0.43847656","12.65625","53.75","-19.28125"
"1538483607416","346","0.93847656","-0.049804688","-0.4453125","-12.5","53.5","-27.53125"
"1538483607612","347","0.97265625","-0.061523438","-0.47851562","-32.59375","52.71875","-44.4375"
"1538483607613","348","0.9189453","-0.078125","-0.46875","-16.03125","56.5625","-50.21875"
"1538483607614","349","0.8466797","-0.09472656","-0.46679688","1.53125","64.0625","-42.25"
"1538483607614","350","0.8564453","-0.20996094","-0.5341797","-9.9375","69.1875","-35.53125"
"1538483607614","351","0.85839844","-0.19335938","-0.5683594","-44.78125","62.53125","-27.84375"
"1538483607810","352","0.83203125","-0.16015625","-0.65234375","-59.375","54.40625","-14.28125"
"1538483607811","353","0.84375","-0.16894531","-0.70410156","-79.625","38.375","-2.625"
"1538483607811","354","0.8144531","-0.14355469","-0.66308594","-92.75","10.65625","6.28125"
"1538483607812","355","0.83496094","-0.12792969","-0.59765625","-85.6875","-16.875","14.53125"
"1538483607812","356","0.87109375","-0.22070312","-0.4892578","-77.0625","-36.875","20.25"
"1538483608010","357","0.85253906","-0.25976562","-0.39648438","-74.5","-43.53125","30.09375"
"1538483608010","358","0.87890625","-0.2607422","-0.31347656","-64.6875","-32.90625","43.6875"
"1538483608010","359","1.4208984","-0.5175781","-0.5595703","-86.96875","7.53125","42.3125"
"1538483608010","360","1.2060547","-0.39941406","-0.3857422","-133.0","-29.8125","52.125"
"1538483608011","361","0.9501953","-0.29003906","-0.1796875","-94.65625","-44.53125","98.75"
"1538483608407","362","1.1992188","-0.5566406","-0.3125","-82.6875","-35.1875","104.0625"
"1538483608407","363","1.1044922","-0.58691406","-0.39941406","-190.0625","-47.375","71.59375"
"1538483608408","364","0.93359375","-0.375","-0.21582031","-172.09375","-55.25","72.28125"
"1538483608408","365","0.89160156","-0.20996094","-0.18554688","-96.84375","-65.34375","100.28125"
"1538483608409","366","0.8671875","-0.30078125","-0.20117188","-26.71875","-68.0625","119.25"
"1538483608410","367","0.9550781","-0.3623047","-0.21191406","-18.71875","-57.28125","115.34375"
"1538483608410","368","1.09375","-0.30664062","-0.20703125","-45.71875","-47.4375","101.5"
"1538483608411","369","1.1054688","-0.15527344","-0.21972656","-52.125","-38.28125","91.8125"
"1538483608411","370","1.1826172","-0.0703125","-0.21777344","-35.875","-27.6875","73.4375"
"1538483608606","371","1.1015625","0.07714844","-0.16210938","-26.53125","-16.75","39.25"
"1538483608606","372","0.8886719","0.15234375","-0.16894531","-12.8125","2.0","-1.59375"
"1538483608606","373","0.7910156","0.15722656","-0.24414062","40.21875","56.875","-19.28125"
"1538483608607","374","1.1132812","-0.040039062","-0.28125","27.78125","103.6875","-56.8125"
"1538483608608","375","1.1943359","-0.095703125","-0.3330078","-53.34375","132.65625","-97.15625"
"1538483608804","376","1.171875","-0.01953125","-0.44433594","-110.15625","152.625","-112.84375"
"1538483608805","377","1.1552734","-0.017578125","-0.6279297","-90.3125","151.96875","-104.375"
"1538483608806","378","0.9921875","0.033203125","-0.67285156","-21.0","118.6875","-95.53125"
"1538483608806","379","0.8564453","-0.078125","-0.8359375","43.71875","89.21875","-84.34375"
"1538483608806","380","0.92871094","-0.4765625","-1.0351562","48.96875","59.5625","-66.96875"
"1538483609003","381","0.9560547","-0.57910156","-0.97753906","-1.8125","3.21875","-18.25"
"1538483609005","382","0.8779297","-0.67871094","-0.8798828","40.0625","-41.84375","51.5"
"1538483609005","383","1.0410156","-1.1064453","-0.6171875","2.875","-53.1875","101.9375"
"1538483609006","384","1.1015625","-0.82421875","-0.5","-124.9375","-95.1875","140.03125"
"1538483609007","385","1.1210938","-0.87109375","-0.42773438","-129.3125","-91.21875","194.65625"
"1538483609201","386","1.4267578","-0.85546875","-0.25195312","-148.125","-101.34375","224.6875"
"1538483609202","387","2.0058594","-0.7060547","-0.24121094","-145.25","-106.71875","214.28125"
"1538483609203","388","2.0058594","-0.39257812","-0.032226562","-91.71875","-128.6875","190.25"
"1538483609203","389","2.0058594","-0.0107421875","0.14941406","-26.90625","-114.15625","158.28125"
"1538483609204","390","1.3740234","0.1484375","0.29003906","45.375","-65.4375","101.3125"
"1538483609402","391","0.9404297","0.27539062","0.25976562","25.40625","-15.90625","48.09375"
"1538483609402","392","0.41015625","0.7050781","0.36914062","49.28125","19.4375","-13.96875"
"1538483609402","393","0.31640625","0.26171875","0.08105469","2.34375","62.125","-58.03125"
"1538483609403","394","0.74609375","-0.0068359375","-0.13085938","-6.9375","113.125","-127.1875"
"1538483609404","395","1.015625","-0.0078125","-0.27246094","-39.0","142.0","-151.5"
"1538483609599","396","1.6650391","-0.40234375","-0.41796875","-68.96875","136.625","-128.1875"
"1538483609600","397","1.4677734","-0.35058594","-0.60058594","-43.9375","75.0625","-100.84375"
"1538483609600","398","1.6621094","-0.5751953","-1.1386719","107.5625","86.84375","-74.78125"
"1538483609798","399","1.390625","-0.9472656","-1.3515625","99.3125","61.6875","-68.0625"
"1538483609799","400","0.7890625","-0.85839844","-1.0566406","83.1875","-16.6875","-24.09375"
"1538483609801","401","0.25390625","-0.79296875","-1.1777344","38.59375","-60.625","27.03125"
"1538483609801","402","-0.29882812","-0.6425781","-0.92285156","-33.0","-81.5","68.46875"
"1538483609801","403","-0.07714844","-0.8154297","-0.58691406","-73.53125","-33.03125","115.25"
"1538483609801","404","0.6640625","-0.9404297","-0.5917969","-132.875","-34.25","146.65625"
"1538483609802","405","1.0185547","-0.8544922","-0.4921875","-136.9375","-79.96875","173.34375"
"1538483609999","406","1.5654297","-0.81347656","-0.40820312","-91.53125","-83.28125","171.6875"
"1538483610196","407","1.8974609","-0.5732422","-0.19238281","-140.84375","-64.21875","129.59375"
"1538483610197","408","1.6328125","0.060546875","0.16699219","-69.15625","-10.21875","62.375"
"1538483610197","409","1.3085938","0.2548828","0.7470703","-9.03125","38.0625","3.65625"
"1538483610198","410","0.828125","0.36621094","0.4892578","-7.75","101.59375","-58.34375"
"1538483610199","411","0.6484375","0.21289062","0.115234375","-8.90625","146.65625","-112.4375"
"1538483610199","412","0.60253906","0.21875","-0.1015625","-10.375","148.90625","-116.28125"
"1538483610199","413","1.1376953","-0.2548828","-0.29589844","78.5625","118.6875","-127.375"
"1538483610200","414","1.3349609","-0.27734375","-0.6376953","121.09375","68.53125","-100.875"
"1538483610200","415","1.4521484","-0.51464844","-0.8173828","158.65625","34.03125","-59.75"
"1538483610396","416","1.2226562","-0.65234375","-0.85253906","113.40625","9.375","-29.84375"
"1538483610397","417","1.2558594","-0.6640625","-1.0849609","39.9375","-0.625","-23.375"
"1538483610397","418","1.1191406","-0.67871094","-1.0546875","23.4375","-6.625","-16.96875"
"1538483610398","419","0.8876953","-0.66503906","-0.9707031","2.5","-24.1875","7.5625"
"1538483610398","420","0.63183594","-0.45703125","-0.82714844","-27.9375","-57.09375","43.09375"
"1538483610593","421","0.13964844","-0.43945312","-0.6875","-8.78125","-86.5625","77.8125"
"1538483610594","422","0.07128906","-0.7109375","-0.41796875","-49.1875","-64.0","111.40625"
"1538483610594","423","0.43554688","-0.86816406","-0.3779297","-56.15625","-63.6875","120.25"
"1538483610594","424","0.7597656","-1.0117188","-0.22753906","-87.75","-51.125","153.1875"
"1538483610595","425","1.8105469","-0.8769531","-0.2265625","-112.96875","-32.625","166.375"
"1538483610793","426","1.9248047","-0.25390625","-0.11621094","-124.1875","-34.1875","127.625"
"1538483610992","427","1.6611328","0.18847656","0.087890625","-48.8125","-34.09375","49.625"
"1538483610992","428","1.0820312","0.53027344","0.2421875","38.28125","-4.84375","-9.34375"
"1538483610993","429","1.0292969","0.37890625","0.14648438","14.0","62.46875","-36.4375"
"1538483610994","430","0.7128906","0.36132812","0.10449219","-58.9375","126.8125","-74.9375"
"1538483610994","431","0.6376953","0.24121094","0.0107421875","-50.59375","149.28125","-96.4375"
"1538483610994","432","0.98828125","0.046875","-0.060546875","6.25","152.875","-140.125"
"1538483610995","433","1.2285156","-0.08691406","-0.29296875","67.03125","105.6875","-164.78125"
"1538483610996","434","1.4863281","-0.39160156","-0.6611328","159.4375","67.0","-136.90625"
"1538483610996","435","1.6572266","-0.64160156","-0.81640625","190.1875","53.125","-97.21875"
"1538483611190","436","1.5253906","-0.9091797","-1.0117188","137.65625","46.125","-62.3125"
"1538483611190","437","1.1513672","-0.92578125","-0.97265625","66.1875","21.65625","-17.875"
"1538483611190","438","0.79003906","-0.640625","-1.0722656","11.71875","-19.25","36.1875"
"1538483611191","439","0.29003906","-0.46679688","-0.9189453","-11.90625","-80.65625","69.59375"
"1538483611192","440","-0.080078125","-0.5683594","-0.8339844","-52.96875","-94.5","94.84375"
"1538483611587","441","0.49316406","-0.66503906","-0.63671875","-124.75","-67.96875","131.84375"
"1538483611588","442","1.2402344","-0.66796875","-0.4560547","-137.4375","-82.53125","152.34375"
"1538483611590","443","1.3867188","-0.58203125","-0.44335938","-117.3125","-121.25","138.90625"
"1538483611590","444","1.7080078","-0.48046875","-0.30273438","-68.90625","-104.875","117.3125"
"1538483611591","445","1.8623047","-0.26367188","-0.08886719","-39.1875","-88.59375","71.78125"
"1538483611591","446","1.3945312","0.2548828","0.18164062","11.3125","-62.03125","18.875"
"1538483611591","447","1.0507812","0.33203125","0.4453125","71.53125","-14.65625","-9.8125"
"1538483611591","448","0.8339844","0.4345703","0.30664062","42.3125","29.625","-57.96875"
"1538483611592","449","0.46484375","0.33007812","0.041992188","33.15625","56.75","-100.34375"
"1538483611787","450","0.8808594","-0.30078125","-0.27734375","88.625","110.375","-156.0625"
"1538483611787","451","1.3398438","-0.44433594","-0.50683594","18.375","113.5625","-148.5"
"1538483611787","452","1.4238281","-0.56347656","-0.39257812","22.53125","88.84375","-108.875"
"1538483611787","453","1.7978516","-0.6767578","-0.9560547","42.125","78.90625","-72.4375"
"1538483611787","454","1.5078125","-0.60546875","-1.3291016","29.5","72.4375","-18.125"
"1538483611986","455","0.84375","-0.51953125","-1.0791016","38.03125","28.25","15.0625"
"1538483611987","456","0.47558594","-0.3828125","-1.0810547","4.90625","-10.53125","36.5"
"1538483611987","457","0.09277344","-0.27441406","-0.95214844","-75.6875","-63.125","63.84375"
"1538483611987","458","0.22167969","-0.4921875","-0.74902344","-68.78125","-60.9375","115.96875"
"1538483611987","459","0.8378906","-0.5908203","-0.54003906","-98.5625","-71.9375","143.1875"
"1538483612184","460","0.97265625","-0.609375","-0.53515625","-95.25","-105.6875","148.8125"
"1538483612184","461","1.4199219","-0.73046875","-0.49902344","-87.625","-99.4375","131.78125"
"1538483612184","462","1.6445312","-0.57910156","-0.39257812","-73.09375","-94.25","99.96875"
"1538483612184","463","1.7285156","-0.35742188","0.09863281","-29.71875","-85.15625","44.1875"
"1538483612185","464","1.2021484","0.24707031","0.68652344","-7.625","-43.84375","5.375"
"1538483612384","465","0.75683594","0.40429688","0.90234375","62.03125","59.84375","-17.40625"
"1538483612386","466","0.7939453","0.3095703","0.55078125","11.59375","153.34375","-92.46875"
"1538483612386","467","0.64941406","0.484375","0.16992188","2.40625","167.46875","-130.1875"
"1538483612386","468","1.3203125","-0.036132812","-0.15917969","133.96875","163.125","-163.9375"
"1538483612387","469","1.4833984","-0.3232422","-0.6748047","216.4375","76.5625","-163.21875"
"1538483612581","470","1.5849609","-0.79589844","-0.85546875","237.9375","22.8125","-112.90625"
"1538483612582","471","1.4130859","-0.9667969","-0.9013672","185.5625","-27.78125","-60.90625"
"1538483612582","472","1.3115234","-0.91308594","-1.0361328","83.09375","-42.125","-34.59375"
"1538483612582","473","1.0009766","-0.78125","-0.83496094","61.90625","-43.0","-0.0625"
"1538483612582","474","0.6201172","-0.8222656","-0.68359375","42.0625","-37.75","46.5"
"1538483612781","475","0.42871094","-0.65527344","-0.6582031","-49.90625","-22.59375","83.25"
"1538483612782","476","0.06640625","-0.4267578","-0.53222656","-103.1875","-38.21875","96.875"
"1538483612782","477","-0.13671875","-0.47558594","-0.39746094","-78.78125","-53.3125","107.96875"
"1538483612782","478","0.45117188","-0.78222656","-0.43847656","-59.75","-45.5625","116.28125"
"1538483612782","479","1.0068359","-1.0722656","-0.6044922","-99.53125","-51.40625","143.5"
"1538483612978","480","1.71875","-0.9560547","-0.48828125","-139.5","-54.34375","167.59375"
"1538483612980","481","1.7080078","-0.20800781","-0.24609375","-106.375","-53.0","167.125"
"1538483612980","482","1.7080078","-0.15332031","-0.2705078","16.84375","5.03125","107.375"
"1538483612980","483","1.3574219","0.2705078","0.26367188","-53.09375","12.125","10.875"
"1538483612980","484","1.1005859","0.4501953","0.38085938","104.9375","48.375","-44.3125"
"1538483613177","485","0.9033203","0.22558594","0.22363281","-18.96875","100.75","-106.9375"
"1538483613178","486","0.5810547","0.15625","-0.0859375","-85.3125","137.0","-135.4375"
"1538483613178","487","0.96191406","0.03125","-0.026367188","-33.4375","147.5","-127.5"
"1538483613178","488","0.97558594","-0.13183594","-0.3388672","50.59375","90.0","-110.28125"
"1538483613179","489","1.2441406","-0.32421875","-0.578125","127.8125","76.6875","-97.84375"
"1538483613377","490","1.4316406","-0.37597656","-0.58691406","98.34375","45.4375","-84.90625"
"1538483613377","491","1.4160156","-0.45410156","-0.68652344","106.8125","24.40625","-62.375"
"1538483613377","492","1.4902344","-0.62109375","-0.6953125","107.5625","15.0625","-60.65625"
"1538483613379","493","1.2744141","-0.6328125","-0.7089844","59.875","4.8125","-52.0625"
"1538483613379","494","0.9394531","-0.55078125","-0.7050781","36.8125","1.0625","-26.84375"
"1538483613574","495","0.5419922","-0.4404297","-0.73828125","4.09375","-21.3125","4.15625"
"1538483613575","496","0.15527344","-0.3408203","-0.7294922","-57.90625","-62.15625","37.0625"
"1538483613575","497","0.048828125","-0.2705078","-0.43066406","-65.28125","-67.28125","67.125"
"1538483613577","498","1.1044922","-0.46679688","-0.06640625","8.5","-13.09375","65.75"
"1538483613577","499","1.0605469","-0.5107422","-0.171875","-11.15625","-63.25","78.75"
"1538483613775","500","1.0488281","-0.62109375","-0.017578125","-53.34375","-37.3125","108.09375"
"1538483613775","501","1.1318359","-0.57128906","-0.018554688","-104.46875","-12.0","131.84375"
"1538483613775","502","1.3544922","-0.5810547","-0.11621094","-145.3125","-12.59375","119.875"
"1538483613775","503","1.1152344","-0.3623047","-0.11621094","-128.96875","-32.375","124.21875"
"1538483613975","504","0.7402344","-0.1484375","-0.15039062","-39.71875","-54.65625","148.125"
"1538483613976","505","0.5","-0.1328125","-0.13476562","22.40625","-51.46875","160.59375"
"1538483613976","506","0.50683594","-0.17871094","-0.14453125","22.53125","-23.59375","146.65625"
"1538483613976","507","0.5654297","-0.22753906","-0.24609375","-37.9375","-3.5625","103.8125"
"1538483613977","508","0.68066406","-0.22851562","-0.27734375","-81.03125","17.0625","43.28125"
"1538483614172","509","0.7207031","-0.203125","-0.30078125","-80.75","34.46875","-11.03125"
"1538483614172","510","0.8310547","-0.18945312","-0.43847656","-53.28125","62.21875","-50.46875"
"1538483614172","511","1.0693359","-0.15820312","-0.36816406","-37.03125","86.71875","-98.5"
"1538483614172","512","1.2949219","-0.09082031","-0.33984375","6.90625","116.0625","-156.3125"
"1538483614173","513","0.9638672","-0.06640625","-0.41992188","31.5625","126.8125","-167.96875"
"1538483614372","514","1.1318359","-0.12109375","-0.42089844","29.4375","141.40625","-146.65625"
"1538483614372","515","1.2919922","-0.16503906","-0.42871094","-4.75","119.96875","-132.875"
"1538483614372","516","1.3515625","-0.21289062","-0.27441406","-70.3125","86.90625","-128.71875"
"1538483614568","517","1.1796875","-0.034179688","-0.27539062","-32.46875","63.03125","-106.0625"
"1538483614568","518","1.0253906","-0.103515625","-0.2939453","47.25","52.53125","-74.59375"
"1538483614569","519","0.9892578","-0.33203125","-0.3203125","39.875","42.59375","-52.625"
"1538483614570","520","0.93652344","-0.37890625","-0.39648438","-62.0","29.625","-43.34375"
"1538483614571","521","0.9042969","-0.24609375","-0.43164062","-128.34375","16.59375","-29.78125"
"1538483614571","522","0.8779297","-0.1328125","-0.44433594","-126.46875","-3.5","-9.875"
"1538483614571","523","0.8730469","-0.13183594","-0.43066406","-94.65625","-30.84375","10.25"
"1538483614769","524","0.9160156","-0.2109375","-0.38183594","-84.65625","-55.5625","30.28125"
"1538483614769","525","0.9716797","-0.21972656","-0.32226562","-84.15625","-75.40625","48.21875"
"1538483615165","526","0.9902344","-0.32226562","-0.2578125","-77.3125","-79.90625","63.125"
"1538483615167","527","1.5078125","-0.6064453","-0.24511719","-103.875","-49.15625","69.03125"
"1538483615168","528","1.6904297","-0.7128906","-0.19726562","-196.28125","-61.375","71.09375"
"1538483615170","529","1.3330078","-0.4892578","0.13183594","-191.75","-91.21875","116.9375"
"1538483615170","530","1.3876953","-0.6220703","-0.037109375","-132.5","-100.59375","136.84375"
"1538483615170","531","1.25","-0.74121094","0.08496094","-166.5","-108.78125","129.09375"
"1538483615170","532","1.1230469","-0.60546875","0.21484375","-119.625","-113.5625","146.5"
"1538483615171","533","1.0810547","-0.66796875","0.06542969","-72.25","-101.90625","178.40625"
"1538483615171","534","1.0185547","-0.7246094","0.15234375","-75.5625","-85.40625","193.3125"
"1538483615365","535","0.99121094","-0.7050781","0.12890625","-57.375","-69.90625","194.28125"
"1538483615562","536","0.7871094","-0.50390625","-0.30566406","-21.28125","47.59375","183.65625"
"1538483615563","537","0.9248047","-0.33203125","-0.5439453","-54.3125","75.0625","142.21875"
"1538483615563","538","0.85058594","0.16699219","-0.44921875","-74.75","82.125","67.5625"
"1538483615565","539","0.9296875","0.2578125","-0.43847656","-6.09375","106.125","-21.0"
"1538483615565","540","0.81640625","0.13183594","-0.5673828","-11.78125","116.90625","-87.15625"
"1538483615565","541","0.98339844","0.18261719","-0.3310547","-36.4375","124.625","-147.28125"
"1538483615565","542","1.2919922","0.06738281","-0.3125","15.8125","138.03125","-205.625"
"1538483615567","543","1.5234375","-0.080078125","-0.3359375","21.5625","156.09375","-256.59375"
"1538483615568","544","1.7861328","-0.23925781","-0.453125","-5.0625","198.9375","-287.15625"
"1538483615760","545","1.5957031","-0.390625","-0.6923828","-91.34375","135.21875","-189.875"
"1538483615761","546","1.3085938","-0.36816406","-0.8359375","59.875","45.25","-80.5625"
"1538483615761","547","0.80078125","-0.88671875","-0.6191406","172.3125","-36.8125","-9.75"
"1538483615761","548","0.69433594","-1.3134766","-0.5332031","15.34375","-34.75","32.96875"
"1538483615762","549","0.81933594","-0.9345703","-0.50683594","-88.0","-28.09375","90.21875"
"1538483616159","550","0.9423828","-0.8232422","-0.4765625","-81.65625","-22.4375","150.28125"
"1538483616159","551","1.2763672","-1.0048828","-0.28710938","-152.28125","-35.375","196.03125"
"1538483616160","552","1.4912109","-0.78222656","-0.083984375","-210.25","-90.96875","231.6875"
"1538483616161","553","1.8486328","-0.79296875","-0.15722656","-186.15625","-114.34375","248.15625"
"1538483616161","554","2.0058594","-0.7578125","-0.10253906","-185.34375","-125.15625","241.46875"
"1538483616161","555","2.0058594","-0.4560547","0.12890625","-144.59375","-138.28125","222.65625"
"1538483616162","556","1.8232422","-0.24804688","0.21289062","-90.6875","-131.0625","193.4375"
"1538483616162","557","1.5449219","-0.021484375","0.33398438","-65.78125","-90.21875","130.0625"
"1538483616163","558","1.03125","0.13769531","0.5527344","-23.5625","-23.15625","55.90625"
"1538483616360","559","0.55078125","0.15234375","0.37597656","39.25","51.625","-59.5625"
"1538483616360","560","0.5263672","0.048828125","0.048828125","40.125","80.3125","-85.4375"
"1538483616360","561","0.68066406","0.0126953125","-0.21777344","50.78125","87.625","-127.125"
"1538483616360","562","1.25","-0.20117188","-0.70703125","79.0625","102.6875","-164.0625"
"1538483616360","563","1.6416016","-0.51660156","-1.0556641","49.6875","100.1875","-183.53125"
"1538483616555","564","1.4921875","-0.7832031","-0.8417969","72.65625","88.84375","-166.3125"
"1538483616557","565","1.3369141","-1.0332031","-0.8642578","29.375","74.375","-132.375"
"1538483616558","566","0.93359375","-0.8417969","-0.765625","33.34375","62.40625","-67.6875"
"1538483616558","567","0.50683594","-1.1162109","-1.0039062","-12.8125","25.4375","-1.875"
"1538483616558","568","-0.099609375","-0.7578125","-0.77441406","-113.875","-57.9375","76.84375"
"1538483616755","569","0.19824219","-0.7734375","-0.796875","-96.125","-38.40625","137.5"
"1538483616755","570","0.96191406","-0.78027344","-0.61035156","-120.53125","-48.375","163.34375"
"1538483616755","571","1.3046875","-0.76660156","-0.46777344","-117.125","-123.4375","169.0625"
"1538483616755","572","1.3046875","-0.7011719","-0.3984375","-44.125","-128.0","186.21875"
"1538483616756","573","1.6806641","-0.7607422","-0.45410156","-58.15625","-81.03125","180.71875"
"1538483616956","574","1.7001953","-0.37402344","0.0078125","-118.6875","-53.78125","114.0"
"1538483616956","575","1.296875","0.020507812","0.42285156","-55.78125","-19.3125","44.8125"
"1538483616956","576","0.7158203","0.6015625","0.6611328","-20.75","25.4375","-8.78125"
"1538483616957","577","0.5175781","0.4375","0.4013672","38.84375","89.46875","-75.5"
"1538483616957","578","0.47753906","0.44628906","0.22558594","33.65625","86.40625","-137.09375"
"1538483617153","579","0.8808594","0.19335938","0.07519531","96.15625","99.84375","-191.28125"
"1538483617153","580","1.1083984","-0.140625","-0.23535156","149.78125","101.78125","-217.34375"
"1538483617153","581","2.0058594","-0.8310547","-0.734375","113.90625","123.4375","-220.03125"
"1538483617153","582","1.9335938","-0.9160156","-0.77734375","38.40625","74.625","-129.875"
"1538483617154","583","1.7314453","-1.0302734","-1.0517578","84.46875","44.28125","-44.75"
"1538483617351","584","1.2626953","-0.91503906","-1.0761719","55.5","12.5625","-10.625"
"1538483617352","585","0.734375","-0.8535156","-0.7548828","47.5","-24.0","25.8125"
"1538483617353","586","0.37695312","-0.69140625","-0.8564453","6.40625","-45.8125","68.25"
"1538483617353","587","-0.0068359375","-0.3984375","-0.7236328","-70.65625","-81.125","103.15625"
"1538483617354","588","-0.052734375","-0.39257812","-0.42285156","-65.0625","-50.6875","133.25"
"1538483617550","589","0.6357422","-0.640625","-0.4716797","-57.46875","-28.84375","142.6875"
"1538483617551","590","0.9472656","-0.8466797","-0.5292969","-129.9375","-68.8125","161.5625"
"1538483617552","591","1.2285156","-0.8222656","-0.47558594","-155.9375","-95.1875","155.75"
"1538483617552","592","1.3339844","-0.6669922","-0.5","-102.96875","-92.1875","143.1875"
"1538483617552","593","1.65625","-0.47851562","-0.36035156","-54.3125","-60.09375","109.5625"
"1538483617749","594","1.5087891","-0.13085938","0.083984375","-9.28125","-31.15625","47.65625"
"1538483617750","595","1.0947266","0.37109375","0.32421875","78.875","13.84375","8.78125"
"1538483617750","596","0.86328125","0.19726562","0.31347656","18.125","67.96875","-39.5625"
"1538483617750","597","0.7988281","0.2919922","0.10546875","-5.46875","104.40625","-106.25"
"1538483617750","598","0.8730469","0.12597656","0.028320312","41.6875","124.96875","-154.78125"
"1538483617947","599","1.0878906","-0.2548828","-0.28027344","79.0625","119.46875","-168.34375"
"1538483618145","600","1.3671875","-0.3955078","-0.64941406","89.78125","111.90625","-152.59375"
"1538483618145","601","1.5986328","-0.82128906","-0.80371094","86.6875","79.03125","-146.46875"
"1538483618146","602","1.5332031","-0.76171875","-0.953125","93.09375","36.46875","-103.15625"
"1538483618147","603","1.2324219","-0.91015625","-1.0878906","145.03125","12.84375","-59.75"
"1538483618147","604","0.81933594","-0.921875","-0.9160156","71.65625","-22.46875","-16.1875"
"1538483618148","605","0.5136719","-0.6923828","-0.8339844","9.21875","-45.875","30.9375"
"1538483618148","606","0.29589844","-0.52441406","-0.7910156","-15.4375","-60.5","64.75"
"1538483618149","607","0.055664062","-0.3955078","-0.5576172","-44.78125","-74.78125","106.03125"
"1538483618150","608","0.48046875","-0.68847656","-0.484375","-63.21875","-42.4375","142.34375"
"1538483618344","609","0.9638672","-0.6904297","-0.5078125","-118.46875","-52.09375","148.1875"
"1538483618345","610","1.1064453","-0.6777344","-0.4482422","-150.1875","-69.59375","147.46875"
"1538483618345","611","1.4238281","-0.61328125","-0.3623047","-113.6875","-65.09375","118.40625"
"1538483618345","612","1.7929688","-0.6298828","-0.16210938","-80.375","-45.4375","74.46875"
"1538483618346","613","1.5800781","-0.22265625","0.17480469","-154.53125","-44.8125","20.375"
"1538483618544","614","1.1347656","0.36035156","0.5546875","20.28125","-9.46875","6.71875"
"1538483618545","615","0.7626953","0.046875","0.3046875","79.78125","58.375","-18.5"
"1538483618545","616","0.38085938","0.15917969","0.018554688","33.6875","104.40625","-48.46875"
"1538483618545","617","0.515625","0.10449219","0.0","58.125","120.71875","-81.59375"
"1538483618545","618","0.8720703","0.0048828125","-0.19921875","41.15625","131.8125","-129.09375"
"1538483618742","619","1.5722656","-0.20019531","-0.7207031","98.03125","90.0625","-135.375"
"1538483618742","620","1.6689453","-0.578125","-0.9091797","177.0","23.21875","-105.90625"
"1538483618743","621","1.5302734","-0.7988281","-0.984375","188.65625","8.53125","-67.3125"
"1538483618743","622","1.2333984","-0.8066406","-0.93652344","101.09375","-2.53125","-39.71875"
"1538483618744","623","0.65722656","-0.5800781","-0.66308594","73.8125","-39.75","3.65625"
"1538483618943","624","0.20898438","-0.6777344","-0.73828125","66.21875","-59.28125","30.53125"
"1538483618945","625","-0.10546875","-0.68652344","-0.76171875","-65.0625","-63.8125","56.34375"
"1538483618945","626","0.00390625","-0.5996094","-0.50097656","-49.90625","-39.6875","105.15625"
"1538483618945","627","0.4658203","-0.9111328","-0.4892578","-66.34375","-26.15625","155.59375"
"1538483619139","628","1.1855469","-1.0146484","-0.6298828","-144.8125","-34.75","159.71875"
"1538483619140","629","1.3085938","-0.7607422","-0.46191406","-131.03125","-79.96875","148.125"
"1538483619140","630","1.4335938","-0.6953125","-0.47753906","-49.3125","-59.90625","132.9375"
"1538483619141","631","1.7871094","-0.5263672","-0.29589844","-79.625","-20.46875","80.8125"
"1538483619142","632","1.2578125","-0.08300781","0.12011719","-50.46875","10.0","36.625"
"1538483619340","633","0.8251953","0.27929688","0.421875","-6.65625","34.28125","5.3125"
"1538483619340","634","0.6533203","0.28515625","0.29882812","22.65625","79.09375","-48.03125"
"1538483619341","635","0.5263672","0.16894531","0.10839844","28.625","90.5","-100.65625"
"1538483619341","636","0.73828125","0.046875","0.018554688","75.875","102.9375","-126.9375"
"1538483619341","637","1.2402344","-0.3095703","-0.28808594","173.28125","76.5625","-162.53125"
"1538483619937","638","1.5556641","-0.7050781","-0.6191406","169.375","54.125","-153.875"
"1538483619938","639","1.2490234","-0.7871094","-0.81152344","101.28125","23.96875","-104.96875"
"1538483619938","640","1.0292969","-0.7324219","-0.8769531","44.25","4.125","-54.6875"
"1538483619938","641","0.91015625","-0.8173828","-0.87597656","8.125","-22.90625","-26.71875"
"1538483619939","642","0.74316406","-0.7792969","-0.8798828","1.84375","-48.0625","-12.03125"
"1538483619939","643","0.63183594","-0.6875","-0.7373047","8.8125","-67.84375","11.15625"
"1538483619939","644","0.5908203","-0.5878906","-0.578125","50.5625","-72.59375","35.78125"
"1538483620134","645","0.53808594","-0.59472656","-0.4580078","43.40625","-67.34375","60.625"
"1538483620134","646","0.37304688","-0.4794922","-0.3408203","11.0","-58.25","99.90625"
"1538483620134","647","1.1054688","-0.39648438","-0.2734375","-33.3125","19.1875","38.875"
"1538483620134","648","0.96484375","-0.23339844","-0.16503906","19.25","23.28125","5.75"
"1538483620136","649","0.7363281","-0.1015625","-0.018554688","60.125","26.71875","-21.90625"
"1538483620136","650","0.68652344","-0.047851562","-0.11328125","64.21875","23.90625","-51.28125"
"1538483620136","651","0.6464844","-0.0146484375","-0.09472656","82.40625","7.0625","-106.5"
"1538483620332","652","0.88671875","-0.25585938","-0.30664062","147.84375","-6.3125","-161.5"
"1538483620332","653","1.1728516","-0.6376953","-0.5","169.5","-15.40625","-176.5"
"1538483620333","654","1.0253906","-0.82910156","-0.75390625","136.96875","5.21875","-131.84375"
"1538483620334","655","0.78222656","-0.8564453","-0.73046875","81.625","26.40625","-82.75"
"1538483620334","656","0.7988281","-1.0800781","-0.6328125","-53.6875","8.8125","-44.96875"
"1538483620532","657","0.5263672","-0.6591797","-0.7050781","-98.3125","-19.5","-11.40625"
"1538483620532","658","0.484375","-0.60839844","-0.61816406","2.875","-40.6875","33.15625"
"1538483620532","659","0.5566406","-1.0205078","-0.5498047","38.40625","-72.15625","83.875"
"1538483620532","660","0.53515625","-0.85058594","-0.609375","24.125","-106.28125","131.59375"
"1538483620534","661","0.6064453","-1.1035156","-0.5830078","64.53125","-100.90625","190.84375"
"1538483620730","662","0.6220703","-1.2207031","-0.62402344","69.46875","-87.3125","252.1875"
"1538483620730","663","0.6611328","-1.2753906","-0.6269531","86.0625","-49.46875","293.09375"
"1538483620730","664","0.6425781","-0.8886719","-0.46875","106.75","-2.65625","292.40625"
"1538483620730","665","0.47070312","-0.7402344","-0.20898438","162.65625","48.6875","243.46875"
"1538483620731","666","0.36035156","-0.70410156","-0.14550781","150.53125","81.40625","171.625"
"1538483620929","667","0.20800781","-0.7001953","-0.22070312","42.78125","72.0","103.40625"
"1538483620930","668","0.20117188","-0.26660156","-0.14257812","-9.625","30.5625","17.6875"
"1538483620930","669","0.09277344","-0.703125","-0.0029296875","64.84375","-1.65625","3.0625"
"1538483620930","670","-0.1171875","-0.984375","0.01171875","40.0625","2.125","-1.46875"
"1538483620931","671","-0.109375","-0.70703125","-0.06933594","-38.25","4.125","4.34375"
"1538483621127","672","-0.17675781","-0.6904297","-0.115234375","-16.28125","-5.8125","6.96875"
"1538483621127","673","-0.18457031","-0.79589844","-0.08691406","-20.6875","-17.125","4.625"
"1538483621128","674","-0.22753906","-0.8261719","-0.08984375","-21.34375","-25.0625","-0.65625"
"1538483621128","675","-0.25878906","-0.93359375","-0.119140625","-20.75","-31.34375","-9.03125"
"1538483621129","676","-0.24609375","-0.9111328","-0.19824219","-18.65625","-34.1875","-12.28125"
