"# PDIoT walking data"
"# Start time: 20180925T113017"
"# Group: F"
"# Subject: Natasa"
"# Activity type: Running"
"# Sensor position: Upper Leg"
"# Side of body: Right"
"# Sensor mounting: Pocket"
"# Number of steps: 30"
"# Notes: "
""
"timestamp","seq","accel_x","accel_y","accel_z","gyro_x","gyro_y","gyro_z"
"1537871418009","0","-0.15136719","0.9453125","0.0126953125","-1.5625","-1.59375","-3.78125"
"1537871418009","1","-0.10839844","0.80371094","0.07324219","11.5625","-16.125","-4.21875"
"1537871418009","2","-0.040039062","0.7734375","-0.171875","7.65625","-44.625","2.375"
"1537871418011","3","0.095703125","1.1289062","-0.15527344","42.75","-66.09375","18.3125"
"1537871418011","4","0.22167969","1.0820312","-0.23730469","100.96875","-97.09375","60.21875"
"1537871418011","5","-0.3388672","1.3222656","-0.7216797","144.96875","-82.53125","103.5"
"1537871418207","6","-0.20410156","1.1816406","-0.33496094","110.1875","-76.65625","19.6875"
"1537871418207","7","-0.00390625","1.1025391","-0.49609375","72.21875","-30.625","27.46875"
"1537871418208","8","-0.041015625","0.6201172","-0.4609375","111.84375","-59.5","13.71875"
"1537871418208","9","-0.09277344","0.63964844","-0.45507812","91.125","-56.875","-2.28125"
"1537871418212","10","-0.078125","0.5","-0.4580078","88.03125","-37.34375","-17.53125"
"1537871418406","11","-0.16113281","0.59375","-0.43066406","75.6875","-11.59375","-8.3125"
"1537871418406","12","-0.12207031","0.3564453","-0.50097656","83.15625","-18.6875","-13.4375"
"1537871418407","13","-0.02734375","0.40820312","-0.93652344","50.25","-7.375","4.8125"
"1537871418407","14","-0.028320312","0.85058594","-1.328125","30.53125","5.84375","4.4375"
"1537871418411","15","-0.040039062","0.80078125","-1.3544922","-16.65625","-53.40625","-12.40625"
"1537871418604","16","-0.21289062","0.5761719","-1.0859375","-78.59375","-59.875","-7.75"
"1537871418604","17","-0.2685547","0.4345703","-0.765625","-111.5625","2.8125","3.46875"
"1537871418606","18","-0.2548828","0.359375","-0.35351562","-103.8125","34.25","9.5625"
"1537871418606","19","-0.17382812","0.0234375","0.07519531","-161.53125","47.0","-23.09375"
"1537871418804","20","-1.0429688","1.2851562","-0.5185547","-61.09375","85.875","62.125"
"1537871418805","21","-0.25097656","1.2929688","0.15136719","24.5625","394.78125","3.40625"
"1537871419003","22","0.5419922","0.7080078","-0.17089844","-123.71875","185.0625","-55.125"
"1537871419003","23","0.17578125","1.4794922","-0.453125","-118.28125","128.78125","-74.21875"
"1537871419004","24","0.12109375","1.5878906","-0.703125","-221.0","138.25","-104.25"
"1537871419004","25","0.5263672","1.8623047","-0.5566406","-255.40625","93.1875","-30.34375"
"1537871419004","26","0.038085938","1.0703125","-0.19140625","-158.25","45.15625","-12.53125"
"1537871419005","27","-0.10253906","0.5019531","-0.25","-68.34375","28.4375","-47.625"
"1537871419006","28","-0.17285156","0.2421875","0.20800781","-0.78125","15.3125","-51.34375"
"1537871419006","29","0.35253906","-0.1171875","0.09082031","44.4375","17.875","36.125"
"1537871419007","30","-0.072265625","-0.15332031","-0.0859375","124.71875","-42.96875","103.625"
"1537871419201","31","-0.43066406","1.1845703","0.22851562","172.625","-99.0","117.90625"
"1537871419201","32","-0.15332031","1.9775391","0.03515625","271.125","-117.375","88.1875"
"1537871419202","33","-0.5361328","1.9775391","-0.6376953","249.03125","59.75","49.1875"
"1537871419202","34","0.31933594","1.9277344","-1.0742188","159.0","85.09375","-25.78125"
"1537871419203","35","0.20117188","1.1201172","-0.5722656","136.1875","-80.875","-58.53125"
"1537871419601","36","-0.3408203","-0.01171875","-0.47460938","-85.3125","-60.5","-45.53125"
"1537871419601","37","-0.029296875","-0.45898438","0.25097656","-67.6875","8.3125","-74.90625"
"1537871419602","38","0.15234375","-0.45410156","0.16015625","-123.875","15.75","-16.5"
"1537871419602","39","-0.453125","-0.030273438","0.38085938","-224.46875","160.8125","67.5"
"1537871419602","40","-0.23730469","0.6972656","-0.28710938","-20.5","193.46875","-5.5625"
"1537871419602","41","-0.66796875","0.90625","-0.55859375","199.125","118.15625","61.75"
"1537871419602","42","1.3115234","1.9775391","2.0205078","28.46875","272.09375","-97.78125"
"1537871419603","43","0.3076172","1.6601562","-1.1191406","-109.0625","-6.03125","-35.03125"
"1537871419604","44","-0.83691406","1.9775391","-0.6621094","-238.4375","98.21875","-125.3125"
"1537871419797","45","0.18457031","1.8154297","-0.60058594","-294.71875","190.96875","-70.4375"
"1537871419797","46","0.6230469","1.1875","-0.19335938","-145.125","179.0625","-57.6875"
"1537871419798","47","-0.02734375","0.56347656","-0.0087890625","-44.40625","28.1875","-76.96875"
"1537871419799","48","0.2783203","0.034179688","0.06738281","42.125","38.40625","-54.625"
"1537871419801","49","0.5283203","-0.03515625","-0.16113281","121.96875","-89.34375","60.59375"
"1537871419996","50","0.059570312","-0.040039062","0.47070312","186.28125","-169.75","46.4375"
"1537871419996","51","-0.45410156","1.8085938","0.29589844","280.28125","-234.625","84.59375"
"1537871420197","52","-1.0908203","1.9169922","-0.5371094","281.625","-36.125","38.0625"
"1537871420198","53","-0.051757812","1.9775391","-1.1113281","108.0","76.15625","43.625"
"1537871420198","54","0.83691406","1.3925781","-1.2539062","98.78125","-69.53125","-62.34375"
"1537871420198","55","0.35742188","0.67578125","-0.4921875","38.34375","-137.28125","-10.625"
"1537871420198","56","-0.31054688","0.053710938","-0.16894531","-34.21875","-131.28125","-30.15625"
"1537871420198","57","-0.12792969","-0.4326172","0.234375","-43.5","-84.34375","-29.75"
"1537871420199","58","-0.26757812","-0.21289062","0.24609375","-113.875","46.4375","31.71875"
"1537871420200","59","-0.41210938","0.3408203","0.2265625","-156.90625","248.65625","40.28125"
"1537871420200","60","0.07421875","0.2626953","-0.064453125","80.28125","128.28125","39.78125"
"1537871420393","61","0.15332031","1.9775391","-1.9794922","175.125","-180.46875","9.5625"
"1537871420393","62","0.33203125","0.47851562","-0.7001953","-129.3125","-4.46875","8.46875"
"1537871420394","63","-0.14160156","1.4355469","-0.734375","-118.21875","-35.59375","-23.75"
"1537871420394","64","-0.11816406","1.6572266","-0.7792969","-310.78125","109.6875","-89.78125"
"1537871420395","65","0.6074219","1.5117188","-0.5996094","-233.09375","94.40625","-28.6875"
"1537871420593","66","0.61035156","1.1679688","-0.4345703","-158.4375","37.09375","-84.59375"
"1537871420594","67","-0.048828125","0.45507812","0.16503906","-27.5","-76.71875","-69.34375"
"1537871420989","68","0.36328125","-0.044921875","-0.09082031","59.28125","-63.21875","-17.40625"
"1537871420989","69","0.12109375","-0.328125","-0.115234375","108.71875","-135.1875","50.21875"
"1537871420990","70","-0.30566406","0.38671875","0.24121094","126.59375","-188.84375","47.53125"
"1537871420991","71","0.07714844","1.9775391","-0.21582031","349.1875","-261.0","93.375"
"1537871420991","72","-0.7714844","1.8662109","-0.70410156","199.34375","-6.28125","54.84375"
"1537871420992","73","-0.3310547","1.6357422","-0.9667969","99.25","26.25","61.5625"
"1537871420992","74","0.53515625","1.3496094","-1.3144531","76.84375","-39.90625","-35.53125"
"1537871420994","75","0.40429688","0.5107422","-0.45996094","-0.53125","-124.03125","-13.375"
"1537871420994","76","-0.09667969","0.09863281","-0.02734375","-3.46875","-108.40625","-45.25"
"1537871421389","77","-0.09277344","-0.47070312","0.2783203","6.59375","-103.5625","-13.3125"
"1537871421390","78","-0.31347656","1.5800781","0.57128906","271.8125","60.90625","40.46875"
"1537871421390","79","0.69433594","1.9775391","0.875","122.4375","91.5625","-37.1875"
"1537871421390","80","0.59472656","1.203125","-0.24316406","-174.3125","22.03125","-32.375"
"1537871421392","81","-0.23632812","1.9775391","-0.5839844","-223.875","-18.6875","-70.8125"
"1537871421392","82","0.08300781","1.6337891","-0.6611328","-320.65625","87.46875","-21.6875"
"1537871421392","83","0.24804688","0.8642578","-0.49804688","-165.6875","81.59375","-9.21875"
"1537871421393","84","0.09277344","0.5488281","0.2529297","-87.3125","5.5","-66.84375"
"1537871421394","85","0.26757812","0.0048828125","0.20703125","15.40625","-4.03125","-52.1875"
"1537871421586","86","0.31835938","-0.123046875","-0.1796875","82.96875","-80.3125","45.59375"
"1537871421586","87","-0.18554688","1.4931641","0.46875","196.0","-180.71875","82.9375"
"1537871421586","88","-0.6542969","1.9775391","0.07910156","342.84375","-181.28125","84.78125"
"1537871421587","89","-0.28808594","1.9775391","-0.9404297","118.4375","7.25","51.6875"
"1537871421787","90","1.0341797","1.4423828","-1.3720703","167.125","86.65625","0.65625"
"1537871421787","91","0.4189453","0.61328125","-0.7402344","63.4375","-63.53125","-4.96875"
"1537871421787","92","-0.16210938","0.09863281","0.060546875","-28.78125","-153.5","-39.375"
"1537871421787","93","0.080078125","-0.53125","0.3359375","-62.3125","-144.53125","-39.4375"
"1537871421788","94","-0.19042969","-0.3779297","-0.09082031","-106.90625","7.625","74.875"
"1537871421984","95","-0.6191406","-0.038085938","0.4326172","-173.9375","239.3125","88.4375"
"1537871421984","96","-0.005859375","0.41015625","-0.21484375","38.71875","129.21875","3.96875"
"1537871421984","97","-0.22558594","1.9775391","-1.9794922","185.0","-49.0625","47.59375"
"1537871421984","98","0.8408203","0.21484375","-0.6279297","-189.6875","76.0","26.90625"
"1537871421986","99","0.4716797","1.3837891","-0.3935547","-136.875","-65.84375","-17.40625"
"1537871421986","100","-0.1875","1.5302734","-0.5263672","-326.28125","51.21875","-61.40625"
"1537871421986","101","0.33691406","1.6152344","-0.55371094","-230.03125","110.96875","-2.34375"
"1537871422184","102","0.50390625","0.9453125","-0.11621094","-135.71875","91.5","-63.90625"
"1537871422184","103","-0.15039062","0.45996094","0.10546875","-38.6875","-8.46875","-55.4375"
"1537871422184","104","0.39257812","-0.25976562","0.15820312","40.0625","16.71875","-1.40625"
"1537871422185","105","0.103515625","-0.23144531","-0.24804688","95.03125","-98.3125","91.40625"
"1537871422185","106","-0.44433594","0.9589844","0.2939453","128.3125","-189.8125","84.03125"
"1537871422384","107","-0.40039062","1.9775391","0.15527344","370.75","-242.25","91.53125"
"1537871422384","108","-0.5683594","1.9775391","-0.5234375","224.625","27.59375","34.21875"
"1537871422580","109","0.19628906","1.6992188","-1.0693359","137.03125","107.71875","30.1875"
"1537871422580","110","0.7636719","1.6240234","-0.9589844","112.5625","-23.6875","-39.6875"
"1537871422580","111","0.107421875","0.18945312","-0.38964844","4.71875","-134.40625","-31.125"
"1537871422582","112","-0.20898438","-0.390625","0.21972656","-29.65625","-70.125","-52.125"
"1537871422582","113","0.047851562","-0.5332031","0.21582031","-86.96875","-65.25","-21.9375"
"1537871422582","114","-0.39257812","-0.07324219","0.09667969","-183.59375","159.375","83.53125"
"1537871422582","115","-0.18457031","0.49609375","-0.059570312","-66.40625","198.3125","28.125"
"1537871422584","116","-0.7558594","1.8388672","-1.3349609","219.375","-32.03125","72.375"
"1537871422978","117","-0.051757812","0.4501953","0.16992188","-18.53125","131.84375","-49.8125"
"1537871422979","118","0.5917969","1.3017578","-0.8359375","-135.1875","-28.375","-39.0625"
"1537871422979","119","-0.10839844","1.9775391","-0.58691406","-225.6875","70.5","-97.25"
"1537871422979","120","0.4951172","1.7226562","-0.5263672","-267.125","112.375","-37.65625"
"1537871422981","121","0.19726562","0.83691406","-0.2998047","-158.1875","92.03125","-40.65625"
"1537871422981","122","-0.048828125","0.6816406","-0.15039062","-89.71875","24.53125","-55.6875"
"1537871422981","123","0.07128906","0.09082031","0.12109375","25.59375","49.0625","-44.8125"
"1537871422981","124","0.39941406","-0.13378906","-0.11816406","72.90625","-20.25","33.375"
"1537871422981","125","-0.0126953125","-0.13085938","0.06738281","118.46875","-111.28125","42.09375"
"1537871423178","126","-0.24121094","1.3330078","0.19140625","157.65625","-147.78125","90.0"
"1537871423178","127","-0.5605469","1.9775391","0.0546875","323.0625","-159.25","88.6875"
"1537871423179","128","-0.1328125","1.9775391","-0.6748047","152.0","18.8125","36.96875"
"1537871423179","129","0.9501953","1.9775391","-1.1708984","120.5625","40.21875","-22.40625"
"1537871423180","130","0.390625","1.0205078","-0.86816406","67.6875","-78.4375","-23.625"
"1537871423180","131","0.0703125","0.5439453","-0.5859375","-77.3125","-113.28125","-41.625"
"1537871423377","132","-0.109375","-0.16894531","0.044921875","-49.0","-64.40625","-55.8125"
"1537871423377","133","-0.23925781","-0.12890625","0.13769531","-55.09375","-24.90625","4.125"
"1537871423378","134","-0.060546875","-0.07714844","0.27441406","-89.21875","81.375","25.875"
"1537871423378","135","-0.14355469","0.3671875","-0.038085938","-72.25","172.25","18.0625"
"1537871423378","136","-0.46484375","1.4619141","-0.42578125","242.03125","-29.78125","37.46875"
"1537871423574","137","0.19042969","1.1328125","-0.20703125","81.0625","82.53125","-96.3125"
"1537871423574","138","0.671875","1.2753906","-0.7988281","-83.65625","67.0625","-39.375"
"1537871423574","139","0.3095703","1.9775391","-0.82714844","-163.75","11.84375","-97.90625"
"1537871423575","140","0.43847656","1.4042969","-0.8925781","-299.4375","89.0","-68.375"
"1537871423575","141","0.38085938","1.3154297","-0.33398438","-163.5","51.40625","-24.78125"
"1537871423773","142","0.609375","0.7050781","0.11621094","-71.9375","1.78125","-59.34375"
"1537871423774","143","0.095703125","-0.20605469","0.26953125","38.78125","-87.53125","-12.9375"
"1537871423774","144","0.1171875","-0.3408203","0.0146484375","109.5625","-170.40625","58.9375"
"1537871423776","145","-0.34375","0.00390625","0.19433594","158.46875","-208.25","57.59375"
"1537871423776","146","0.053710938","1.25","-0.06640625","211.4375","-177.75","83.46875"
"1537871423970","147","-0.39160156","1.9775391","-0.22167969","308.5","-253.0","69.75"
"1537871423971","148","0.001953125","1.796875","-1.3251953","173.78125","-84.78125","73.0"
"1537871423971","149","0.39160156","1.2294922","-0.9892578","100.46875","-130.125","-5.0625"
"1537871423972","150","0.22753906","0.5185547","-0.9355469","-58.46875","-96.8125","20.0625"
"1537871423972","151","0.3984375","0.09472656","-0.001953125","-175.34375","-101.8125","-12.78125"
"1537871424172","152","-0.06347656","-0.12011719","-0.037109375","-148.375","-28.75","9.15625"
"1537871424172","153","-0.37695312","-0.20507812","0.14453125","-153.625","-13.375","74.09375"
"1537871424172","154","-0.29296875","0.18457031","0.9267578","-58.28125","56.21875","9.9375"
"1537871424172","155","-0.31640625","1.2060547","-0.19824219","24.0","107.46875","26.59375"
"1537871424172","156","0.640625","1.9775391","-1.015625","261.96875","30.40625","28.25"
"1537871424368","157","0.50683594","0.9423828","-1.4921875","-137.3125","31.0625","27.5625"
"1537871424369","158","0.7939453","1.9775391","-0.9873047","-130.46875","-73.5","-54.09375"
"1537871424369","159","0.18847656","1.4580078","-0.9501953","-270.1875","36.5625","-35.28125"
"1537871424370","160","0.51953125","1.0087891","-0.51464844","-260.0","40.96875","6.75"
"1537871424370","161","0.6699219","1.1328125","-0.076171875","-129.6875","16.90625","-46.15625"
"1537871424567","162","-0.029296875","0.38476562","0.08300781","-52.09375","-109.0625","-55.96875"
"1537871424567","163","0.07519531","-0.14550781","0.045898438","48.21875","-70.0","-33.21875"
"1537871424568","164","0.2685547","-0.13769531","0.18652344","87.65625","-137.4375","34.96875"
"1537871424569","165","0.08886719","0.19921875","0.47753906","141.0625","-209.40625","42.03125"
"1537871424569","166","0.28125","1.9775391","-0.5078125","287.5625","-292.96875","88.90625"
"1537871424769","167","-0.81640625","1.7080078","-0.6425781","173.46875","-65.5625","64.125"
"1537871424770","168","0.29882812","1.9667969","-0.92871094","55.0","46.21875","62.90625"
"1537871424770","169","0.984375","1.4160156","-1.3535156","50.1875","-61.28125","-6.25"
"1537871424770","170","0.25097656","0.8378906","-0.5390625","21.4375","-154.71875","-2.34375"
"1537871424771","171","-0.27539062","0.35351562","-0.18847656","-68.59375","-110.34375","-20.53125"
"1537871425364","172","-0.29492188","-0.26171875","0.16015625","-48.03125","-51.5625","7.9375"
"1537871425364","173","-0.12890625","-0.2421875","0.2109375","-50.03125","22.28125","38.0"
"1537871425561","174","-0.024414062","0.18652344","0.06933594","-67.125","208.4375","62.625"
"1537871425561","175","-0.14257812","1.2021484","0.5576172","155.84375","76.78125","79.09375"
"1537871425562","176","1.2392578","1.9775391","0.5722656","186.53125","61.71875","-57.09375"
"1537871425563","177","0.33007812","0.5644531","-0.7685547","-124.375","21.78125","13.59375"
"1537871425564","178","0.21679688","1.7607422","-0.7089844","-172.15625","22.875","5.125"
"1537871425564","179","0.3232422","1.40625","-0.5878906","-273.0625","101.25","-32.0625"
"1537871425565","180","0.3515625","1.4013672","-0.37695312","-199.21875","85.9375","-18.09375"
"1537871425565","181","-0.42285156","1.9775391","-0.68847656","208.875","-41.25","57.65625"
"1537871425566","182","0.3486328","1.3310547","-0.9736328","51.84375","36.3125","36.59375"
"1537871425958","183","0.70996094","1.6396484","-1.2548828","43.46875","-55.78125","-53.84375"
"1537871425959","184","-0.28222656","-0.125","0.0703125","-70.46875","-28.5625","9.15625"
"1537871425960","185","-0.3408203","-0.13671875","0.22265625","-92.21875","70.3125","48.09375"
"1537871425960","186","-0.056640625","0.33984375","9.765625E-4","-67.0625","199.34375","30.5625"
"1537871425961","187","-0.068359375","1.3085938","-0.43652344","252.8125","23.3125","45.8125"
"1537871425961","188","1.1191406","1.9775391","0.67578125","89.5625","41.25","-88.15625"
"1537871425962","189","0.14257812","0.8613281","-0.5908203","-99.65625","35.875","-38.09375"
"1537871425962","190","0.4013672","1.9775391","-0.8105469","-201.53125","113.34375","-80.625"
"1537871425965","191","0.43359375","1.5488281","-0.5390625","-265.96875","134.875","-36.875"
"1537871426158","192","0.46972656","0.8984375","-0.38183594","-193.15625","125.3125","-22.03125"
"1537871426158","193","-0.038085938","0.43652344","0.0390625","-13.78125","-12.15625","-56.34375"
"1537871426159","194","0.38964844","-0.18554688","0.1875","39.125","-25.40625","14.6875"
"1537871426160","195","-0.040039062","-0.21875","-0.032226562","88.5625","-137.4375","68.90625"
"1537871426160","196","-0.14941406","0.5390625","0.18847656","110.625","-170.40625","45.21875"
"1537871426161","197","0.109375","1.9775391","-0.20019531","396.4375","-219.71875","107.53125"
"1537871426358","198","-0.39746094","1.9775391","-0.2998047","183.84375","26.0","43.1875"
"1537871426358","199","0.32226562","1.6689453","-0.92578125","84.96875","112.1875","25.5625"
"1537871426358","200","1.0351562","1.1826172","-1.0351562","89.4375","1.90625","-32.65625"
"1537871426358","201","0.16796875","0.40722656","-0.37402344","-8.40625","-89.40625","-13.375"
"1537871426358","202","-0.29589844","-0.20996094","0.051757812","-22.8125","-27.21875","-54.28125"
"1537871426555","203","-0.2705078","-0.30859375","0.16503906","-70.53125","12.09375","-18.375"
"1537871426555","204","-0.26367188","-0.15136719","0.11816406","-104.90625","144.28125","57.0625"
"1537871426556","205","-0.0546875","0.20605469","0.0048828125","-43.375","219.65625","50.71875"
"1537871426755","206","-0.2626953","1.2519531","0.061523438","201.0","11.59375","57.46875"
"1537871426756","207","1.6689453","1.9775391","1.1875","141.6875","123.34375","-60.625"
"1537871426757","208","0.69433594","1.1455078","-0.6767578","-65.53125","59.3125","-14.53125"
"1537871426757","209","-0.10644531","1.9775391","-0.17480469","-177.46875","119.75","-110.4375"
"1537871426757","210","0.16503906","1.4404297","-0.6982422","-255.96875","212.71875","-63.0"
"1537871426757","211","0.27929688","1.1054688","-0.16796875","-121.03125","230.71875","-39.3125"
"1537871426757","212","0.46875","0.65625","-0.16992188","-80.78125","153.1875","-34.0625"
"1537871426953","213","0.24511719","0.046875","0.080078125","16.3125","88.375","-24.125"
"1537871426953","214","0.3486328","-0.23535156","0.12988281","61.71875","-26.3125","25.0"
"1537871426953","215","-0.091796875","-0.10253906","0.07324219","108.28125","-110.15625","46.0"
"1537871426954","216","-0.6933594","1.0566406","0.19628906","171.40625","-162.34375","66.9375"
"1537871426955","217","-0.4951172","1.9775391","-0.22363281","371.34375","-16.0625","81.34375"
"1537871427151","218","0.42089844","1.9775391","-0.67285156","192.53125","102.1875","18.3125"
"1537871427151","219","0.6484375","1.7314453","-1.1572266","169.3125","16.0625","8.59375"
"1537871427152","220","0.4267578","1.0908203","-0.98046875","100.78125","-82.28125","-55.125"
"1537871427153","221","-0.12207031","0.60546875","-0.51660156","-27.625","-72.375","-73.3125"
"1537871427153","222","-0.24023438","0.13671875","-0.40722656","-102.59375","25.21875","-52.3125"
"1537871427549","223","-0.14453125","-0.20800781","0.35058594","-34.40625","62.375","-48.59375"
"1537871427549","224","-0.030273438","0.005859375","0.20507812","-81.28125","128.0625","-1.90625"
"1537871427549","225","-0.15722656","0.21191406","0.060546875","-75.1875","209.90625","18.40625"
"1537871427549","226","-0.14355469","0.87109375","0.8642578","139.46875","102.84375","-9.46875"
"1537871427550","227","0.46777344","1.9775391","-0.6533203","183.65625","174.8125","-22.34375"
"1537871427551","228","0.5654297","0.52246094","-1.2724609","-55.78125","113.71875","-21.125"
"1537871427552","229","0.38183594","1.8759766","-0.9765625","-156.53125","32.71875","-57.625"
"1537871427552","230","0.052734375","1.5341797","-0.8808594","-237.84375","171.21875","-63.125"
"1537871427552","231","0.5830078","1.1630859","-0.40820312","-169.28125","204.65625","-44.4375"
"1537871427945","232","0.5546875","0.86621094","-0.44433594","-117.40625","109.3125","-50.71875"
"1537871427946","233","0.0625","0.3046875","0.22949219","-17.75","22.28125","-48.90625"
"1537871427947","234","0.26367188","-0.0048828125","0.033203125","57.28125","-29.40625","-15.5625"
"1537871427947","235","-0.11816406","-0.1953125","-0.09667969","123.5625","-104.84375","32.8125"
"1537871427947","236","-0.12011719","0.34570312","0.31152344","150.96875","-126.21875","21.21875"
"1537871427948","237","0.59277344","1.9775391","-0.5527344","381.65625","-153.75","53.03125"
"1537871427949","238","-0.051757812","1.6904297","-0.6982422","184.65625","15.125","22.28125"
"1537871427950","239","0.2578125","1.7167969","-1.1591797","89.90625","26.90625","13.0625"
"1537871427952","240","0.796875","1.2578125","-1.3076172","83.4375","-70.8125","-63.0"
"1537871428147","241","0.19335938","0.5058594","-0.3515625","-6.15625","-103.625","-21.875"
"1537871428147","242","-0.23925781","-0.2890625","0.20410156","-64.625","26.3125","-31.09375"
"1537871428147","243","-0.3125","-0.07324219","0.10449219","-122.0625","164.375","25.1875"
"1537871428147","244","-0.043945312","0.33984375","0.037109375","-71.6875","239.0625","20.5"
"1537871428147","245","-0.07910156","1.0820312","0.6425781","205.875","38.625","15.1875"
"1537871428148","246","1.5039062","1.9775391","1.953125","110.5","158.375","-158.15625"
"1537871428542","247","0.57128906","0.84375","-0.60253906","-61.09375","65.90625","-45.25"
"1537871428543","248","0.33789062","1.9775391","-0.57128906","-192.84375","73.84375","-64.71875"
"1537871428543","249","0.41015625","1.2617188","-0.52246094","-273.0","94.1875","-54.40625"
"1537871428543","250","0.33007812","1.0683594","-0.45410156","-170.03125","99.71875","-30.59375"
"1537871428544","251","0.2626953","0.875","-0.13867188","-100.5","45.21875","-40.96875"
"1537871428544","252","-0.015625","0.21875","0.10449219","32.25","10.125","-36.375"
"1537871428546","253","0.38378906","-0.31054688","0.13085938","84.65625","-52.375","38.5"
"1537871428546","254","-0.17089844","-0.23730469","0.29101562","143.21875","-148.3125","57.71875"
"1537871428741","255","-0.43359375","1.2851562","-0.046875","154.5625","-187.125","104.71875"
"1537871428741","256","0.19726562","1.9775391","-1.0722656","171.46875","54.125","28.6875"
"1537871428742","257","0.76660156","1.5390625","-1.1201172","126.0625","87.21875","-3.0625"
"1537871428742","258","0.4814453","0.7890625","-0.6748047","27.78125","-70.8125","-48.96875"
"1537871428742","259","0.19042969","0.24707031","-0.3984375","-68.03125","-64.28125","-36.875"
"1537871428744","260","-0.21386719","-0.43066406","0.0068359375","-95.8125","29.125","-41.21875"
"1537871428941","261","-0.22753906","-0.16113281","0.34765625","-122.25","72.3125","-11.3125"
"1537871428944","262","-0.18261719","0.18359375","0.2109375","-119.3125","159.84375","36.0"
"1537871428944","263","-0.19140625","1.5537109","0.25683594","114.34375","176.5","51.5625"
"1537871428944","264","1.1621094","1.9775391","-0.5107422","232.75","27.90625","-55.90625"
"1537871428945","265","1.0","0.9091797","-0.88183594","-116.0625","83.0625","-19.0"
"1537871429139","266","0.16113281","1.5791016","-0.71972656","-134.9375","82.09375","-54.21875"
"1537871429139","267","0.43847656","1.3476562","-0.5253906","-243.75","212.78125","-88.625"
"1537871429139","268","0.28710938","0.98339844","-0.38671875","-146.28125","180.96875","-10.4375"
"1537871429140","269","0.4404297","1.1152344","-0.18066406","-83.40625","138.65625","-34.3125"
"1537871429140","270","0.19042969","0.38476562","0.025390625","-3.34375","72.9375","-19.53125"
"1537871429338","271","0.27734375","-0.20800781","0.16894531","73.0","-9.59375","3.90625"
"1537871429339","272","-0.01953125","-0.19335938","-0.047851562","127.8125","-119.625","57.90625"
"1537871429536","273","-0.50390625","0.7451172","0.20898438","170.0625","-165.34375","80.1875"
"1537871429537","274","0.12890625","1.9775391","-0.88964844","445.875","-113.84375","57.3125"
"1537871429537","275","0.18847656","1.9775391","-1.0722656","191.71875","12.375","-3.75"
"1537871429537","276","0.38378906","1.7509766","-1.3085938","114.40625","93.09375","12.875"
"1537871429538","277","0.4609375","1.1259766","-0.7910156","99.75","-16.78125","-71.59375"
"1537871429539","278","-0.13378906","0.24414062","-0.33007812","-1.21875","-29.78125","-72.46875"
"1537871429539","279","-0.29296875","-0.20019531","-0.3359375","-120.15625","154.84375","-53.40625"
"1537871429540","280","0.043945312","-0.22949219","0.47265625","-101.4375","137.4375","-78.4375"
"1537871429737","281","0.1328125","0.16699219","0.051757812","-100.15625","142.53125","-3.625"
"1537871429737","282","0.15332031","0.25","-0.2919922","-13.65625","171.9375","51.1875"
"1537871429737","283","-0.93847656","1.7607422","-1.3164062","135.75","-98.875","101.5625"
"1537871429737","284","1.3027344","1.8398438","-0.6748047","62.15625","57.5","-45.4375"
"1537871429737","285","0.4482422","1.5244141","-0.71191406","-68.28125","82.46875","-43.90625"
"1537871429936","286","0.2607422","1.9775391","-0.50683594","-176.75","206.53125","-148.21875"
"1537871429936","287","0.5966797","1.1113281","-0.4580078","-185.34375","231.125","-33.03125"
"1537871429937","288","0.3076172","1.0566406","-0.10253906","-80.25","185.84375","-35.03125"
"1537871429938","289","0.3388672","0.55371094","-0.09277344","-24.46875","113.40625","-29.84375"
"1537871429938","290","0.31152344","-0.14941406","0.15917969","70.625","42.90625","-10.09375"
"1537871430331","291","0.1484375","-0.22265625","-0.095703125","116.84375","-83.5","49.125"
"1537871430529","292","-0.3466797","0.44921875","0.38183594","179.09375","-135.5","57.4375"
"1537871430731","293","0.22167969","1.9775391","-0.6777344","365.5","-108.875","28.1875"
"1537871430731","294","0.06542969","1.8632812","-1.1367188","195.5625","9.15625","-24.90625"
"1537871430731","295","0.15527344","1.8417969","-1.3701172","130.5625","98.5","-12.78125"
"1537871430731","296","0.6191406","1.3955078","-0.9375","133.4375","23.125","-109.25"
"1537871430733","297","0.026367188","0.31445312","-0.45898438","9.21875","-50.90625","-86.375"
"1537871430733","298","-0.3642578","-0.18847656","-0.2265625","-82.4375","83.3125","-91.5"
"1537871430733","299","0.080078125","-0.2783203","0.3857422","-112.84375","123.09375","-83.875"
"1537871430733","300","-0.076171875","0.032226562","0.016601562","-137.75","206.0625","26.78125"
"1537871430734","301","0.40039062","1.9775391","-0.6777344","-171.96875","141.40625","-114.21875"
"1537871430927","302","0.6611328","-0.12011719","0.11816406","74.65625","-34.375","42.28125"
"1537871430927","303","-0.041992188","-0.15039062","0.2626953","152.53125","-157.71875","74.6875"
"1537871430928","304","-0.2529297","1.3007812","-0.28515625","204.0","-217.96875","88.6875"
"1537871430929","305","0.03125","1.9775391","-0.17089844","276.5","-48.9375","47.96875"
"1537871431327","306","0.4892578","1.9775391","-0.8076172","184.53125","55.34375","3.40625"
"1537871431328","307","0.6308594","1.4833984","-1.4335938","114.6875","6.53125","-64.78125"
"1537871431328","308","0.4189453","0.84277344","-0.55078125","85.84375","-74.53125","-52.125"
"1537871431328","309","-0.16601562","0.22460938","-0.37402344","-49.375","-90.6875","-63.625"
"1537871431330","310","-0.2548828","-0.27441406","0.08203125","-58.40625","2.8125","-73.75"
"1537871431330","311","-0.029296875","-0.27734375","0.25097656","-92.40625","61.09375","-43.21875"
"1537871431330","312","-0.25195312","0.095703125","-0.01953125","-132.8125","219.46875","43.25"
"1537871431331","313","-0.026367188","0.40625","0.5283203","47.6875","193.125","29.34375"
"1537871431331","314","0.076171875","1.5791016","-1.8535156","118.0","-17.34375","84.21875"
"1537871431524","315","0.6660156","0.29003906","-1.2207031","-81.71875","76.40625","2.78125"
"1537871431524","316","0.3828125","1.4765625","-0.51953125","-256.6875","139.28125","-79.84375"
"1537871431525","317","0.34570312","1.1171875","-0.4267578","-194.9375","144.65625","-6.90625"
"1537871431525","318","0.5722656","1.0097656","-0.36914062","-126.3125","130.8125","-53.78125"
"1537871431724","319","0.22460938","0.47460938","-0.049804688","-67.90625","59.15625","-47.125"
"1537871431724","320","0.29492188","-0.09667969","0.22949219","36.09375","11.34375","-35.34375"
"1537871431725","321","0.2548828","-0.21875","-0.1328125","76.375","-131.53125","64.375"
"1537871431726","322","-0.12890625","0.23046875","0.7421875","140.21875","-185.90625","49.5625"
"1537871431726","323","0.3828125","1.9775391","-0.3251953","373.96875","-275.15625","43.375"
"1537871431726","324","-0.38867188","1.9775391","-0.5830078","219.75","-11.59375","12.875"
"1537871431727","325","0.3701172","1.8007812","-0.94921875","110.25","97.15625","7.8125"
"1537871431921","326","1.0683594","1.3623047","-1.234375","121.28125","-8.90625","-73.9375"
"1537871431921","327","0.15722656","0.4296875","-0.44921875","35.28125","-103.15625","-26.0625"
"1537871431921","328","-0.13378906","0.31445312","-0.29589844","-38.625","-41.375","-71.59375"
"1537871431922","329","-0.18164062","-0.4794922","0.34960938","-39.28125","-27.96875","-60.9375"
"1537871431923","330","-0.11328125","-0.23632812","0.022460938","-116.75","118.96875","15.3125"
"1537871432321","331","-0.13378906","0.31054688","0.16308594","-95.4375","249.375","51.125"
"1537871432321","332","-0.022460938","1.328125","0.5566406","215.15625","76.40625","16.03125"
"1537871432321","333","1.4863281","1.9775391","1.0185547","179.65625","183.09375","-96.625"
"1537871432321","334","0.81933594","0.96875","-0.75097656","-126.375","120.25","-40.0"
"1537871432322","335","0.19042969","1.8056641","-0.6142578","-164.0","67.625","-45.4375"
"1537871432323","336","0.38867188","1.4433594","-0.53808594","-261.46875","156.75","-63.1875"
"1537871432323","337","0.18457031","0.92578125","-0.34570312","-169.84375","169.875","-21.5"
"1537871432323","338","0.87890625","0.9296875","-0.33789062","-116.8125","153.125","-69.90625"
"1537871432323","339","0.038085938","0.4814453","0.032226562","-54.0625","8.84375","-39.0625"
"1537871432517","340","0.31152344","-0.15332031","0.18847656","35.53125","-21.65625","-14.90625"
"1537871432518","341","0.041015625","-0.21582031","-0.21191406","103.96875","-151.0625","75.0625"
"1537871432518","342","-0.17773438","0.3876953","0.2421875","129.46875","-184.09375","48.5"
"1537871432518","343","0.67285156","1.9775391","-0.57910156","401.8125","-269.90625","61.21875"
"1537871432519","344","-0.23242188","1.9775391","-0.6455078","223.21875","-2.75","20.375"
"1537871432520","345","0.34960938","1.5429688","-1.0537109","94.0","81.0625","13.59375"
"1537871432718","346","0.8154297","1.2148438","-1.1328125","95.28125","-7.09375","-79.84375"
"1537871432718","347","0.044921875","0.3125","-0.31933594","9.21875","-88.8125","-27.125"
"1537871432917","348","-0.2919922","0.08984375","-0.3232422","-30.5","1.90625","-79.0"
"1537871432917","349","-0.15625","-0.4375","0.32714844","-43.625","15.3125","-54.875"
"1537871432918","350","-0.17285156","-0.12988281","0.115234375","-118.8125","169.3125","29.96875"
"1537871432918","351","-0.02734375","0.31347656","0.20019531","-69.625","245.78125","32.75"
"1537871432918","352","-0.41015625","1.4355469","-0.83203125","144.53125","57.125","66.03125"
"1537871432919","353","0.33398438","1.4589844","-0.05859375","-2.5625","105.71875","-66.78125"
"1537871432920","354","0.6953125","1.2548828","-0.734375","-119.3125","63.40625","-56.28125"
"1537871432920","355","0.33789062","1.9775391","-0.4892578","-191.03125","116.15625","-96.25"
"1537871433114","356","0.40625","1.4160156","-0.43066406","-225.75","167.84375","-37.25"
"1537871433114","357","0.4423828","0.96875","-0.3173828","-148.71875","172.65625","-41.8125"
"1537871433115","358","0.4375","0.74609375","-0.2265625","-95.0625","75.375","-42.6875"
"1537871433115","359","0.11621094","0.33496094","-0.040039062","15.9375","10.375","-51.34375"
"1537871433116","360","0.45996094","-0.095703125","0.09472656","47.0625","-19.46875","27.875"
"1537871433312","361","-0.048828125","-0.095703125","-0.13671875","117.4375","-140.5625","65.71875"
"1537871433313","362","-0.36914062","1.2822266","0.22753906","144.5","-214.40625","75.71875"
"1537871433313","363","-0.06933594","1.9775391","0.21972656","311.96875","-215.625","74.6875"
"1537871433314","364","0.09667969","1.8759766","-0.6503906","175.625","42.78125","20.0625"
"1537871433314","365","0.50097656","1.7089844","-0.9941406","104.875","31.875","-31.25"
"1537871433511","366","0.6464844","1.0244141","-0.953125","78.03125","-98.625","-63.4375"
"1537871433511","367","-0.0107421875","0.34472656","-0.4736328","-62.375","-135.625","-48.03125"
"1537871433511","368","-0.19433594","-0.020507812","-0.016601562","-57.96875","-18.1875","-73.25"
"1537871433512","369","-0.1484375","-0.18261719","0.26367188","-46.625","8.3125","-10.9375"
"1537871433513","370","-0.20800781","-0.1328125","0.20898438","-88.25","136.84375","40.15625"
"1537871433910","371","0.103515625","0.48242188","-0.27441406","-49.71875","217.96875","13.40625"
"1537871433911","372","-0.55078125","1.4951172","-1.1435547","209.0625","-84.65625","8.03125"
"1537871433911","373","0.7841797","1.5976562","-0.78515625","-41.78125","-0.90625","-71.0625"
"1537871433912","374","0.50878906","0.8876953","-0.3515625","-88.84375","15.9375","-13.75"
"1537871433913","375","0.63671875","1.9775391","-0.6542969","-210.1875","56.75","-77.90625"
"1537871433913","376","0.24804688","1.4160156","-0.38867188","-261.28125","57.125","-13.0625"
"1537871433914","377","0.171875","1.0683594","-0.5126953","-173.9375","112.71875","-37.1875"
"1537871433914","378","0.29296875","0.8144531","-0.3076172","-109.375","71.34375","-77.71875"
"1537871434106","379","0.12207031","0.3017578","0.13183594","30.59375","-0.375","-76.5"
"1537871434108","380","0.42871094","-0.099609375","-0.115234375","72.40625","-57.4375","7.25"
"1537871434108","381","0.043945312","-0.10546875","0.3798828","103.90625","-129.03125","38.25"
"1537871434108","382","0.5517578","1.5869141","0.11230469","162.375","-285.09375","83.59375"
"1537871434109","383","-0.20703125","1.9775391","-0.24511719","230.0","-254.75","60.84375"
"1537871434110","384","0.27441406","1.9775391","-0.5654297","146.9375","23.8125","82.5"
"1537871434111","385","0.75878906","1.9775391","-1.1132812","104.375","-64.8125","4.125"
"1537871434306","386","0.43554688","0.81933594","-0.7050781","92.65625","-143.25","-4.15625"
"1537871434308","387","0.21484375","0.32226562","-0.16894531","-32.6875","-120.59375","-3.0625"
"1537871434308","388","-0.2607422","-0.18359375","0.3330078","-40.5625","-105.46875","-24.375"
"1537871434309","389","-0.32617188","-0.22070312","0.11230469","-54.625","-3.65625","27.46875"
"1537871434309","390","-0.22558594","0.10546875","0.052734375","-88.71875","153.5625","20.6875"
"1537871434505","391","0.09667969","0.14941406","0.095703125","41.9375","100.84375","22.03125"
"1537871434505","392","0.001953125","1.3574219","-1.3544922","158.28125","-29.90625","114.0"
"1537871434505","393","0.005859375","0.28808594","-1.3125","-15.3125","-5.1875","34.09375"
"1537871434506","394","0.29003906","1.2783203","-0.5048828","-132.1875","20.75","-20.875"
"1537871434506","395","0.4951172","1.7919922","-0.7529297","-250.21875","106.375","-56.78125"
"1537871434705","396","0.37695312","1.1484375","-0.4560547","-233.09375","97.0","6.59375"
"1537871434706","397","0.5810547","0.9736328","-0.61035156","-169.0625","115.125","-44.625"
"1537871434706","398","0.4609375","0.54785156","-0.048828125","-110.75","11.0","-58.96875"
"1537871434706","399","0.15234375","0.10546875","0.20214844","20.875","-46.6875","-62.375"
"1537871434706","400","0.33203125","-0.10546875","-0.046875","73.6875","-112.0","32.53125"
"1537871434904","401","-0.09277344","-0.15820312","0.15234375","103.53125","-180.34375","42.15625"
"1537871434904","402","0.13671875","1.1474609","0.40039062","102.25","-189.21875","68.96875"
"1537871434904","403","-0.2841797","1.9775391","0.19921875","286.21875","-256.15625","97.21875"
"1537871434906","404","0.09472656","1.8134766","-0.5234375","135.28125","-10.3125","63.03125"
"1537871434906","405","0.65527344","1.5791016","-1.0566406","58.0625","12.8125","10.90625"
"1537871435101","406","0.7470703","1.15625","-0.96191406","47.125","-85.6875","-12.28125"
"1537871435103","407","0.08105469","0.4560547","-0.5986328","-81.09375","-143.5","-24.59375"
"1537871435103","408","-0.08203125","0.26953125","0.049804688","-47.84375","-62.5625","-44.625"
"1537871435104","409","-0.25390625","-0.11328125","0.21679688","-14.9375","-39.5","21.90625"
"1537871435104","410","-0.31445312","-0.016601562","0.13867188","-57.3125","111.5","21.71875"
"1537871435299","411","-0.037109375","0.39453125","0.10058594","-62.25","200.6875","12.25"
"1537871435301","412","0.03515625","1.2373047","-0.6230469","155.78125","33.15625","55.78125"
"1537871435301","413","0.55078125","1.2304688","-0.47851562","-22.6875","21.1875","-48.96875"
"1537871435301","414","0.4140625","1.0478516","-0.53125","-122.0","41.4375","-43.03125"
"1537871435301","415","0.5566406","1.9775391","-0.79785156","-186.5625","110.90625","-59.53125"
"1537871435698","416","0.6328125","1.3496094","-0.53515625","-236.0625","88.8125","-7.34375"
"1537871435699","417","0.4873047","0.94433594","-0.4609375","-195.0","85.3125","-24.4375"
"1537871435700","418","0.4794922","0.72753906","-0.04296875","-116.25","46.25","-51.03125"
"1537871435700","419","-0.041015625","0.45898438","0.12597656","-18.1875","-56.59375","-56.46875"
"1537871435700","420","0.234375","-0.0625","0.07910156","45.0","-49.1875","4.125"
"1537871435701","421","-0.030273438","-0.18652344","0.0087890625","102.375","-130.0625","66.28125"
"1537871435701","422","0.11816406","1.0029297","0.4921875","114.28125","-200.5625","92.09375"
"1537871435701","423","-0.005859375","1.9775391","0.29101562","287.6875","-287.53125","98.9375"
"1537871435702","424","0.017578125","1.9775391","-0.5830078","196.59375","0.625","52.59375"
"1537871435896","425","0.5908203","1.5654297","-1.1123047","62.8125","18.0625","9.03125"
"1537871435896","426","0.83496094","1.2080078","-1.1103516","72.34375","-81.40625","-38.09375"
"1537871435898","427","0.17773438","0.28515625","-0.38085938","-39.34375","-152.34375","-11.78125"
"1537871435898","428","-0.16308594","0.13476562","0.09375","-33.125","-77.625","-43.34375"
"1537871435898","429","-0.41796875","-0.34472656","0.3203125","-30.4375","-36.9375","12.125"
"1537871435898","430","-0.28808594","-0.103515625","0.15527344","-106.78125","142.53125","39.84375"
"1537871436095","431","0.04296875","0.4326172","-0.041992188","-77.5","232.71875","33.3125"
"1537871436095","432","-0.27734375","1.3173828","-0.13183594","215.96875","-15.125","19.09375"
"1537871436097","433","1.6337891","1.9775391","0.80078125","89.84375","90.625","-125.4375"
"1537871436097","434","0.5136719","0.90625","-0.7734375","-101.0625","42.65625","-15.09375"
"1537871436295","435","0.31152344","1.9726562","-0.58203125","-190.96875","61.28125","-50.71875"
"1537871436296","436","0.3564453","1.4091797","-0.48242188","-263.21875","104.96875","-34.25"
"1537871436296","437","0.3798828","1.0605469","-0.29003906","-185.53125","113.21875","-23.75"
"1537871436296","438","0.84375","0.75097656","-0.22558594","-100.21875","104.90625","-72.9375"
"1537871436296","439","-0.20410156","0.53125","0.19140625","-33.25","-62.8125","-53.25"
"1537871436297","440","0.2783203","-0.08984375","0.13476562","61.53125","-8.4375","-2.625"
"1537871436492","441","0.10449219","-0.18066406","-0.21875","94.5625","-115.40625","74.21875"
"1537871436492","442","-0.00390625","1.2705078","0.6074219","125.125","-232.375","96.84375"
"1537871436494","443","-0.20703125","1.9775391","0.29296875","227.25","-336.5625","81.21875"
"1537871436693","444","-0.041015625","1.9775391","-0.5029297","217.125","-1.53125","47.59375"
"1537871436694","445","0.6123047","1.6044922","-1.0117188","81.5625","28.4375","16.53125"
"1537871436890","446","0.765625","1.0654297","-1.0351562","85.09375","-90.46875","-47.25"
"1537871436891","447","0.07128906","0.43847656","-0.41796875","-30.6875","-143.3125","-13.4375"
"1537871436891","448","-0.083984375","0.19140625","-0.18554688","-58.9375","-32.09375","-46.59375"
"1537871436891","449","-0.36035156","-0.4951172","0.359375","-11.53125","-12.75","-19.78125"
"1537871436891","450","-0.29296875","-0.11230469","0.21191406","-104.0625","122.9375","32.15625"
"1537871436893","451","0.072265625","0.48828125","-0.14550781","-61.9375","211.59375","20.0"
"1537871436894","452","-9.765625E-4","1.2226562","0.24414062","280.65625","58.15625","22.8125"
"1537871436894","453","1.1865234","1.9775391","0.8779297","99.75","127.75","-92.40625"
"1537871436894","454","0.62890625","0.98339844","-0.69628906","-111.1875","39.0","-19.40625"
"1537871437088","455","0.3798828","1.8339844","-0.43652344","-183.09375","30.09375","-34.5"
"1537871437089","456","0.36523438","1.4960938","-0.5263672","-261.71875","94.90625","-30.78125"
"1537871437090","457","0.17480469","1.0527344","-0.36035156","-183.875","129.5625","-19.59375"
"1537871437090","458","0.62597656","0.86621094","-0.37597656","-120.53125","141.78125","-52.3125"
"1537871437090","459","0.10253906","0.4189453","0.20605469","-53.4375","3.25","-42.4375"
"1537871437091","460","0.46191406","-0.046875","0.16992188","28.59375","-35.875","-3.75"
"1537871437287","461","-0.1015625","-0.13867188","-0.24121094","102.0","-159.375","62.84375"
"1537871437287","462","-0.29492188","1.1699219","0.30273438","113.96875","-199.21875","73.09375"
"1537871437287","463","-0.13671875","1.9775391","0.22753906","294.9375","-276.5625","90.0"
"1537871437288","464","0.16113281","1.9775391","-0.5595703","198.375","30.75","33.25"
"1537871437289","465","0.45898438","1.5126953","-1.0908203","100.46875","51.21875","12.25"
"1537871437485","466","0.7558594","1.0195312","-0.9794922","105.4375","-60.4375","-47.0"
"1537871437686","467","0.2919922","0.30664062","-0.2685547","-10.46875","-128.0","-27.71875"
"1537871437686","468","-0.15527344","-0.01171875","-0.036132812","-44.59375","-50.0625","-40.125"
"1537871437686","469","-0.19921875","-0.47558594","0.22460938","-73.03125","-29.78125","-36.21875"
"1537871437687","470","-0.33398438","9.765625E-4","0.109375","-144.15625","113.09375","46.9375"
"1537871437687","471","-0.095703125","0.4892578","-0.021484375","-36.4375","193.84375","39.84375"
"1537871437689","472","-0.44726562","1.4228516","-1.0195312","171.03125","-41.75","59.6875"
"1537871437689","473","0.4716797","0.86328125","-0.65625","-53.8125","104.0","-34.9375"
"1537871437689","474","0.7685547","0.90722656","-0.38867188","-93.625","6.84375","-40.71875"
"1537871437690","475","0.50097656","1.9775391","-0.5136719","-201.59375","67.875","-79.46875"
"1537871437885","476","0.36621094","1.3007812","-0.49902344","-240.53125","93.875","-4.15625"
"1537871437886","477","0.27539062","1.0146484","-0.390625","-177.53125","131.96875","-24.90625"
"1537871437886","478","0.51464844","0.9482422","-0.41796875","-107.03125","94.125","-47.5"
"1537871437886","479","0.08984375","0.20800781","0.18457031","-5.78125","2.25","-52.5"
"1537871437886","480","0.41015625","-0.026367188","0.048828125","48.0","-36.125","0.59375"
"1537871438084","481","-0.0068359375","-0.1640625","-0.044921875","103.09375","-118.28125","56.5625"
"1537871438084","482","-0.06738281","1.1064453","0.48632812","107.0625","-198.25","88.6875"
"1537871438084","483","-0.025390625","1.9775391","0.3828125","293.59375","-241.8125","81.53125"
"1537871438084","484","0.18164062","1.9775391","-0.7734375","161.5625","44.1875","27.875"
"1537871438085","485","0.59472656","1.5683594","-0.99609375","83.375","29.53125","-6.0625"
"1537871438284","486","0.6796875","0.984375","-0.93066406","77.40625","-63.0625","-47.5625"
"1537871438284","487","0.11230469","0.31054688","-0.5263672","-37.71875","-104.75","-28.34375"
"1537871438284","488","-0.12988281","-0.08984375","0.09082031","-29.40625","-48.40625","-59.8125"
"1537871438284","489","-0.19042969","-0.15820312","0.18652344","-60.03125","17.875","-11.5"
"1537871438284","490","-0.23339844","0.09277344","0.041015625","-76.59375","136.53125","34.71875"
"1537871438480","491","0.087890625","0.20898438","-0.028320312","-11.75","164.1875","25.375"
"1537871438481","492","-0.43554688","1.0849609","-0.8515625","98.65625","-11.0625","85.625"
"1537871438481","493","0.76953125","1.53125","-1.3359375","-17.125","6.96875","-37.125"
"1537871438481","494","0.63671875","0.9921875","-0.3515625","-110.09375","24.96875","-38.34375"
"1537871438482","495","0.5576172","1.9775391","-0.60839844","-192.71875","67.6875","-69.46875"
"1537871438678","496","0.43652344","1.3076172","-0.53027344","-231.5","89.34375","-20.46875"
"1537871438679","497","0.27246094","1.0048828","-0.33691406","-171.875","100.84375","-32.90625"
"1537871438679","498","0.37109375","0.82910156","-0.46972656","-108.3125","85.5","-58.0"
"1537871438681","499","0.109375","0.29296875","0.17675781","-31.46875","4.03125","-51.21875"
"1537871438681","500","0.30859375","-0.0126953125","0.01953125","43.84375","-43.40625","-10.4375"
"1537871439080","501","-0.00390625","-0.041015625","-0.036132812","97.125","-133.96875","48.5"
"1537871439080","502","-0.1015625","1.0488281","0.29882812","105.1875","-171.875","57.84375"
"1537871439080","503","-0.047851562","1.9775391","0.3408203","282.90625","-286.5","78.71875"
"1537871439081","504","-0.034179688","1.7529297","-0.47460938","190.6875","0.71875","31.53125"
"1537871439081","505","0.55371094","1.4492188","-0.7792969","90.09375","57.3125","24.84375"
"1537871439081","506","0.9589844","0.8876953","-1.0634766","72.34375","-54.3125","-47.9375"
"1537871439081","507","0.17773438","0.56640625","-0.66796875","-51.4375","-120.90625","-37.0625"
"1537871439081","508","0.07324219","0.39746094","-0.54296875","-82.75","-98.5625","-52.1875"
"1537871439081","509","-0.18359375","-0.068359375","0.061523438","-20.375","-62.5","-22.21875"
"1537871439277","510","-0.24121094","0.056640625","0.10449219","2.6875","-29.1875","11.46875"
"1537871439278","511","0.06542969","0.06738281","-0.12109375","-37.9375","119.4375","15.375"
"1537871439278","512","0.17089844","1.4277344","0.5673828","180.8125","99.25","9.03125"
"1537871439278","513","1.2089844","1.9775391","-0.19433594","248.6875","62.75","-131.90625"
"1537871439278","514","0.7080078","0.69628906","-0.5107422","-63.03125","87.34375","-39.9375"
"1537871439278","515","0.50878906","1.671875","-0.953125","-164.53125","-25.9375","-23.3125"
"1537871439475","516","0.49316406","1.3916016","-0.859375","-258.65625","44.0625","-16.0625"
"1537871439674","517","0.4111328","0.91308594","-0.35839844","-227.34375","45.90625","24.21875"
"1537871439873","518","0.42871094","0.9873047","-0.4580078","-157.21875","43.15625","-35.59375"
"1537871439873","519","0.0390625","0.61328125","-0.07421875","-94.15625","-23.1875","-53.65625"
"1537871439873","520","0.015625","0.13964844","0.111328125","13.375","-36.75","-62.4375"
"1537871439873","521","0.19921875","0.021484375","-0.041015625","77.46875","-38.6875","6.21875"
"1537871439873","522","0.2939453","0.08886719","0.25976562","113.1875","-103.34375","34.65625"
"1537871439875","523","1.1015625","1.9775391","-0.19042969","205.59375","-383.53125","86.71875"
"1537871439876","524","-0.9902344","1.9775391","-0.56640625","211.25","-186.21875","50.53125"
"1537871439876","525","0.3857422","1.9775391","-0.5839844","86.125","56.53125","88.84375"
"1537871439876","526","0.984375","1.4746094","-0.7402344","91.4375","-89.78125","2.90625"
"1537871440467","527","-0.33691406","-0.030273438","0.16015625","-26.0625","-102.78125","71.9375"
"1537871440470","528","-0.21582031","0.23535156","0.20019531","-45.875","32.15625","27.40625"
"1537871440471","529","0.2548828","1.7177734","0.26367188","148.15625","-26.71875","34.03125"
"1537871440471","530","0.19042969","1.9775391","-1.2236328","364.75","98.21875","-72.71875"
"1537871440472","531","0.9033203","1.7304688","-0.5800781","-104.40625","-5.25","-9.46875"
"1537871440472","532","0.66796875","1.6845703","-0.9794922","-154.59375","-65.625","-4.21875"
"1537871440472","533","0.3828125","1.4677734","-0.9296875","-212.3125","30.59375","10.25"
"1537871440472","534","0.89160156","0.8642578","-0.55371094","-197.8125","28.8125","36.59375"
"1537871440472","535","0.4892578","0.85546875","-0.16503906","-119.75","-57.9375","-16.625"
"1537871440666","536","-0.047851562","0.29785156","0.10546875","-52.21875","-140.1875","-39.375"
"1537871440667","537","0.75390625","1.7998047","-0.87402344","75.15625","-21.90625","149.34375"
"1537871440667","538","1.1328125","1.7753906","-0.98339844","29.0","-169.375","71.59375"
"1537871440667","539","0.1640625","1.2089844","-0.7294922","21.3125","-256.34375","35.4375"
"1537871441064","540","-0.0234375","0.8720703","-0.73339844","-75.1875","-147.40625","24.875"
"1537871441066","541","0.009765625","0.18457031","0.08984375","0.3125","-66.78125","35.75"
"1537871441066","542","-0.3388672","-0.125","0.123046875","-4.875","16.125","39.96875"
"1537871441066","543","-0.07910156","-0.057617188","-0.0859375","-65.15625","106.25","42.78125"
"1537871441066","544","0.060546875","0.1171875","-0.021484375","24.90625","68.40625","45.75"
"1537871441262","545","0.58203125","0.5527344","-0.2734375","53.0625","-30.8125","157.34375"
"1537871441262","546","-0.15332031","0.9482422","-0.87109375","30.90625","-180.125","69.8125"
"1537871441263","547","-0.046875","1.0859375","-0.7158203","-125.03125","35.59375","-31.625"
"1537871441265","548","0.64160156","1.8535156","-0.86816406","-169.0625","143.0","-43.84375"
"1537871441265","549","0.81933594","1.2597656","-0.59472656","-263.90625","117.6875","-21.25"
"1537871441265","550","-0.12890625","0.49609375","0.026367188","-18.84375","-32.34375","-18.8125"
"1537871441266","551","0.06933594","-0.23925781","-0.06640625","40.78125","-14.59375","1.875"
"1537871441266","552","-0.02734375","0.37597656","0.24609375","82.21875","-129.625","96.5"
"1537871441266","553","0.111328125","1.9101562","-0.10449219","232.6875","-216.5625","145.875"
"1537871441461","554","-0.08886719","1.7734375","-0.3330078","210.53125","-138.375","50.9375"
"1537871441461","555","0.21679688","1.7089844","-0.6972656","153.15625","25.5625","49.125"
"1537871441462","556","0.6435547","1.6523438","-0.8798828","111.03125","12.8125","-29.75"
"1537871441463","557","0.37402344","0.8457031","-0.8779297","25.90625","-56.6875","-19.25"
"1537871441463","558","0.018554688","0.14941406","-0.46191406","-95.3125","-59.9375","-28.5625"
"1537871441661","559","-0.099609375","-0.20214844","-0.08203125","-87.15625","26.125","-26.1875"
"1537871441662","560","-0.013671875","0.119140625","0.08984375","-60.40625","45.65625","13.59375"
"1537871441662","561","0.0029296875","0.4267578","-0.068359375","-11.03125","99.1875","23.5625"
"1537871441663","562","-0.24511719","-0.041992188","0.1953125","30.28125","95.875","21.28125"
"1537871441663","563","-1.1005859","1.0957031","-1.1533203","80.09375","-122.1875","68.59375"
"1537871441663","564","0.34570312","0.5488281","-1.1679688","-75.84375","102.34375","59.9375"
"1537871441859","565","0.6328125","1.1220703","-0.22851562","-42.34375","-1.65625","0.40625"
"1537871441860","566","0.27441406","1.671875","-0.52246094","-152.4375","74.875","-96.8125"
"1537871441860","567","0.07910156","1.1796875","-0.6015625","-161.46875","127.875","-36.375"
"1537871441860","568","0.1640625","0.5830078","-0.234375","-86.71875","187.75","-36.9375"
"1537871441860","569","0.4404297","0.09082031","0.19042969","-89.34375","164.96875","-49.9375"
"1537871442257","570","-0.080078125","0.057617188","0.078125","-16.15625","72.21875","-46.53125"
"1537871442258","571","-0.10253906","-0.0107421875","0.15332031","10.9375","80.3125","-44.125"
"1537871442258","572","-0.49316406","0.6669922","0.21582031","-8.53125","66.84375","18.71875"
"1537871442258","573","-0.31933594","1.9775391","0.7265625","147.59375","-16.34375","25.0"
"1537871442258","574","-0.6347656","1.9775391","0.22558594","-28.78125","248.84375","23.59375"
"1537871442259","575","0.5761719","0.82128906","0.28808594","39.6875","116.46875","-10.875"
"1537871442261","576","0.37304688","1.2851562","0.11816406","27.53125","-18.6875","-38.78125"
"1537871442261","577","-0.14257812","0.97265625","-0.10546875","-5.53125","-12.21875","-58.71875"
"1537871442261","578","-0.14746094","0.7441406","-0.08300781","4.71875","40.53125","-76.6875"
"1537871442454","579","0.0","0.6689453","-0.009765625","-10.25","75.3125","-61.0625"
"1537871442454","580","-0.044921875","0.6484375","0.041992188","0.5","89.78125","-33.21875"
"1537871442455","581","-0.020507812","0.8984375","0.001953125","19.1875","48.78125","-27.0"
"1537871442456","582","0.09277344","0.8564453","-0.025390625","30.15625","27.28125","-15.625"
"1537871442457","583","-0.026367188","0.97753906","0.056640625","13.0625","24.0625","-2.09375"
"1537871442457","584","-0.17382812","1.1503906","0.009765625","6.53125","38.28125","-16.25"
"1537871442654","585","-0.08691406","1.0302734","-0.057617188","17.53125","69.28125","-20.09375"
"1537871442654","586","-0.053710938","0.9589844","-0.044921875","19.5","70.625","-17.21875"
"1537871442654","587","-0.04296875","0.93652344","-0.08496094","9.59375","70.625","-17.09375"
"1537871442654","588","-0.0546875","0.9765625","-0.11621094","8.625","58.46875","-18.375"
"1537871442656","589","0.0048828125","0.98535156","-0.10546875","14.0","39.375","-16.4375"
"1537871442852","590","-0.028320312","0.9814453","-0.12207031","6.5","32.71875","-9.59375"
"1537871442852","591","-0.041992188","1.0136719","-0.13671875","7.9375","27.71875","-6.1875"
"1537871442853","592","-0.030273438","0.9921875","-0.14355469","12.40625","19.28125","-6.1875"
"1537871442853","593","-0.0048828125","0.9970703","-0.13671875","12.71875","22.78125","-6.125"
"1537871442854","594","-9.765625E-4","0.9267578","-0.1640625","16.1875","25.28125","-3.78125"
"1537871443052","595","9.765625E-4","0.96972656","-0.2265625","14.59375","21.4375","-1.46875"
"1537871443052","596","-0.01171875","1.0107422","-0.2841797","11.3125","11.0625","-1.65625"
"1537871443053","597","0.0107421875","1.0146484","-0.28027344","3.5625","8.375","0.84375"
"1537871443053","598","-0.01953125","0.93066406","-0.2626953","3.0","11.71875","2.25"
"1537871443053","599","-0.033203125","0.92578125","-0.21386719","-1.4375","9.9375","-2.5625"
