"# PDIoT walking data"
"# Start time: 20180924T141913"
"# Group: C"
"# Subject: TestCsanti"
"# Activity type: Climbing stairs"
"# Sensor position: Wrist"
"# Side of body: Right"
"# Sensor mounting: Body"
"# Number of steps: 100"
"# Notes: Blue side of sensor facing body, purple sensor
"
""
"timestamp","seq","accel_x","accel_y","accel_z","gyro_x","gyro_y","gyro_z"
"1537795153960","0","-0.7890625","0.26953125","-0.21777344","-17.09375","5.0","-3.46875"
"1537795153961","1","-0.80371094","0.23046875","-0.23730469","6.53125","-10.3125","-12.25"
"1537795153962","2","-0.9111328","0.19238281","-0.25","10.5625","-16.90625","-21.53125"
"1537795153962","3","-0.85546875","0.16503906","-0.25097656","-5.125","-14.53125","-27.46875"
"1537795153962","4","-0.8701172","0.16699219","-0.23339844","-25.0625","-22.53125","-28.8125"
"1537795153962","5","-0.93847656","0.19433594","-0.2998047","-29.21875","-32.65625","-36.65625"
"1537795153963","6","-0.9609375","0.22753906","-0.34179688","-30.75","-44.0","-43.15625"
"1537795153963","7","-0.92871094","0.25195312","-0.359375","-13.0625","-50.65625","-49.71875"
"1537795153963","8","-0.9707031","0.23339844","-0.3544922","5.5625","-54.125","-55.78125"
"1537795154356","9","-1.0009766","0.21484375","-0.37304688","-1.625","-43.34375","-54.8125"
"1537795154359","10","-0.9921875","0.24707031","-0.37890625","-5.96875","-32.34375","-46.625"
"1537795154360","11","-0.9707031","0.27148438","-0.36328125","-3.46875","-21.90625","-34.15625"
"1537795154360","12","-0.9501953","0.29296875","-0.3388672","0.875","-11.59375","-19.53125"
"1537795154360","13","-0.90722656","0.2919922","-0.32226562","11.1875","-3.53125","-5.90625"
"1537795154360","14","-0.9003906","0.27734375","-0.29101562","16.96875","0.125","4.90625"
"1537795154361","15","-0.9394531","0.27441406","-0.28808594","24.0","-0.71875","12.03125"
"1537795154361","16","-1.0283203","0.25097656","-0.25976562","22.21875","3.84375","21.9375"
"1537795154361","17","-1.0175781","0.23339844","-0.14160156","7.46875","10.25","38.84375"
"1537795154556","18","-1.2685547","0.2861328","-0.036132812","2.09375","-8.0","45.40625"
"1537795154557","19","-1.6972656","0.4921875","-0.13964844","21.4375","-31.5","39.3125"
"1537795154558","20","-1.4248047","0.53125","-0.30566406","88.375","0.65625","42.0"
"1537795154558","21","-1.1474609","0.2783203","-0.0146484375","144.34375","2.5625","77.34375"
"1537795154558","22","-1.1982422","0.29492188","-0.021484375","159.75","21.78125","87.78125"
"1537795154559","23","-1.1367188","0.21582031","-0.0078125","131.3125","45.34375","83.375"
"1537795154755","24","-1.0136719","0.125","-0.032226562","72.9375","70.375","78.0625"
"1537795154756","25","-0.85253906","0.19335938","-0.022460938","32.125","77.15625","71.46875"
"1537795154756","26","-0.71875","0.22753906","9.765625E-4","22.59375","74.59375","61.15625"
"1537795154756","27","-0.62597656","0.234375","-0.0048828125","20.65625","59.03125","50.25"
"1537795154757","28","-0.6435547","0.24316406","-0.015625","24.5625","38.5625","34.1875"
"1537795154953","29","-0.78125","0.25","0.01171875","26.3125","14.46875","14.0625"
"1537795154954","30","-0.9921875","0.24609375","0.0146484375","22.90625","-7.03125","-9.21875"
"1537795154954","31","-1.2929688","0.22265625","-0.00390625","12.21875","-27.34375","-35.09375"
"1537795154954","32","-1.5585938","0.20800781","-0.034179688","-8.28125","-34.5","-64.1875"
"1537795154955","33","-1.5224609","0.18847656","-9.765625E-4","-35.8125","-33.5","-93.875"
"1537795155152","34","-1.2949219","0.19824219","-0.068359375","-68.03125","-42.46875","-107.78125"
"1537795155153","35","-0.9824219","0.234375","-0.22070312","-63.90625","-50.28125","-97.28125"
"1537795155154","36","-1.0126953","0.15820312","-0.22460938","-36.4375","-71.15625","-83.25"
"1537795155154","37","-0.99609375","0.12011719","-0.24414062","-32.21875","-57.25","-84.21875"
"1537795155154","38","-0.81933594","0.10644531","-0.22558594","-72.4375","-38.5625","-83.84375"
"1537795155350","39","-0.7138672","0.16503906","-0.23339844","-101.96875","-22.34375","-77.75"
"1537795155350","40","-0.65722656","0.19628906","-0.23339844","-103.875","-11.59375","-71.21875"
"1537795155351","41","-0.6464844","0.234375","-0.23828125","-109.4375","-6.34375","-61.8125"
"1537795155351","42","-0.7089844","0.296875","-0.2705078","-103.5","-10.5","-52.71875"
"1537795155353","43","-0.8105469","0.35058594","-0.29492188","-80.75","-18.5","-43.375"
"1537795155552","44","-0.88964844","0.3623047","-0.2919922","-50.40625","-31.375","-30.8125"
"1537795155552","45","-0.9951172","0.375","-0.3359375","-22.75","-45.96875","-14.21875"
"1537795155552","46","-1.0546875","0.35546875","-0.32617188","4.90625","-56.21875","9.34375"
"1537795155553","47","-1.5800781","0.50683594","-0.4560547","54.5","-79.40625","29.4375"
"1537795155553","48","-1.7148438","0.5703125","-0.53027344","140.875","-23.5","50.90625"
"1537795155748","49","-1.2792969","0.33789062","-0.076171875","173.09375","32.15625","99.5625"
"1537795155949","50","-1.4980469","0.19238281","-0.0146484375","182.6875","69.875","121.59375"
"1537795155949","51","-1.265625","0.0625","-0.060546875","139.0","117.90625","126.65625"
"1537795155950","52","-1.0722656","0.11816406","-0.056640625","72.71875","130.90625","132.34375"
"1537795155950","53","-0.9902344","0.18261719","-0.055664062","32.125","132.6875","130.1875"
"1537795155950","54","-0.7861328","0.23632812","-0.0126953125","19.46875","120.78125","124.34375"
"1537795155952","55","-0.7626953","0.25097656","0.017578125","36.375","95.46875","106.75"
"1537795155953","56","-0.7080078","0.21386719","0.017578125","52.25","72.4375","78.125"
"1537795155953","57","-0.78515625","0.18164062","0.0048828125","48.53125","40.59375","46.40625"
"1537795155953","58","-0.8857422","0.16015625","0.00390625","32.3125","11.21875","12.40625"
"1537795156146","59","-1.0449219","0.18066406","-0.033203125","5.0625","-21.0","-21.59375"
"1537795156146","60","-1.2080078","0.18164062","-0.03125","-13.53125","-53.71875","-56.1875"
"1537795156344","61","-1.3886719","0.20703125","-0.0546875","-25.625","-83.875","-95.03125"
"1537795156344","62","-1.3984375","0.23144531","-0.13964844","-38.625","-103.40625","-126.40625"
"1537795156345","63","-1.2080078","0.24707031","-0.26757812","-28.125","-105.46875","-127.125"
"1537795156345","64","-1.2480469","0.16210938","-0.20898438","-25.4375","-103.53125","-105.59375"
"1537795156345","65","-1.1308594","0.09082031","-0.19628906","-33.9375","-90.09375","-95.3125"
"1537795156346","66","-1.1152344","0.0390625","-0.2998047","-76.40625","-85.6875","-93.4375"
"1537795156348","67","-1.0195312","0.14550781","-0.3125","-119.0625","-63.125","-96.4375"
"1537795156348","68","-0.8408203","0.25683594","-0.3203125","-126.75","-44.0625","-94.59375"
"1537795156543","69","-0.6621094","0.28515625","-0.27734375","-122.1875","-20.5","-79.75"
"1537795156543","70","-0.5761719","0.30859375","-0.24121094","-109.1875","-13.125","-59.75"
"1537795156543","71","-0.6298828","0.32421875","-0.24902344","-93.125","-7.3125","-40.46875"
"1537795156544","72","-0.68847656","0.35253906","-0.25097656","-78.125","-9.21875","-25.5"
"1537795156545","73","-0.8574219","0.33007812","-0.28222656","-58.78125","-21.1875","-15.25"
"1537795156743","74","-1.0400391","0.3466797","-0.27929688","-50.78125","-32.28125","-3.84375"
"1537795156743","75","-1.3554688","0.3251953","-0.33398438","-43.8125","-51.5625","11.0"
"1537795156744","76","-1.3496094","0.28515625","-0.3701172","-57.0625","-43.21875","42.125"
"1537795156744","77","-1.2919922","0.40234375","-0.49609375","-17.5","-42.40625","78.6875"
"1537795156744","78","-1.4941406","0.36621094","-0.5410156","50.5","7.6875","114.4375"
"1537795156941","79","-1.7744141","0.21582031","-0.1796875","60.375","54.1875","162.90625"
"1537795156941","80","-1.8027344","0.12109375","-0.045898438","44.03125","117.0","177.1875"
"1537795156941","81","-1.7392578","0.14355469","-0.091796875","25.21875","151.1875","168.03125"
"1537795156942","82","-1.3496094","0.19042969","-0.08984375","2.4375","161.25","163.40625"
"1537795157140","83","-1.1835938","0.21777344","-0.12109375","13.5","136.78125","154.78125"
"1537795157140","84","-1.0234375","0.2109375","-0.06347656","39.25","120.25","137.71875"
"1537795157142","85","-0.8310547","0.171875","-0.05078125","59.15625","95.875","117.9375"
"1537795157142","86","-0.7949219","0.10253906","-0.13378906","68.96875","78.125","93.9375"
"1537795157143","87","-0.6191406","0.057617188","-0.13183594","56.71875","75.5","75.875"
"1537795157338","88","-0.50878906","-0.0048828125","-0.14453125","41.28125","64.03125","59.28125"
"1537795157338","89","-0.6464844","0.1328125","-0.328125","35.46875","40.03125","23.5"
"1537795157339","90","-0.78027344","0.091796875","-0.28125","36.6875","25.15625","-36.125"
"1537795157339","91","-0.9013672","0.1171875","-0.16210938","-51.5","-27.21875","-109.59375"
"1537795157340","92","-1.0957031","0.43652344","-0.13378906","-148.96875","-63.28125","-184.0"
"1537795157738","93","-1.2470703","0.6386719","-0.15820312","-152.28125","-73.84375","-227.34375"
"1537795157739","94","-1.6738281","0.6152344","0.043945312","-138.90625","-63.125","-240.40625"
"1537795157740","95","-1.5224609","0.61621094","0.16601562","-176.4375","-25.34375","-242.1875"
"1537795157740","96","-1.3046875","0.546875","0.09277344","-229.65625","-10.375","-208.84375"
"1537795157740","97","-1.0634766","0.5673828","-0.025390625","-248.9375","7.375","-168.9375"
"1537795157741","98","-0.7919922","0.58984375","-0.043945312","-202.9375","19.28125","-135.96875"
"1537795157741","99","-0.67578125","0.44921875","-0.043945312","-155.375","25.4375","-112.0"
"1537795157741","100","-0.73046875","0.359375","-0.018554688","-153.5625","31.5625","-102.21875"
"1537795157741","101","-0.70410156","0.55566406","0.061523438","-186.875","32.84375","-98.125"
"1537795157934","102","-1.0683594","0.9941406","-0.3125","-75.5625","-38.6875","-79.46875"
"1537795157935","103","-1.1572266","1.0029297","-0.3173828","13.75","-63.46875","-32.71875"
"1537795157935","104","-1.5458984","0.8310547","-0.25195312","145.21875","-88.8125","9.46875"
"1537795157936","105","-1.453125","0.7060547","-0.4267578","205.28125","-57.75","67.5625"
"1537795157936","106","-1.4980469","0.51953125","-0.21289062","213.875","-17.28125","122.5"
"1537795158331","107","-1.3867188","0.35351562","-0.080078125","188.90625","40.65625","150.9375"
"1537795158332","108","-1.2880859","0.2578125","-0.09277344","168.09375","78.625","158.65625"
"1537795158332","109","-1.1572266","0.15234375","-0.099609375","145.8125","106.6875","163.84375"
"1537795158333","110","-0.9863281","0.12792969","-0.056640625","110.96875","122.0","169.375"
"1537795158333","111","-0.91796875","0.13867188","-0.04296875","81.0","114.1875","165.90625"
"1537795158334","112","-0.8808594","0.14648438","-0.01171875","59.75","105.21875","149.0625"
"1537795158335","113","-0.87109375","0.1484375","0.015625","42.90625","79.28125","118.90625"
"1537795158335","114","-0.97753906","0.14453125","0.01171875","23.03125","45.21875","70.4375"
"1537795158336","115","-0.98828125","0.16699219","-0.033203125","2.21875","9.09375","7.875"
"1537795158530","116","-1.1162109","0.19824219","-0.08691406","-35.5625","-73.125","-113.40625"
"1537795158530","117","-1.0742188","0.23925781","-0.15917969","-40.9375","-102.59375","-151.1875"
"1537795158531","118","-1.3105469","0.21972656","-0.16015625","-33.0625","-115.0625","-168.25"
"1537795158532","119","-1.3212891","0.23828125","-0.19726562","-30.3125","-104.125","-169.90625"
"1537795158533","120","-1.0263672","0.18164062","-0.23730469","-38.875","-82.15625","-149.78125"
"1537795158730","121","-0.9121094","0.09472656","-0.23828125","-77.0","-75.5","-120.34375"
"1537795158730","122","-0.84375","0.24902344","-0.19824219","-99.28125","-53.71875","-104.53125"
"1537795158730","123","-0.7597656","0.3388672","-0.23828125","-99.15625","-41.25","-91.46875"
"1537795158730","124","-0.83496094","0.34277344","-0.24511719","-85.5","-34.25","-85.4375"
"1537795158731","125","-0.9091797","0.4453125","-0.18652344","-79.28125","-34.4375","-76.21875"
"1537795158928","126","-1.0771484","0.45410156","-0.22167969","-65.59375","-45.59375","-64.3125"
"1537795158928","127","-1.1240234","0.5761719","-0.30078125","-67.625","-47.125","-42.21875"
"1537795158929","128","-1.1347656","0.66503906","-0.33789062","-43.3125","-49.6875","-0.84375"
"1537795158929","129","-1.5185547","0.58496094","-0.36914062","12.84375","-45.71875","41.15625"
"1537795158929","130","-1.4287109","0.5878906","-0.40234375","59.65625","-10.625","79.71875"
"1537795159127","131","-1.3955078","0.43652344","-0.15234375","80.8125","28.125","117.25"
"1537795159128","132","-1.3632812","0.35351562","-0.13769531","104.25","62.1875","135.625"
"1537795159128","133","-1.2382812","0.23144531","-0.13183594","109.875","88.0","146.8125"
"1537795159130","134","-1.0996094","0.1875","-0.12695312","94.96875","101.0","154.84375"
"1537795159130","135","-1.0546875","0.19726562","-0.09863281","88.375","104.96875","154.5625"
"1537795159524","136","-0.9091797","0.20214844","-0.041015625","88.15625","106.5","143.9375"
"1537795159526","137","-0.83496094","0.15625","-0.02734375","91.125","89.59375","120.1875"
"1537795159526","138","-0.89941406","0.10839844","-0.0625","81.5625","71.09375","81.75"
"1537795159526","139","-1.0166016","0.08203125","-0.04296875","45.3125","49.1875","34.5"
"1537795159527","140","-1.2294922","0.15722656","-0.0048828125","-9.9375","28.8125","-15.3125"
"1537795159527","141","-1.1289062","0.22363281","0.005859375","-37.9375","12.625","-60.46875"
"1537795159528","142","-1.1669922","0.23925781","0.017578125","-44.90625","-12.5","-96.0"
"1537795159528","143","-0.9980469","0.24609375","-0.037109375","-55.71875","-37.34375","-118.75"
"1537795159529","144","-1.1835938","0.23828125","-0.125","-61.09375","-67.375","-131.34375"
"1537795159722","145","-1.1171875","0.26464844","-0.18945312","-56.3125","-60.78125","-136.46875"
"1537795159724","146","-0.8769531","0.23242188","-0.19335938","-55.96875","-49.625","-126.34375"
"1537795159724","147","-0.7294922","0.15332031","-0.17089844","-67.5625","-51.09375","-112.90625"
"1537795159725","148","-0.73535156","0.18652344","-0.17089844","-90.8125","-48.21875","-107.90625"
"1537795159725","149","-0.7685547","0.24121094","-0.17578125","-115.65625","-40.84375","-108.09375"
"1537795159725","150","-0.81640625","0.38183594","-0.17578125","-126.46875","-43.875","-112.71875"
"1537795159922","151","-1.0117188","0.48828125","-0.33398438","-99.34375","-53.96875","-116.8125"
"1537795159923","152","-1.1240234","0.63183594","-0.32226562","-72.3125","-53.28125","-101.6875"
"1537795159923","153","-1.0878906","0.73828125","-0.359375","-29.71875","-47.65625","-59.9375"
"1537795159924","154","-1.1474609","0.4970703","-0.29492188","17.40625","-48.15625","-5.125"
"1537795159924","155","-1.7216797","0.5107422","-0.3642578","38.28125","-54.1875","39.4375"
"1537795160122","156","-1.4765625","0.5761719","-0.5175781","59.15625","-9.15625","72.28125"
"1537795160122","157","-1.1611328","0.4404297","-0.31054688","86.625","21.3125","115.96875"
"1537795160122","158","-1.2880859","0.38867188","-0.20117188","147.28125","39.375","134.53125"
"1537795160122","159","-1.3212891","0.19824219","-0.1328125","175.78125","78.375","134.40625"
"1537795160124","160","-1.1660156","0.09472656","-0.11425781","131.25","109.125","134.53125"
"1537795160319","161","-1.0292969","0.068359375","-0.11816406","83.15625","122.6875","134.84375"
"1537795160320","162","-0.87890625","0.10644531","-0.06542969","39.6875","127.8125","135.8125"
"1537795160320","163","-0.8046875","0.15820312","-0.0087890625","17.65625","117.0","127.625"
"1537795160320","164","-0.8183594","0.1640625","0.015625","11.90625","95.75","102.375"
"1537795160321","165","-0.87890625","0.17480469","0.047851562","7.59375","66.71875","63.5"
"1537795160519","166","-1.0683594","0.20410156","0.036132812","-5.96875","32.71875","13.9375"
"1537795160519","167","-1.0986328","0.2265625","-0.032226562","-18.25","4.28125","-38.3125"
"1537795160519","168","-1.2880859","0.19628906","-0.009765625","-24.59375","-37.21875","-85.3125"
"1537795160521","169","-1.1894531","0.19433594","-0.001953125","-44.25","-56.6875","-133.84375"
"1537795160521","170","-1.0048828","0.20996094","-0.16601562","-59.3125","-84.09375","-156.25"
"1537795160716","171","-1.1328125","0.16113281","-0.2626953","-58.71875","-116.34375","-158.75"
"1537795160717","172","-1.171875","0.18945312","-0.3046875","-48.5625","-110.53125","-160.6875"
"1537795160717","173","-1.1396484","0.16113281","-0.27148438","-60.15625","-104.125","-161.65625"
"1537795160717","174","-1.1220703","0.1875","-0.28222656","-99.78125","-80.3125","-152.6875"
"1537795160718","175","-0.9316406","0.3154297","-0.29785156","-131.53125","-47.53125","-126.625"
"1537795160916","176","-0.7246094","0.37304688","-0.29785156","-125.53125","-25.28125","-93.125"
"1537795160916","177","-0.60253906","0.51171875","-0.34472656","-85.75","-24.0625","-57.53125"
"1537795161116","178","-0.99609375","0.40820312","-0.4638672","-16.46875","-29.0625","-39.53125"
"1537795161117","179","-0.9921875","0.4765625","-0.33789062","-27.21875","-13.1875","-16.78125"
"1537795161117","180","-1.1367188","0.5371094","-0.3671875","-4.4375","-14.21875","11.25"
"1537795161117","181","-1.2382812","0.40722656","-0.33007812","25.40625","-16.28125","47.8125"
"1537795161119","182","-1.6328125","0.40429688","-0.33984375","31.0625","-10.6875","81.25"
"1537795161119","183","-1.2373047","0.42871094","-0.31640625","40.28125","35.8125","111.78125"
"1537795161119","184","-1.2617188","0.36035156","-0.15234375","76.125","39.125","142.78125"
"1537795161119","185","-1.2646484","0.2705078","-0.078125","104.3125","65.375","153.21875"
"1537795161313","186","-1.2060547","0.15722656","-0.1171875","91.4375","86.90625","152.40625"
"1537795161314","187","-1.0595703","0.10449219","-0.08691406","40.0","102.0625","149.59375"
"1537795161314","188","-0.84765625","0.17871094","-0.11035156","0.6875","94.375","145.875"
"1537795161314","189","-0.7529297","0.23242188","-0.08984375","4.09375","76.71875","135.375"
"1537795161315","190","-0.66796875","0.25097656","-0.09472656","34.5","54.125","112.1875"
"1537795161513","191","-0.63671875","0.22949219","-0.15429688","59.09375","31.75","82.28125"
"1537795161513","192","-0.6435547","0.2109375","-0.115234375","56.65625","18.625","55.3125"
"1537795161513","193","-0.5449219","0.17675781","-0.16601562","47.0625","-1.46875","32.40625"
"1537795161514","194","-0.7246094","0.16113281","-0.234375","31.8125","-34.65625","5.9375"
"1537795161514","195","-1.0449219","0.20410156","-0.25976562","4.78125","-67.03125","-43.625"
"1537795161910","196","-1.2734375","0.25976562","-0.20996094","-44.71875","-99.0625","-98.625"
"1537795161910","197","-1.7216797","0.38085938","-0.18652344","-87.875","-135.3125","-149.28125"
"1537795162108","198","-1.6699219","0.48632812","-0.27929688","-97.34375","-75.5","-179.0"
"1537795162109","199","-1.4306641","0.5800781","-9.765625E-4","-113.5625","-35.09375","-146.40625"
"1537795162109","200","-1.296875","0.45996094","0.10449219","-44.46875","8.375","-101.78125"
"1537795162111","201","-1.0146484","0.15332031","0.16308594","-89.34375","51.28125","-48.9375"
"1537795162309","202","-0.8417969","0.2998047","0.14355469","-176.75","52.1875","-15.96875"
"1537795162309","203","-0.64160156","0.35351562","0.045898438","-217.875","56.46875","-0.90625"
"1537795162310","204","-0.5625","0.28808594","0.08300781","-267.5625","46.6875","6.46875"
"1537795162310","205","-0.53027344","0.33789062","0.12207031","-287.90625","37.65625","1.96875"
"1537795162310","206","-0.6435547","0.4296875","0.047851562","-248.65625","20.625","-18.3125"
"1537795162310","207","-0.77246094","0.6220703","-0.015625","-183.53125","9.34375","-43.03125"
"1537795162310","208","-1.1416016","0.5859375","-0.0703125","-198.96875","35.03125","-53.875"
"1537795162311","209","-1.2607422","0.7558594","-0.2734375","-196.15625","19.78125","-32.53125"
"1537795162311","210","-1.6621094","1.1875","-0.26464844","-133.15625","8.1875","-15.375"
"1537795162505","211","-1.2138672","0.32128906","-0.13476562","174.03125","20.8125","72.15625"
"1537795162507","212","-1.0927734","0.3623047","-0.046875","171.65625","41.625","102.0625"
"1537795162507","213","-0.9453125","0.19042969","-0.09472656","156.375","64.28125","118.90625"
"1537795162507","214","-0.8886719","0.2109375","-0.08886719","139.125","78.125","124.59375"
"1537795162507","215","-0.8574219","0.10449219","-0.064453125","116.71875","95.59375","116.96875"
"1537795162705","216","-0.8330078","0.0703125","-0.028320312","71.4375","101.1875","105.71875"
"1537795162707","217","-0.82128906","0.044921875","-0.017578125","27.59375","94.375","83.5"
"1537795162708","218","-0.8847656","0.06640625","-0.028320312","-10.3125","70.375","48.84375"
"1537795162708","219","-0.9707031","0.13867188","-0.040039062","-44.90625","39.90625","4.09375"
"1537795162708","220","-1.0751953","0.21582031","-0.043945312","-54.5625","0.25","-49.25"
"1537795162903","221","-1.2001953","0.22167969","-0.057617188","-47.71875","-39.84375","-110.59375"
"1537795163103","222","-1.1816406","0.29101562","-0.14453125","-47.96875","-69.21875","-152.625"
"1537795163300","223","-1.0410156","0.24902344","-0.22949219","-30.25","-81.375","-156.3125"
"1537795163302","224","-1.0820312","0.15527344","-0.18847656","-14.15625","-90.8125","-145.75"
"1537795163302","225","-1.0488281","0.11621094","-0.22753906","-25.25","-88.875","-137.375"
"1537795163303","226","-1.0615234","0.12597656","-0.2841797","-75.6875","-66.34375","-124.5"
"1537795163303","227","-0.8183594","0.18945312","-0.20410156","-124.5625","-33.375","-103.8125"
"1537795163305","228","-0.78515625","0.25","-0.16308594","-131.53125","-21.4375","-87.4375"
"1537795163305","229","-0.8251953","0.2841797","-0.18457031","-135.90625","-14.71875","-75.0625"
"1537795163306","230","-0.91796875","0.34765625","-0.14648438","-145.6875","-15.5","-66.34375"
"1537795163306","231","-1.0712891","0.453125","-0.16699219","-143.25","-25.4375","-55.78125"
"1537795163700","232","-1.1210938","0.4609375","-0.29785156","81.6875","3.84375","99.875"
"1537795163701","233","-1.2363281","0.44628906","-0.24121094","133.125","6.28125","129.71875"
"1537795163897","234","-1.2363281","0.26660156","-0.24707031","172.8125","28.1875","127.4375"
"1537795163897","235","-1.1591797","0.17871094","-0.14257812","177.8125","56.59375","120.25"
"1537795163898","236","-0.99316406","0.08496094","-0.109375","139.0","76.96875","107.75"
"1537795164097","237","-0.86035156","0.08105469","-0.09472656","80.9375","91.0","99.6875"
"1537795164098","238","-0.80859375","0.12597656","-0.037109375","35.28125","95.46875","92.0"
"1537795164099","239","-0.90234375","0.17382812","0.0087890625","13.875","84.03125","76.25"
"1537795164099","240","-0.9921875","0.19140625","0.05859375","-0.0625","67.25","51.53125"
"1537795164100","241","-1.1611328","0.21777344","-0.0126953125","-22.3125","24.53125","-19.9375"
"1537795164295","242","-1.2021484","0.1953125","-0.029296875","-23.5","-15.5","-57.3125"
"1537795164295","243","-0.98046875","0.16308594","-0.3046875","-47.96875","-60.90625","-127.75"
"1537795164295","244","-0.7763672","0.072265625","-0.29882812","-56.75","-58.21875","-123.875"
"1537795164296","245","-0.7998047","0.09472656","-0.27246094","-95.03125","-51.6875","-120.90625"
"1537795164296","246","-0.7607422","0.18652344","-0.26464844","-119.6875","-36.375","-121.625"
"1537795164297","247","-0.81152344","0.3564453","-0.27539062","-117.125","-17.59375","-96.96875"
"1537795164298","248","-0.8642578","0.41015625","-0.2890625","-101.0","-13.5625","-72.1875"
"1537795164298","249","-1.0068359","0.43945312","-0.3466797","-67.375","-19.21875","-44.46875"
"1537795164299","250","-1.1181641","0.41210938","-0.33691406","-34.0","-20.5625","-17.125"
"1537795164493","251","-1.2734375","0.35742188","-0.30566406","-8.03125","-48.84375","27.78125"
"1537795164496","252","-1.6230469","0.54589844","-0.3642578","19.3125","-57.5625","37.0625"
"1537795164497","253","-1.0048828","0.55859375","-0.30078125","84.78125","-10.25","67.46875"
"1537795164497","254","-1.0048828","0.3515625","-0.13378906","149.5","-0.65625","115.375"
"1537795164497","255","-1.0751953","0.19628906","-0.1171875","155.21875","31.375","141.5625"
"1537795164692","256","-1.0859375","0.19433594","-0.10546875","130.6875","62.0625","144.25"
"1537795164694","257","-1.1240234","0.20410156","-0.06640625","96.9375","77.75","134.21875"
"1537795164694","258","-1.0458984","0.17578125","-0.060546875","61.46875","90.09375","118.34375"
"1537795164694","259","-0.92578125","0.16796875","-0.037109375","10.15625","91.84375","104.6875"
"1537795164694","260","-0.78027344","0.2421875","-0.015625","-34.65625","81.40625","94.5625"
"1537795164891","261","-0.6689453","0.32421875","-0.016601562","-49.90625","64.21875","88.21875"
"1537795164891","262","-0.6123047","0.421875","-0.15917969","-38.3125","36.8125","85.53125"
"1537795164892","263","-0.5761719","0.52734375","-0.36328125","-14.21875","27.59375","84.0"
"1537795164892","264","-0.4169922","0.6933594","-0.56640625","8.3125","19.21875","77.65625"
"1537795164893","265","-0.52441406","0.69628906","-0.5654297","17.34375","0.65625","55.125"
"1537795165089","266","-0.4736328","0.7734375","-0.7285156","10.15625","-0.5625","20.9375"
"1537795165090","267","-0.5810547","0.6777344","-0.69140625","27.0625","-14.28125","-2.78125"
"1537795165090","268","-0.6230469","0.4951172","-0.5175781","17.53125","-19.03125","-23.0"
"1537795165091","269","-0.734375","0.37109375","-0.5019531","-20.1875","-13.90625","-48.875"
"1537795165091","270","-0.75","0.41308594","-0.30664062","-8.65625","-31.3125","-68.96875"
"1537795165290","271","-1.0625","0.27441406","-0.24121094","38.78125","-35.71875","-93.6875"
"1537795165291","272","-1.8378906","0.20898438","-0.017578125","32.90625","-58.78125","-119.0625"
"1537795165293","273","-1.8378906","0.24023438","-0.078125","-5.78125","15.75","-147.4375"
"1537795165293","274","-1.5205078","0.091796875","0.19628906","-92.875","27.28125","-128.96875"
"1537795165293","275","-1.2333984","0.2998047","0.23339844","-129.6875","20.3125","-99.84375"
"1537795165487","276","-1.2587891","0.28125","0.001953125","-124.0625","-8.125","-71.875"
"1537795165487","277","-1.1425781","0.37695312","-0.061523438","-83.4375","-28.6875","-62.5625"
"1537795165488","278","-0.9082031","0.33007812","-0.04296875","-45.71875","-25.5","-59.375"
"1537795165488","279","-0.671875","0.25","-0.051757812","-37.03125","-27.84375","-53.53125"
"1537795165489","280","-0.7060547","0.18359375","-0.13085938","-48.28125","-16.0625","-48.6875"
"1537795165686","281","-0.4638672","0.15917969","-0.12988281","-88.6875","15.875","-37.21875"
"1537795165686","282","-0.3486328","0.16308594","-0.095703125","-119.5","28.5","-24.53125"
"1537795165686","283","-0.38085938","0.20703125","-0.09375","-127.1875","33.875","-12.9375"
"1537795165686","284","-0.4638672","0.32128906","-0.18457031","-116.4375","32.65625","-7.5"
"1537795165687","285","-0.9404297","0.46484375","-0.2265625","-97.28125","6.71875","-13.28125"
"1537795165885","286","-1.1542969","0.46191406","-0.3828125","-108.6875","2.1875","-44.78125"
"1537795165885","287","-1.0078125","0.4375","-0.46679688","-159.0","-28.9375","-73.53125"
"1537795165885","288","-1.1181641","0.5175781","-0.2919922","-191.03125","-62.8125","-103.03125"
"1537795165885","289","-1.0878906","0.45410156","-0.35058594","-214.03125","-79.09375","-130.125"
"1537795165887","290","-1.2382812","0.63671875","-0.7089844","-227.28125","-70.1875","-123.15625"
"1537795166281","291","-1.3242188","0.93652344","-0.36035156","-127.4375","-33.375","-66.03125"
"1537795166282","292","-1.6171875","0.9355469","-0.5107422","55.5625","2.1875","17.53125"
"1537795166282","293","-1.9921875","0.38085938","-0.34960938","148.5625","53.84375","100.59375"
"1537795166283","294","-1.4267578","0.19628906","-0.16113281","87.71875","141.84375","198.875"
"1537795166284","295","-1.7822266","0.04296875","-0.14453125","109.6875","146.53125","232.3125"
"1537795166284","296","-1.2744141","0.087890625","-0.08105469","67.5625","188.90625","231.8125"
"1537795166285","297","-0.8417969","0.1796875","-0.047851562","43.90625","179.875","218.9375"
"1537795166285","298","-0.6669922","0.12402344","-0.0546875","65.875","152.96875","188.78125"
"1537795166286","299","-0.49414062","0.07324219","-0.029296875","73.5625","127.25","157.3125"
"1537795166480","300","-0.3701172","0.013671875","-0.017578125","57.3125","66.34375","76.4375"
"1537795166481","301","-0.43652344","0.03125","-0.08203125","30.09375","28.0","27.46875"
"1537795166481","302","-0.5996094","0.19921875","-0.15917969","0.8125","-10.375","-20.5"
"1537795166481","303","-0.8027344","0.1484375","-0.17578125","-23.375","-43.875","-67.5625"
"1537795166482","304","-1.1484375","0.17578125","-0.13574219","-86.65625","-90.03125","-132.8125"
"1537795166679","305","-1.3457031","0.2841797","-0.20117188","-145.25","-143.125","-193.40625"
"1537795166680","306","-1.9921875","0.4609375","-0.36328125","-145.0","-176.28125","-223.9375"
"1537795166680","307","-1.9052734","0.44628906","-0.328125","-78.46875","-138.6875","-227.15625"
"1537795166681","308","-1.53125","0.35058594","-0.3310547","-15.90625","-112.1875","-211.125"
"1537795166682","309","-1.0439453","0.111328125","-0.38964844","-66.40625","-76.53125","-168.25"
"1537795166878","310","-0.8173828","0.2548828","-0.2529297","-130.0","-49.875","-124.4375"
"1537795166879","311","-0.69921875","0.3046875","-0.21289062","-132.1875","-24.96875","-98.1875"
"1537795166879","312","-0.6621094","0.36523438","-0.19921875","-140.96875","-9.21875","-74.4375"
"1537795166880","313","-0.7050781","0.42773438","-0.21679688","-142.5","-1.65625","-60.84375"
"1537795166880","314","-0.7988281","0.49902344","-0.22558594","-143.25","-1.59375","-53.21875"
"1537795167077","315","-0.8886719","0.55371094","-0.20410156","-135.96875","-7.15625","-43.8125"
"1537795167078","316","-1.1318359","0.63183594","-0.23632812","-110.84375","-29.0625","-25.25"
"1537795167079","317","-1.4267578","0.5917969","-0.29492188","-69.09375","-37.40625","3.625"
"1537795167079","318","-1.7695312","0.671875","-0.5751953","-12.9375","-48.03125","37.65625"
"1537795167278","319","-1.2910156","0.4501953","-0.53515625","36.9375","10.5","98.875"
"1537795167279","320","-1.5009766","0.36816406","-0.20605469","73.9375","36.3125","168.40625"
"1537795167279","321","-1.8740234","0.2265625","-0.2529297","125.6875","64.5625","199.78125"
"1537795167279","322","-1.78125","0.041992188","-0.3203125","93.6875","137.03125","212.71875"
"1537795167279","323","-1.2578125","0.08886719","-0.21484375","78.625","148.875","227.3125"
"1537795167474","324","-1.0644531","0.015625","-0.23730469","94.3125","140.1875","214.96875"
"1537795167476","325","-0.87890625","-0.028320312","-0.21289062","93.625","137.75","177.5"
"1537795167476","326","-0.7607422","-0.040039062","-0.20214844","66.59375","130.625","129.21875"
"1537795167476","327","-0.6064453","-0.049804688","-0.11328125","29.5625","120.53125","82.96875"
"1537795167476","328","-0.4765625","-0.080078125","-0.09765625","6.0","93.875","42.75"
"1537795167674","329","-0.48242188","-0.072265625","-0.15332031","-16.84375","55.59375","-6.40625"
"1537795167674","330","-0.7451172","0.16992188","-0.2705078","-27.875","-0.4375","-70.3125"
"1537795167674","331","-0.8730469","0.1171875","-0.2763672","-54.5625","-37.84375","-141.15625"
"1537795167675","332","-1.2783203","0.50683594","-0.20410156","-95.375","-87.21875","-211.28125"
"1537795167675","333","-1.3017578","0.55859375","-0.23828125","-103.6875","-84.15625","-259.5625"
"1537795167871","334","-1.4472656","0.359375","-0.12402344","-119.3125","-97.65625","-258.53125"
"1537795168072","335","-1.5292969","0.359375","-0.09277344","-125.84375","-102.0625","-244.96875"
"1537795168073","336","-1.4931641","0.39941406","-0.23339844","-172.09375","-95.21875","-222.59375"
"1537795168073","337","-1.1669922","0.5","-0.17871094","-208.3125","-53.09375","-190.90625"
"1537795168073","338","-0.9873047","0.5703125","-0.11230469","-184.9375","-26.5625","-156.96875"
"1537795168073","339","-0.90527344","0.5175781","-0.12011719","-144.09375","-15.375","-121.9375"
"1537795168075","340","-0.9511719","0.5029297","-0.19628906","-131.59375","-9.59375","-84.9375"
"1537795168076","341","-0.8964844","0.5566406","-0.28808594","-118.875","-8.25","-56.6875"
"1537795168076","342","-0.92285156","0.58203125","-0.3544922","-78.96875","-26.5625","-39.1875"
"1537795168076","343","-1.2441406","0.58984375","-0.3359375","-41.5","-41.9375","-23.4375"
"1537795168269","344","-1.3916016","0.5732422","-0.3466797","-18.1875","-46.21875","-2.625"
"1537795168271","345","-1.6035156","0.52441406","-0.4482422","-0.96875","-47.84375","29.5625"
"1537795168271","346","-1.3398438","0.421875","-0.5449219","7.28125","2.6875","87.21875"
"1537795168271","347","-1.5371094","0.40527344","-0.28125","54.09375","24.84375","148.03125"
"1537795168272","348","-1.5654297","0.33007812","-0.12792969","112.5625","63.96875","185.625"
"1537795168468","349","-1.6044922","0.20996094","-0.10449219","126.28125","107.65625","205.625"
"1537795168469","350","-1.3544922","0.08203125","-0.08886719","123.84375","127.9375","212.40625"
"1537795168469","351","-1.2324219","0.028320312","-0.12890625","96.6875","135.5625","211.125"
"1537795168469","352","-0.92089844","0.043945312","-0.055664062","58.40625","137.625","200.5625"
"1537795168470","353","-0.8408203","0.045898438","-0.0029296875","39.6875","112.78125","174.625"
"1537795168669","354","-0.7314453","0.022460938","0.01953125","37.0","90.5625","123.125"
"1537795168669","355","-0.7363281","0.032226562","-0.001953125","13.75","47.0","56.03125"
"1537795168669","356","-0.85058594","0.11621094","-0.056640625","-12.0","2.125","-21.90625"
"1537795168669","357","-0.9892578","0.1796875","-0.04296875","-28.4375","-36.75","-101.0"
"1537795168669","358","-1.1474609","0.34375","-0.06347656","-28.90625","-70.0625","-173.28125"
"1537795168866","359","-1.0410156","0.28808594","-0.125","-46.6875","-86.3125","-204.15625"
"1537795168866","360","-1.1992188","0.23730469","-0.11328125","-46.0625","-113.78125","-209.59375"
"1537795168867","361","-1.3886719","0.17675781","-0.18164062","-59.0","-119.375","-197.625"
"1537795168867","362","-1.2919922","0.24023438","-0.265625","-105.59375","-110.78125","-180.34375"
"1537795168867","363","-1.1914062","0.34277344","-0.2705078","-120.78125","-90.5","-166.84375"
"1537795169064","364","-1.1230469","0.42285156","-0.23925781","-114.125","-67.1875","-154.15625"
"1537795169065","365","-1.0244141","0.4716797","-0.234375","-100.28125","-41.9375","-130.1875"
"1537795169065","366","-0.9560547","0.515625","-0.28027344","-88.625","-32.15625","-92.875"
"1537795169067","367","-1.0107422","0.4736328","-0.3310547","-57.25","-30.15625","-54.625"
"1537795169067","368","-0.95214844","0.4892578","-0.32714844","-49.71875","-19.34375","-20.75"
"1537795169266","369","-1.0996094","0.5175781","-0.35839844","-41.25","-29.78125","7.09375"
"1537795169266","370","-1.1279297","0.62890625","-0.4501953","-2.96875","-7.375","24.90625"
"1537795169266","371","-1.2460938","0.58984375","-0.37109375","53.28125","2.375","50.1875"
"1537795169266","372","-1.2080078","0.42578125","-0.26660156","91.4375","32.53125","79.53125"
"1537795169267","373","-1.2285156","0.328125","-0.19140625","100.90625","59.6875","104.125"
"1537795169462","374","-1.1464844","0.23242188","-0.16796875","87.84375","84.71875","124.46875"
"1537795169462","375","-1.0009766","0.21679688","-0.15234375","71.375","95.03125","142.90625"
"1537795169463","376","-0.96972656","0.23046875","-0.123046875","73.75","95.53125","150.28125"
"1537795169463","377","-0.95996094","0.19824219","-0.09667969","86.1875","89.65625","142.84375"
"1537795169464","378","-1.0634766","0.13476562","-0.07324219","81.375","82.28125","124.53125"
"1537795169661","379","-1.1005859","0.107421875","-0.0546875","51.78125","75.3125","97.71875"
"1537795169662","380","-1.1796875","0.107421875","-0.05078125","18.375","57.125","65.3125"
"1537795169664","381","-1.2724609","0.12792969","-0.005859375","-13.59375","43.03125","25.65625"
"1537795169664","382","-1.1357422","0.13476562","-0.02734375","-33.0","16.78125","-20.8125"
"1537795169664","383","-0.98828125","0.14160156","-0.0859375","-48.5","-8.59375","-63.53125"
"1537795170058","384","-0.8066406","0.16113281","-0.16894531","-56.03125","-40.28125","-88.625"
"1537795170060","385","-0.953125","0.11035156","-0.2109375","-44.3125","-66.90625","-109.59375"
"1537795170061","386","-0.9345703","0.083984375","-0.16796875","-57.46875","-72.875","-130.46875"
"1537795170061","387","-0.9609375","0.109375","-0.17382812","-88.1875","-89.0","-151.53125"
"1537795170061","388","-1.0878906","0.20019531","-0.27441406","-123.09375","-95.71875","-168.09375"
"1537795170063","389","-0.9863281","0.3359375","-0.29492188","-140.84375","-78.75","-170.40625"
"1537795170063","390","-0.8652344","0.41992188","-0.2890625","-117.40625","-64.46875","-155.75"
"1537795170063","391","-0.85839844","0.43066406","-0.26757812","-89.03125","-54.5625","-125.59375"
"1537795170063","392","-0.95996094","0.42871094","-0.28222656","-61.28125","-43.34375","-93.125"
"1537795170257","393","-0.9550781","0.36621094","-0.2861328","-51.5625","-26.4375","-28.90625"
"1537795170257","394","-1.0214844","0.3544922","-0.21484375","-83.375","-19.40625","-11.09375"
"1537795170258","395","-1.0478516","0.47753906","-0.25585938","-100.625","-32.46875","8.3125"
"1537795170259","396","-1.2128906","0.5","-0.3173828","-61.15625","-41.75","33.09375"
"1537795170259","397","-1.4492188","0.578125","-0.26953125","-5.71875","-49.6875","72.9375"
"1537795170455","398","-1.6748047","0.36914062","-0.3173828","60.75","-3.78125","125.4375"
"1537795170455","399","-1.6621094","0.24804688","-0.22363281","87.53125","41.4375","184.53125"
"1537795170456","400","-1.7353516","0.2529297","-0.08300781","105.78125","67.9375","211.4375"
"1537795170457","401","-1.8173828","0.14648438","-0.14257812","106.46875","100.78125","203.6875"
"1537795170457","402","-1.4628906","0.08300781","-0.14648438","82.90625","126.71875","180.96875"
"1537795170655","403","-1.1601562","0.09667969","-0.087890625","55.0","133.125","161.375"
"1537795170655","404","-0.8730469","0.11035156","-0.056640625","52.3125","123.0","139.0625"
"1537795170655","405","-0.7314453","0.12890625","-0.08300781","67.34375","100.9375","110.71875"
"1537795170656","406","-0.7089844","0.078125","-0.109375","76.78125","81.59375","74.46875"
"1537795170657","407","-0.53027344","0.034179688","-0.08691406","55.125","71.65625","41.9375"
"1537795170853","408","-0.4609375","0.016601562","-0.080078125","23.5625","50.0","14.53125"
"1537795170853","409","-0.49121094","0.09667969","-0.05859375","-7.6875","19.15625","-18.3125"
"1537795170854","410","-0.8232422","0.20703125","-0.10058594","-29.21875","-20.8125","-64.125"
"1537795171054","411","-1.2333984","0.27246094","-0.01953125","-76.46875","-50.96875","-124.5"
"1537795171054","412","-1.6044922","0.56640625","0.26464844","-143.84375","-80.4375","-185.65625"
"1537795171054","413","-1.8261719","0.5078125","-0.041992188","-164.34375","-60.125","-225.4375"
"1537795171055","414","-1.7880859","0.44921875","-0.10058594","-161.3125","-63.46875","-239.96875"
"1537795171055","415","-1.5195312","0.40234375","0.048828125","-195.25","-57.25","-239.6875"
"1537795171055","416","-1.3378906","0.51171875","-0.0546875","-217.53125","-44.125","-224.125"
"1537795171055","417","-1.0478516","0.5371094","-0.1328125","-194.25","-21.65625","-197.0625"
"1537795171251","418","-0.8417969","0.55078125","-0.13964844","-165.875","-0.96875","-156.65625"
"1537795171252","419","-0.7060547","0.5234375","-0.12792969","-136.59375","20.875","-111.625"
"1537795171252","420","-0.71191406","0.41601562","-0.109375","-134.5","36.5625","-64.625"
"1537795171253","421","-0.7705078","0.4013672","-0.12792969","-143.0625","47.90625","-27.03125"
"1537795171253","422","-0.75097656","0.46289062","-0.09863281","-144.65625","39.84375","-3.84375"
"1537795171450","423","-0.8544922","0.6044922","-0.15039062","-129.09375","16.78125","9.40625"
"1537795171451","424","-0.8125","0.640625","-0.1953125","-83.53125","-19.28125","24.90625"
"1537795171451","425","-1.265625","0.64941406","-0.26171875","-9.875","-69.75","38.03125"
"1537795171451","426","-1.1933594","0.6875","-0.41503906","61.03125","-69.6875","55.125"
"1537795171451","427","-1.4384766","0.64941406","-0.22851562","115.4375","-70.96875","99.875"
"1537795171649","428","-1.5009766","0.4873047","-0.11035156","159.5625","-34.1875","139.90625"
"1537795171649","429","-1.5009766","0.2998047","-0.107421875","179.5","-5.3125","164.4375"
"1537795171650","430","-1.3378906","0.21386719","-0.15625","154.3125","26.0625","179.40625"
"1537795171650","431","-1.1162109","0.22558594","-0.18554688","140.625","38.34375","193.4375"
"1537795171650","432","-1.0048828","0.18554688","-0.10644531","145.15625","44.125","201.3125"
"1537795172047","433","-0.953125","0.087890625","-0.05078125","148.625","43.75","187.3125"
"1537795172048","434","-0.953125","0.022460938","-0.064453125","120.5","37.21875","151.875"
"1537795172247","435","-1.0146484","0.0","-0.08496094","68.5","27.28125","93.28125"
"1537795172442","436","-1.0634766","0.05859375","-0.061523438","2.09375","12.15625","21.875"
"1537795172443","437","-1.1689453","0.16210938","-0.024414062","-37.09375","-2.9375","-53.46875"
"1537795172443","438","-1.1279297","0.18847656","0.020507812","-55.90625","-14.46875","-123.84375"
"1537795172444","439","-1.0517578","0.29003906","-0.068359375","-69.15625","-38.9375","-158.5625"
"1537795172444","440","-1.2832031","0.23144531","-0.17382812","-56.5625","-66.28125","-169.78125"
"1537795172643","441","-1.2255859","0.20214844","-0.22070312","-36.0625","-64.75","-170.65625"
"1537795172643","442","-0.8847656","0.1796875","-0.12988281","-100.9375","-39.5625","-148.5625"
"1537795172644","443","-0.8144531","0.2607422","-0.11230469","-131.8125","-21.90625","-137.6875"
"1537795172644","444","-1.0585938","0.67871094","-0.20996094","-111.4375","-32.40625","-103.875"
"1537795172644","445","-1.3457031","0.71777344","-0.25976562","61.53125","-20.3125","98.15625"
"1537795172645","446","-1.3349609","0.58203125","-0.20019531","125.375","4.875","113.28125"
"1537795172646","447","-1.2744141","0.38085938","-0.1640625","166.5625","31.875","123.71875"
"1537795172647","448","-1.1816406","0.24414062","-0.13769531","159.875","57.5625","138.4375"
"1537795172647","449","-1.1591797","0.18554688","-0.099609375","135.15625","79.90625","151.9375"
"1537795172841","450","-1.1064453","0.13671875","-0.053710938","101.8125","102.40625","156.3125"
"1537795172841","451","-0.97558594","0.13378906","-0.036132812","75.6875","107.53125","148.625"
"1537795172841","452","-0.9873047","0.123046875","-0.020507812","54.625","98.5","126.53125"
"1537795172842","453","-1.0546875","0.12792969","0.018554688","25.03125","79.65625","90.34375"
"1537795172842","454","-1.1503906","0.18164062","0.009765625","-7.875","55.46875","43.40625"
"1537795173039","455","-1.0830078","0.18945312","0.0068359375","-21.09375","25.8125","-9.5625"
"1537795173040","456","-1.1464844","0.22167969","-0.064453125","-21.09375","-5.0","-72.125"
"1537795173041","457","-0.89453125","0.20214844","-0.057617188","-33.25","-33.875","-114.375"
"1537795173042","458","-1.0029297","0.17871094","-0.07714844","-39.40625","-57.9375","-140.125"
"1537795173042","459","-1.0488281","0.18359375","-0.13769531","-48.6875","-71.34375","-159.53125"
"1537795173239","460","-0.9580078","0.21484375","-0.19042969","-67.75","-73.5625","-163.75"
"1537795173239","461","-0.86816406","0.18554688","-0.203125","-79.9375","-73.5625","-158.125"
"1537795173240","462","-0.8808594","0.22753906","-0.20800781","-98.8125","-67.9375","-151.53125"
"1537795173240","463","-0.9296875","0.29589844","-0.15429688","-112.59375","-56.21875","-139.625"
"1537795173241","464","-0.96875","0.29882812","-0.26464844","-115.65625","-44.4375","-119.4375"
"1537795173437","465","-1.0683594","0.4091797","-0.35351562","-104.40625","-43.6875","-99.0625"
"1537795173437","466","-1.2119141","0.47753906","-0.30664062","-89.15625","-35.78125","-81.03125"
"1537795173437","467","-1.2558594","0.6220703","-0.24609375","-87.34375","-22.78125","-51.125"
"1537795173438","468","-1.2441406","0.62597656","-0.3203125","-59.4375","-25.09375","-10.90625"
"1537795173438","469","-1.1191406","0.66503906","-0.39746094","-2.25","-14.40625","25.09375"
"1537795173636","470","-1.2246094","0.6855469","-0.31640625","60.1875","-5.8125","63.84375"
"1537795173636","471","-1.2480469","0.53125","-0.1796875","108.21875","19.21875","98.46875"
"1537795173637","472","-1.2871094","0.35253906","-0.12988281","122.6875","48.53125","122.75"
"1537795173637","473","-1.2587891","0.20898438","-0.12011719","93.75","77.40625","144.65625"
"1537795173637","474","-1.1044922","0.19921875","-0.11035156","49.75","94.84375","168.15625"
"1537795173835","475","-1.0244141","0.23535156","-0.10253906","44.375","95.40625","180.125"
"1537795173837","476","-0.96777344","0.24316406","-0.052734375","65.25","86.1875","180.1875"
"1537795173837","477","-1.0009766","0.17480469","-0.049804688","90.65625","71.78125","163.53125"
"1537795173838","478","-1.0166016","0.049804688","-0.06640625","82.90625","57.3125","131.0625"
"1537795173838","479","-1.1259766","0.029296875","-0.059570312","40.125","31.1875","84.375"
"1537795174034","480","-1.1904297","0.078125","-0.052734375","-7.0625","9.34375","22.78125"
"1537795174035","481","-1.0742188","0.12695312","-0.07324219","-29.78125","-17.28125","-43.15625"
"1537795174035","482","-1.0605469","0.12988281","-0.11425781","-30.1875","-37.34375","-108.5625"
"1537795174036","483","-1.0820312","0.13183594","-0.15039062","-46.9375","-50.46875","-148.96875"
"1537795174036","484","-1.1494141","0.115234375","-0.11621094","-72.5","-49.4375","-171.875"
"1537795174232","485","-1.0869141","0.091796875","-0.19921875","-100.09375","-46.4375","-184.625"
"1537795174232","486","-0.9589844","0.13671875","-0.2109375","-156.4375","-39.0","-179.8125"
"1537795174233","487","-1.0566406","0.2783203","-0.19433594","-222.71875","-27.71875","-162.46875"
"1537795174233","488","-0.96191406","0.5097656","-0.10449219","-214.28125","1.90625","-146.15625"
"1537795174234","489","-0.81347656","0.54003906","-0.09277344","-149.15625","7.1875","-128.78125"
"1537795174430","490","-0.7910156","0.51660156","-0.19238281","-102.78125","0.84375","-100.5"
"1537795174431","491","-0.88183594","0.4794922","-0.24902344","-67.4375","-5.1875","-77.3125"
"1537795174431","492","-0.9550781","0.40820312","-0.18945312","-80.25","-4.6875","-57.375"
"1537795174431","493","-0.9628906","0.5732422","-0.14453125","-106.75","-12.375","-32.09375"
"1537795174630","494","-1.1103516","0.625","-0.1484375","-92.34375","-32.96875","-2.6875"
"1537795174630","495","-1.3603516","0.67089844","-0.23242188","-97.53125","-53.65625","26.4375"
"1537795174631","496","-1.2470703","0.96777344","-0.4091797","-36.65625","-57.25","53.96875"
"1537795174632","497","-1.265625","0.8769531","-0.17480469","72.65625","-59.6875","107.375"
"1537795174632","498","-1.4443359","0.6796875","-0.07519531","200.21875","-47.375","148.75"
"1537795174632","499","-1.484375","0.38085938","-0.091796875","244.28125","-7.5625","177.5"
"1537795174829","500","-1.3300781","0.1484375","-0.11328125","203.75","33.1875","198.5625"
"1537795174829","501","-1.0976562","0.15722656","-0.14648438","141.84375","58.53125","206.8125"
"1537795174830","502","-0.94140625","0.13378906","-0.13476562","114.09375","65.0","200.875"
"1537795174831","503","-0.7919922","0.15136719","-0.07421875","99.6875","68.0625","179.5"
"1537795174831","504","-0.6767578","0.125","-0.0087890625","89.125","54.1875","142.78125"
"1537795175228","505","-0.6738281","0.08984375","-0.072265625","72.75","30.09375","89.5625"
"1537795175228","506","-0.6796875","0.109375","-0.10449219","34.8125","8.90625","39.125"
"1537795175228","507","-0.9169922","0.21679688","-0.07910156","-4.75","-23.875","-16.09375"
"1537795175228","508","-1.0976562","0.25878906","-0.061523438","-28.96875","-48.59375","-80.25"
"1537795175230","509","-1.3173828","0.36035156","-0.01953125","-82.21875","-64.5","-138.90625"
"1537795175231","510","-1.3476562","0.48535156","0.14257812","-113.625","-78.84375","-181.5"
"1537795175231","511","-1.5039062","0.5751953","-0.032226562","-99.53125","-73.3125","-199.8125"
"1537795175231","512","-1.3037109","0.4638672","-0.024414062","-80.96875","-60.5625","-190.46875"
"1537795175231","513","-1.0751953","0.40820312","0.08886719","-94.15625","-52.625","-161.1875"
"1537795175623","514","-1.0068359","0.4404297","0.140625","-175.90625","-29.40625","-107.90625"
"1537795175623","515","-0.91015625","0.5751953","0.11328125","-194.625","-19.71875","-86.28125"
"1537795175625","516","-0.8261719","0.61328125","-0.0048828125","-169.53125","-17.75","-62.0"
"1537795175626","517","-0.71777344","0.53125","-0.107421875","-133.09375","-17.6875","-32.09375"
"1537795175627","518","-0.66015625","0.40234375","-0.14550781","-114.25","-10.625","-2.5"
"1537795175627","519","-0.6220703","0.3720703","-0.0859375","-112.46875","-12.8125","18.5625"
"1537795175627","520","-0.8173828","0.43164062","-0.123046875","-103.03125","-22.65625","26.4375"
"1537795175628","521","-0.98828125","0.44335938","-0.24609375","-85.375","-26.25","29.625"
"1537795175628","522","-1.1513672","0.42773438","-0.2763672","-67.875","-35.9375","38.09375"
"1537795175822","523","-1.7880859","0.46777344","-0.33496094","-37.53125","-28.125","49.09375"
"1537795175822","524","-1.3662109","0.53808594","-0.43652344","3.96875","22.46875","53.53125"
"1537795175822","525","-1.3544922","0.35839844","-0.20703125","55.0","35.40625","92.34375"
"1537795175823","526","-1.3525391","0.3173828","-0.07519531","78.9375","68.53125","110.0625"
"1537795175824","527","-1.3457031","0.25878906","-0.10839844","86.9375","91.1875","111.8125"
"1537795176021","528","-1.1357422","0.21679688","-0.049804688","63.0","120.65625","112.125"
"1537795176021","529","-0.93652344","0.24121094","0.013671875","47.1875","124.03125","110.1875"
"1537795176023","530","-0.86035156","0.23242188","0.0107421875","50.4375","116.9375","100.0625"
"1537795176023","531","-0.7578125","0.22265625","0.04296875","48.09375","110.65625","83.09375"
"1537795176023","532","-0.73828125","0.21875","0.051757812","44.375","89.0625","60.25"
"1537795176418","533","-0.7832031","0.203125","0.06933594","34.8125","67.3125","31.5625"
"1537795176418","534","-0.9082031","0.20507812","0.076171875","13.0625","34.96875","-1.9375"
"1537795176419","535","-1.0361328","0.20800781","-0.0048828125","-4.25","3.53125","-43.8125"
"1537795176419","536","-1.1943359","0.2421875","-0.0068359375","-30.8125","-24.84375","-87.875"
"1537795176420","537","-1.359375","0.29492188","0.0625","-60.46875","-42.125","-129.1875"
"1537795176420","538","-1.2529297","0.359375","-0.05078125","-81.03125","-48.09375","-156.78125"
"1537795176421","539","-1.1279297","0.296875","-0.15429688","-83.84375","-64.5625","-153.75"
"1537795176423","540","-1.1474609","0.29492188","-0.16699219","-76.09375","-68.125","-142.5"
"1537795176618","541","-0.9345703","0.28027344","-0.24707031","-69.6875","-64.21875","-131.9375"
"1537795176619","542","-0.7705078","0.23925781","-0.25878906","-104.96875","-34.4375","-106.9375"
"1537795176619","543","-0.7236328","0.25878906","-0.16308594","-122.0625","-18.375","-95.9375"
"1537795176619","544","-0.75878906","0.3251953","-0.23144531","-130.0625","-12.875","-81.96875"
"1537795176620","545","-0.9326172","0.43359375","-0.35058594","-118.53125","-10.3125","-69.1875"
"1537795176620","546","-1.0283203","0.49609375","-0.35839844","-92.46875","-10.5625","-55.40625"
"1537795176816","547","-1.0947266","0.49414062","-0.3154297","-67.75","-12.75","-33.3125"
"1537795176816","548","-1.0957031","0.4892578","-0.29589844","-48.875","-16.84375","-5.375"
"1537795176816","549","-1.1865234","0.45703125","-0.30566406","-27.8125","-31.625","26.4375"
"1537795176817","550","-1.4111328","0.47558594","-0.30859375","-25.6875","-25.75","54.875"
"1537795176818","551","-1.2470703","0.58984375","-0.3076172","12.03125","-16.78125","77.53125"
"1537795177014","552","-1.1572266","0.5126953","-0.25","78.3125","-6.28125","104.375"
"1537795177015","553","-1.1015625","0.3671875","-0.2109375","128.96875","17.09375","128.84375"
"1537795177015","554","-1.0849609","0.24414062","-0.17382812","135.625","44.96875","148.21875"
"1537795177016","555","-1.0351562","0.1796875","-0.11230469","126.15625","69.6875","156.5625"
"1537795177016","556","-1.0058594","0.13867188","-0.091796875","107.8125","82.6875","152.84375"
"1537795177214","557","-0.93847656","0.09765625","-0.123046875","85.65625","87.15625","137.40625"
"1537795177214","558","-0.8300781","0.08886719","-0.13867188","56.15625","79.65625","113.96875"
"1537795177214","559","-0.72265625","0.13378906","-0.107421875","31.125","56.8125","80.875"
"1537795177215","560","-0.7939453","0.203125","-0.0859375","25.875","15.875","43.90625"
"1537795177216","561","-0.83203125","0.25976562","-0.1171875","33.28125","-16.59375","12.9375"
"1537795177412","562","-1.0390625","0.22265625","-0.034179688","32.59375","-59.21875","-17.375"
"1537795177413","563","-1.3486328","0.18652344","0.080078125","-13.53125","-96.625","-62.1875"
"1537795177413","564","-1.4658203","0.3857422","0.109375","-78.78125","-113.53125","-116.6875"
"1537795177414","565","-1.6962891","0.46484375","0.018554688","-94.09375","-116.28125","-161.96875"
"1537795177612","566","-1.4082031","0.4921875","0.018554688","-55.28125","-83.75","-180.84375"
"1537795177612","567","-1.2890625","0.3232422","0.18945312","-83.375","-49.1875","-154.09375"
"1537795177612","568","-0.96972656","0.30078125","0.13964844","-119.125","-26.0625","-117.78125"
"1537795177612","569","-0.8466797","0.19238281","0.052734375","-168.625","-30.15625","-85.3125"
"1537795177613","570","-0.84277344","0.3388672","-0.018554688","-230.40625","-25.5","-63.96875"
"1537795177809","571","-0.8388672","0.43066406","-0.15820312","-229.34375","-12.03125","-59.1875"
"1537795177810","572","-0.66015625","0.4033203","-0.059570312","-205.125","6.40625","-50.65625"
"1537795177811","573","-0.66308594","0.4091797","-0.10546875","-174.71875","1.9375","-33.125"
"1537795177812","574","-0.5703125","0.38183594","-0.17382812","-133.53125","0.65625","-10.125"
"1537795177812","575","-0.69140625","0.35058594","-0.28222656","-93.5625","-14.78125","8.6875"
"1537795178008","576","-0.80859375","0.32910156","-0.3515625","-54.6875","-14.84375","15.75"
"1537795178009","577","-0.94921875","0.3232422","-0.3671875","-28.6875","-23.0625","19.125"
"1537795178010","578","-1.1396484","0.265625","-0.40039062","-1.46875","-29.0625","21.75"
"1537795178010","579","-1.4472656","0.18945312","-0.36328125","-0.59375","-26.84375","32.46875"
"1537795178010","580","-1.65625","0.20214844","-0.3544922","-14.28125","-14.65625","45.78125"
"1537795178207","581","-1.9921875","0.36035156","-0.46875","3.6875","-2.6875","56.59375"
"1537795178208","582","-1.3398438","0.29589844","-0.32910156","47.0625","66.09375","83.1875"
"1537795178209","583","-1.3486328","0.18554688","-0.095703125","80.75","80.625","120.5"
"1537795178209","584","-1.2275391","0.125","-0.083984375","89.78125","113.9375","127.21875"
"1537795178209","585","-0.96972656","0.109375","-0.14257812","79.96875","126.21875","119.75"
"1537795178406","586","-0.8339844","0.09863281","-0.13867188","53.65625","128.1875","114.28125"
"1537795178406","587","-0.7685547","0.13574219","-0.07519531","34.96875","120.84375","107.4375"
"1537795178406","588","-0.7470703","0.13476562","0.001953125","30.21875","111.9375","89.125"
"1537795178407","589","-0.78515625","0.119140625","0.08105469","12.71875","88.0","60.6875"
"1537795178407","590","-0.8535156","0.13671875","0.061523438","-13.34375","55.78125","23.625"
"1537795178606","591","-1.0029297","0.21777344","0.0068359375","-34.03125","16.84375","-17.9375"
"1537795178607","592","-1.1513672","0.2421875","-0.068359375","-30.4375","-17.40625","-62.625"
"1537795178607","593","-1.3193359","0.18359375","0.022460938","-29.46875","-52.25","-106.9375"
"1537795178607","594","-1.3789062","0.22558594","-0.043945312","-50.84375","-64.40625","-158.5625"
"1537795178607","595","-1.2353516","0.18945312","-0.14941406","-86.40625","-69.03125","-176.75"
"1537795178803","596","-1.3349609","0.20703125","-0.09765625","-111.4375","-72.5","-168.4375"
"1537795178803","597","-1.2138672","0.21777344","-0.203125","-102.53125","-61.40625","-155.8125"
"1537795179001","598","-1.0244141","0.17382812","-0.29003906","-125.34375","-61.03125","-132.125"
"1537795179002","599","-0.91503906","0.2265625","-0.27539062","-147.3125","-49.0","-117.65625"
"1537795179003","600","-0.79785156","0.3515625","-0.22558594","-150.1875","-33.75","-111.6875"
"1537795179004","601","-0.7314453","0.39746094","-0.20996094","-124.9375","-25.03125","-105.46875"
"1537795179004","602","-0.77441406","0.4248047","-0.26464844","-105.40625","-24.28125","-90.0625"
"1537795179005","603","-0.9111328","0.45996094","-0.28125","-88.90625","-24.65625","-67.0625"
"1537795179005","604","-0.984375","0.484375","-0.29101562","-80.0","-20.03125","-39.46875"
"1537795179006","605","-0.8798828","0.51171875","-0.265625","-74.5","-21.96875","-0.34375"
"1537795179201","606","-1.1259766","0.51660156","-0.2919922","-39.65625","-40.28125","34.9375"
"1537795179201","607","-1.3154297","0.60546875","-0.4501953","13.125","-35.8125","60.8125"
"1537795179201","608","-1.3974609","0.5673828","-0.31933594","70.4375","-16.25","95.84375"
"1537795179202","609","-1.3076172","0.45214844","-0.21289062","120.90625","5.0625","132.8125"
"1537795179202","610","-1.3779297","0.3720703","-0.14941406","176.78125","27.03125","152.34375"
"1537795179400","611","-1.3242188","0.2421875","-0.12792969","189.40625","53.90625","163.59375"
"1537795179400","612","-1.234375","0.17578125","-0.10644531","174.375","75.9375","168.40625"
"1537795179401","613","-1.0966797","0.11621094","-0.08105469","150.78125","90.15625","163.46875"
"1537795179401","614","-1.0107422","0.07910156","-0.0546875","111.03125","97.96875","152.71875"
"1537795179401","615","-0.9345703","0.07519531","-0.051757812","74.03125","94.84375","132.09375"
"1537795179598","616","-0.88671875","0.09082031","-0.03515625","41.21875","79.09375","102.5"
"1537795179598","617","-0.9628906","0.09082031","-0.0029296875","12.03125","48.21875","62.75"
"1537795179598","618","-1.1054688","0.13183594","0.016601562","-19.875","11.40625","12.875"
"1537795179599","619","-1.140625","0.19238281","-0.026367188","-44.65625","-21.5","-42.84375"
"1537795179600","620","-1.1103516","0.19238281","-0.08203125","-55.34375","-50.53125","-97.40625"
"1537795179797","621","-0.9511719","0.23632812","-0.052734375","-59.3125","-79.34375","-134.15625"
"1537795179798","622","-1.2167969","0.22070312","-0.045898438","-63.03125","-105.34375","-162.78125"
"1537795179799","623","-1.3398438","0.29003906","-0.107421875","-63.40625","-103.8125","-185.71875"
"1537795179799","624","-1.2089844","0.28808594","-0.18554688","-73.0625","-91.96875","-184.25"
"1537795179800","625","-1.0595703","0.22460938","-0.24121094","-96.1875","-73.125","-155.8125"
"1537795179996","626","-0.9082031","0.2890625","-0.27441406","-116.125","-48.53125","-125.59375"
"1537795179996","627","-0.8027344","0.30859375","-0.21972656","-120.21875","-26.5625","-94.84375"
"1537795179996","628","-0.81933594","0.37402344","-0.19140625","-110.9375","-16.28125","-72.75"
"1537795179996","629","-0.94921875","0.45996094","-0.20214844","-94.09375","-13.5","-57.46875"
"1537795179997","630","-1.0263672","0.5263672","-0.234375","-70.125","-16.0625","-45.09375"
"1537795180195","631","-1.0908203","0.5644531","-0.26367188","-50.03125","-25.40625","-26.125"
"1537795180393","632","-1.1347656","0.61621094","-0.32226562","-10.0","-41.375","0.5"
"1537795180593","633","-1.5234375","0.6533203","-0.43066406","46.875","-38.4375","30.15625"
"1537795180593","634","-1.3837891","0.5996094","-0.32128906","101.8125","5.25","70.03125"
"1537795180593","635","-1.3984375","0.41796875","-0.08691406","122.15625","35.59375","112.25"
"1537795180594","636","-1.3037109","0.28320312","-0.07714844","149.375","73.84375","130.625"
"1537795180595","637","-1.2441406","0.20410156","-0.0625","126.40625","107.46875","142.84375"
"1537795180596","638","-1.0390625","0.18457031","-0.07519531","95.46875","122.3125","149.84375"
"1537795180596","639","-1.0068359","0.19140625","-0.08691406","76.96875","118.96875","149.4375"
"1537795180596","640","-0.890625","0.20214844","-0.0107421875","67.5625","121.40625","139.59375"
"1537795180597","641","-0.8457031","0.20898438","0.04296875","61.0","100.65625","117.3125"
"1537795180791","642","-1.0927734","0.171875","0.033203125","-21.21875","-7.5","-32.65625"
"1537795180791","643","-1.2011719","0.20214844","-0.060546875","-36.0625","-54.875","-84.28125"
"1537795180791","644","-1.0371094","0.21582031","-0.1171875","-42.84375","-73.1875","-128.15625"
"1537795180792","645","-1.0146484","0.22558594","-0.1171875","-46.625","-108.65625","-146.28125"
"1537795180792","646","-1.25","0.21386719","-0.18554688","-25.6875","-142.21875","-157.53125"
"1537795180793","647","-1.2910156","0.22167969","-0.3642578","-20.5","-144.59375","-156.96875"
"1537795180989","648","-1.1689453","0.20898438","-0.3857422","-16.78125","-122.375","-142.375"
"1537795180990","649","-0.9316406","0.17675781","-0.3564453","-34.78125","-86.125","-118.53125"
"1537795180990","650","-0.7792969","0.17089844","-0.29785156","-65.84375","-54.5625","-88.5"
"1537795180990","651","-0.7705078","0.15722656","-0.23925781","-95.8125","-23.125","-59.25"
"1537795180991","652","-0.8691406","0.22265625","-0.25878906","-125.53125","2.3125","-32.28125"
"1537795181188","653","-0.8964844","0.27929688","-0.22460938","-148.0","20.25","-9.09375"
"1537795181188","654","-0.9033203","0.38378906","-0.2265625","-149.90625","21.71875","7.15625"
"1537795181189","655","-0.953125","0.484375","-0.24414062","-114.0","4.625","13.5625"
"1537795181189","656","-0.9160156","0.51464844","-0.26171875","-57.4375","-15.625","16.3125"
"1537795181190","657","-1.2939453","0.5078125","-0.34765625","17.46875","-56.6875","18.03125"
"1537795181386","658","-1.546875","0.49316406","-0.45703125","75.15625","-34.0","31.125"
"1537795181387","659","-1.3359375","0.44921875","-0.14355469","96.875","6.40625","81.125"
"1537795181388","660","-1.3505859","0.38867188","-0.036132812","138.75","36.25","120.4375"
"1537795181389","661","-1.3496094","0.23730469","-0.051757812","165.34375","68.0625","134.59375"
"1537795181389","662","-1.1914062","0.203125","-0.08496094","136.4375","85.15625","139.28125"
"1537795181585","663","-1.0556641","0.22070312","-0.12011719","108.71875","92.40625","134.78125"
"1537795181585","664","-0.9375","0.22265625","-0.057617188","85.21875","90.9375","131.53125"
"1537795181586","665","-0.83984375","0.26367188","-0.020507812","71.46875","83.9375","120.6875"
"1537795181587","666","-0.8144531","0.26953125","-0.07519531","80.34375","71.46875","99.4375"
"1537795181587","667","-0.78027344","0.20898438","-0.072265625","73.5625","63.90625","72.8125"
"1537795181784","668","-0.67871094","0.21289062","-0.08984375","41.15625","45.90625","49.6875"
"1537795181785","669","-0.63378906","0.21582031","-0.17578125","25.03125","23.5","29.125"
"1537795181785","670","-0.5605469","0.23144531","-0.16113281","15.28125","-0.96875","8.25"
"1537795181786","671","-0.58691406","0.27734375","-0.18847656","17.78125","-33.4375","-15.375"
"1537795181786","672","-0.7529297","0.25390625","-0.2578125","28.5","-61.15625","-39.0"
"1537795181984","673","-0.97265625","0.24414062","-0.19042969","16.125","-83.5","-57.4375"
"1537795181984","674","-1.3115234","0.24609375","-0.17675781","-5.78125","-98.375","-75.625"
"1537795181984","675","-1.5341797","0.20996094","-0.11328125","-38.375","-106.625","-92.625"
"1537795181984","676","-1.7402344","0.25976562","-0.12207031","-91.0","-105.28125","-115.84375"
"1537795181985","677","-1.4765625","0.34179688","-0.2607422","-111.875","-92.46875","-130.84375"
"1537795182579","678","-1.1748047","0.36132812","-0.2890625","-89.65625","-76.71875","-115.96875"
"1537795182580","679","-1.2421875","0.23828125","-0.21484375","-65.1875","-67.5625","-87.75"
"1537795182977","680","-1.0087891","0.15234375","-0.21484375","-87.625","-28.75","-63.03125"
"1537795182978","681","-0.9267578","0.20507812","-0.25195312","-122.65625","-14.34375","-44.59375"
"1537795183175","682","-0.76464844","0.26953125","-0.2607422","-123.9375","2.875","-38.3125"
"1537795183177","683","-0.69433594","0.26464844","-0.2607422","-109.0","8.125","-36.3125"
"1537795183573","684","-0.6591797","0.25878906","-0.2685547","-97.9375","12.15625","-32.03125"
"1537795183574","685","-0.6816406","0.2529297","-0.28320312","-84.21875","12.75","-25.0"
"1537795183575","686","-0.73828125","0.24414062","-0.28515625","-75.1875","12.03125","-16.09375"
"1537795183579","687","-0.8671875","0.18164062","-0.35546875","16.3125","-15.75","25.9375"
"1537795183579","688","-0.96972656","0.1875","-0.36132812","21.5","-22.9375","25.34375"
"1537795183579","689","-1.0683594","0.07324219","-0.005859375","7.09375","64.34375","82.46875"
"1537795183579","690","-1.1992188","0.11425781","-0.015625","-26.1875","48.03125","86.5"
"1537795183580","691","-1.0683594","0.3076172","-0.041015625","-57.375","61.9375","75.75"
"1537795183580","692","-0.7558594","0.20507812","-0.11425781","66.1875","12.625","13.4375"
"1537795183772","693","-0.8623047","0.4814453","-0.34375","-89.65625","8.4375","-25.0625"
"1537795184169","694","-0.9121094","0.48828125","-0.44140625","-96.84375","18.0625","-9.6875"
"1537795184170","695","-0.8652344","0.47460938","-0.40820312","-98.3125","25.625","0.5625"
"1537795184170","696","-0.89941406","0.49804688","-0.45410156","-70.1875","22.875","1.40625"
"1537795184171","697","-1.0214844","0.4189453","-0.4765625","-38.4375","20.375","-1.46875"
"1537795184172","698","-1.1318359","0.34472656","-0.31933594","-24.15625","23.4375","-2.3125"
"1537795184172","699","-1.4853516","0.3828125","0.08691406","-47.09375","-4.40625","-0.46875"
"1537795184173","700","-1.9921875","0.41210938","-0.036132812","-68.28125","6.46875","-26.71875"
"1537795184173","701","-1.2578125","0.5234375","-0.16113281","-58.53125","10.1875","-55.15625"
"1537795184173","702","-0.75","0.07714844","0.15332031","-32.15625","19.65625","-56.5625"
"1537795184367","703","-0.9140625","0.021484375","0.1875","-36.125","-35.59375","-47.78125"
"1537795184368","704","-0.5205078","0.34179688","-0.13964844","-60.53125","-14.59375","-58.8125"
"1537795184368","705","-0.6142578","0.3046875","-0.25390625","-39.53125","-31.4375","-59.0625"
"1537795184369","706","-0.7392578","0.3330078","-0.38867188","-44.71875","-34.78125","-55.28125"
"1537795184369","707","-0.95410156","0.49316406","-0.37109375","-39.59375","-38.5625","-46.1875"
"1537795184371","708","-1.2167969","0.58496094","-0.4609375","-20.6875","-30.03125","-29.40625"
"1537795184567","709","-1.2412109","0.57910156","-0.40820312","-13.0625","-14.90625","10.4375"
"1537795184568","710","-1.2578125","0.4873047","-0.38183594","10.75","-4.9375","51.9375"
"1537795184568","711","-1.8398438","0.55078125","-0.18457031","22.15625","-8.96875","78.875"
"1537795184569","712","-1.5253906","0.5527344","-0.12792969","26.3125","60.125","91.6875"
"1537795184569","713","-1.2236328","0.37890625","-0.06640625","61.15625","59.375","123.1875"
"1537795184766","714","-1.0263672","0.25878906","-0.08886719","71.0625","61.03125","135.09375"
"1537795184767","715","-0.8496094","0.34375","-0.08886719","63.96875","51.4375","131.59375"
"1537795184767","716","-0.7529297","0.34375","-0.0546875","77.46875","47.90625","115.25"
"1537795184768","717","-0.6816406","0.29882812","-0.04296875","96.8125","43.15625","96.15625"
"1537795184768","718","-0.6982422","0.24902344","-0.029296875","98.09375","41.6875","78.6875"
"1537795184964","719","-0.71191406","0.18359375","-0.021484375","80.875","45.71875","61.09375"
"1537795184965","720","-0.828125","0.17578125","0.0068359375","45.125","37.34375","44.09375"
"1537795184965","721","-0.9082031","0.19628906","0.0703125","11.53125","25.8125","23.21875"
"1537795185163","722","-1.1992188","0.21972656","0.115234375","-13.46875","-4.9375","-9.21875"
"1537795185163","723","-1.2177734","0.26367188","0.041015625","-37.40625","-24.90625","-55.21875"
"1537795185164","724","-1.2763672","0.32617188","-0.0390625","-48.875","-57.0625","-97.59375"
"1537795185164","725","-1.1191406","0.32421875","0.06640625","-58.03125","-63.28125","-123.40625"
"1537795185164","726","-1.0390625","0.3515625","-0.0078125","-58.53125","-75.375","-129.5625"
"1537795185165","727","-1.2128906","0.3623047","-0.040039062","-74.9375","-82.28125","-123.875"
"1537795185166","728","-1.1962891","0.4375","-0.059570312","-85.0","-70.8125","-111.8125"
"1537795185362","729","-1.0986328","0.375","-0.09082031","-83.3125","-66.59375","-90.375"
"1537795185362","730","-0.98535156","0.3564453","-0.1875","-92.21875","-59.5625","-76.40625"
"1537795185365","731","-0.8300781","0.40039062","-0.17578125","-103.25","-44.75","-62.1875"
"1537795185366","732","-0.77246094","0.42578125","-0.12597656","-91.34375","-38.28125","-50.84375"
"1537795185367","733","-0.7597656","0.36621094","-0.16113281","-79.53125","-17.875","-41.84375"
"1537795185561","734","-0.7207031","0.37890625","-0.06933594","-98.5625","-4.9375","-25.75"
"1537795185561","735","-0.9404297","0.50683594","-0.125","-90.0625","-2.0625","-16.59375"
"1537795185561","736","-1.0361328","0.48339844","-0.03515625","-104.90625","8.90625","-1.75"
"1537795185562","737","-0.9980469","0.53027344","0.041015625","-117.0","-8.3125","17.53125"
"1537795185563","738","-1.0332031","0.11816406","-0.041992188","-129.9375","-18.875","26.625"
"1537795186159","739","-0.6279297","0.25585938","0.087890625","-195.125","-46.15625","32.375"
"1537795186162","740","-0.9746094","0.19238281","-0.2939453","-146.59375","-56.15625","34.125"
"1537795186162","741","-1.2197266","0.29882812","-0.3564453","-90.75","-59.09375","63.625"
"1537795186162","742","-1.7158203","0.3388672","-0.5625","11.4375","-18.5","67.6875"
"1537795186162","743","-1.7880859","0.28808594","-0.4140625","4.78125","39.0","104.5"
"1537795186162","744","-1.5712891","0.37304688","-0.31640625","31.5625","85.375","132.40625"
"1537795186163","745","-1.734375","0.23632812","-0.24707031","33.34375","120.0625","156.25"
"1537795186168","746","-1.3554688","0.23339844","-0.14453125","24.96875","140.375","168.59375"
"1537795186168","747","-1.3710938","0.23242188","-0.078125","43.40625","143.4375","160.78125"
"1537795186754","748","-1.1855469","0.3779297","0.15429688","-50.96875","23.375","-144.09375"
"1537795186754","749","-1.1376953","0.36035156","0.19140625","-74.5","3.65625","-163.9375"
"1537795186756","750","-1.2412109","0.34570312","0.08496094","-76.09375","-15.625","-186.21875"
"1537795186756","751","-1.1279297","0.35839844","-0.04296875","-102.40625","-39.3125","-195.375"
"1537795186756","752","-1.1142578","0.4111328","-0.119140625","-107.84375","-54.25","-194.9375"
"1537795186756","753","-0.9785156","0.3408203","-0.18359375","-100.40625","-52.3125","-190.34375"
"1537795186757","754","-0.90625","0.34179688","-0.21484375","-105.8125","-29.46875","-172.34375"
"1537795186758","755","-0.8232422","0.31445312","-0.14355469","-132.4375","-4.09375","-144.09375"
"1537795186758","756","-0.7998047","0.390625","-0.11230469","-134.375","5.4375","-118.59375"
"1537795186952","757","-0.9560547","0.5654297","-0.28515625","-112.96875","-4.21875","-73.15625"
"1537795186952","758","-1.2617188","0.42578125","-0.27148438","59.03125","20.375","120.8125"
"1537795186953","759","-1.3056641","0.359375","-0.22167969","73.9375","55.96875","160.46875"
"1537795186954","760","-1.3076172","0.2919922","-0.25097656","78.9375","70.375","174.75"
"1537795186955","761","-1.1699219","0.28125","-0.19140625","71.59375","91.375","188.25"
"1537795186955","762","-1.0527344","0.2783203","-0.10449219","91.1875","91.84375","189.46875"
"1537795187153","763","-1.0537109","0.19726562","-0.056640625","114.5625","87.71875","178.1875"
"1537795187153","764","-1.0371094","0.11621094","-0.034179688","109.875","83.96875","155.40625"
"1537795187153","765","-1.046875","0.07519531","-0.033203125","78.5","69.03125","119.75"
"1537795187153","766","-0.98339844","0.091796875","-0.06640625","41.875","48.46875","73.3125"
"1537795187153","767","-1.1005859","0.14257812","-0.061523438","7.46875","17.875","23.4375"
"1537795187349","768","-0.99902344","0.14453125","-0.0048828125","-11.34375","-7.75","-29.21875"
"1537795187548","769","-1.3007812","0.12792969","-0.09765625","-19.34375","-51.34375","-85.9375"
"1537795187548","770","-1.0556641","0.12988281","-0.08203125","-60.78125","-60.25","-136.28125"
"1537795187550","771","-1.0761719","0.2109375","-0.16113281","-84.53125","-89.96875","-162.21875"
"1537795187550","772","-1.1572266","0.21289062","-0.22167969","-80.125","-103.9375","-175.03125"
"1537795187550","773","-1.0751953","0.23144531","-0.28710938","-80.25","-100.34375","-175.65625"
"1537795187551","774","-0.9248047","0.21484375","-0.28320312","-81.96875","-84.09375","-168.03125"
"1537795187551","775","-0.8847656","0.21289062","-0.2939453","-101.75","-72.28125","-157.53125"
"1537795187552","776","-0.88671875","0.33203125","-0.31835938","-120.21875","-48.65625","-141.40625"
"1537795187552","777","-0.9111328","0.41308594","-0.33496094","-115.65625","-32.34375","-117.78125"
"1537795187749","778","-1.0078125","0.5332031","-0.36816406","-95.8125","-19.65625","-86.78125"
"1537795187749","779","-1.0292969","0.58496094","-0.390625","-66.09375","-10.375","-48.375"
"1537795187946","780","-0.9638672","0.53515625","-0.34765625","-33.0","-7.9375","-7.3125"
"1537795187947","781","-0.9453125","0.5097656","-0.33203125","-8.34375","-15.0","28.6875"
"1537795188145","782","-1.2001953","0.48828125","-0.32910156","17.28125","-35.15625","54.5625"
"1537795188147","783","-1.5791016","0.6171875","-0.47070312","44.1875","-20.8125","69.28125"
"1537795188148","784","-1.3505859","0.56933594","-0.31835938","83.375","17.28125","95.34375"
"1537795188149","785","-1.4853516","0.4326172","-0.14355469","108.65625","40.40625","131.90625"
"1537795188149","786","-1.484375","0.3203125","-0.08300781","123.59375","71.40625","147.34375"
"1537795188149","787","-1.3808594","0.2578125","-0.07519531","92.1875","101.375","158.65625"
"1537795188149","788","-1.1494141","0.23632812","-0.07421875","70.5","107.84375","164.6875"
"1537795188149","789","-0.95703125","0.25683594","-0.04296875","63.625","102.78125","166.625"
"1537795188150","790","-0.84765625","0.25683594","0.001953125","72.40625","87.65625","159.8125"
"1537795188345","791","-0.90527344","0.14746094","-0.0107421875","84.4375","40.71875","102.5"
"1537795188346","792","-0.9033203","0.13085938","-0.032226562","50.25","19.53125","62.625"
"1537795188346","793","-1.078125","0.15625","-0.032226562","15.34375","-18.8125","18.1875"
"1537795188346","794","-1.0839844","0.17285156","-0.0546875","-4.6875","-42.0625","-36.5"
"1537795188541","795","-1.0908203","0.22558594","-0.09667969","-22.03125","-59.9375","-86.15625"
"1537795188542","796","-0.9638672","0.19628906","-0.11230469","-36.0","-68.71875","-114.125"
"1537795188938","797","-1.0976562","0.16601562","-0.08300781","-53.875","-83.875","-134.375"
"1537795188939","798","-1.1513672","0.21972656","-0.16894531","-71.53125","-84.34375","-151.65625"
"1537795188940","799","-1.0839844","0.29003906","-0.20117188","-85.9375","-77.34375","-158.125"
"1537795188941","800","-0.98535156","0.26757812","-0.23144531","-89.96875","-70.5625","-151.96875"
"1537795189138","801","-0.890625","0.28125","-0.28125","-96.96875","-61.46875","-137.6875"
"1537795189139","802","-0.8798828","0.31152344","-0.2841797","-96.25","-50.78125","-120.21875"
"1537795189139","803","-0.91308594","0.37402344","-0.2861328","-83.65625","-43.15625","-106.125"
"1537795189141","804","-1.0097656","0.4658203","-0.3173828","-67.5625","-35.65625","-89.40625"
"1537795189141","805","-1.1650391","0.5517578","-0.39746094","-33.8125","-30.53125","-68.90625"
"1537795189142","806","-1.1015625","0.5136719","-0.35351562","-21.15625","-18.875","-36.96875"
"1537795189142","807","-1.3183594","0.46484375","-0.12109375","143.9375","32.65625","108.59375"
"1537795189143","808","-1.2480469","0.3330078","-0.052734375","158.9375","69.46875","128.6875"
"1537795189143","809","-1.2470703","0.2421875","-0.01171875","139.96875","88.5625","140.09375"
"1537795189337","810","-0.9736328","0.25390625","0.015625","64.53125","101.0","136.25"
"1537795189338","811","-0.8574219","0.24121094","0.025390625","63.3125","88.125","118.46875"
"1537795189338","812","-0.9160156","0.19824219","0.045898438","59.46875","62.3125","88.9375"
"1537795189339","813","-0.9736328","0.20019531","0.032226562","42.6875","37.96875","51.09375"
"1537795189535","814","-1.0361328","0.20800781","-0.00390625","19.84375","12.9375","12.84375"
"1537795189535","815","-1.0849609","0.20703125","0.005859375","1.78125","-19.03125","-21.09375"
"1537795189537","816","-1.2607422","0.16699219","-0.03125","-10.96875","-49.4375","-61.5625"
"1537795189538","817","-1.1337891","0.19433594","-0.080078125","-41.3125","-64.34375","-101.375"
"1537795189538","818","-0.9667969","0.20117188","-0.18164062","-61.8125","-79.03125","-118.6875"
"1537795189539","819","-1.0957031","0.20605469","-0.21875","-58.71875","-98.28125","-123.9375"
"1537795189733","820","-1.1308594","0.18554688","-0.20996094","-61.6875","-95.71875","-126.46875"
"1537795189734","821","-1.1054688","0.20507812","-0.26171875","-72.625","-90.875","-129.4375"
"1537795189735","822","-0.9824219","0.19628906","-0.3623047","-85.5","-76.96875","-127.0625"
"1537795189735","823","-0.80859375","0.23632812","-0.3701172","-101.6875","-52.0625","-113.28125"
"1537795189736","824","-0.7011719","0.24902344","-0.3076172","-98.1875","-34.3125","-99.0625"
"1537795189932","825","-0.81347656","0.24316406","-0.27539062","-102.71875","-20.5","-84.78125"
"1537795189933","826","-0.9667969","0.2841797","-0.26757812","-124.125","-3.65625","-68.71875"
"1537795189934","827","-1.0253906","0.3857422","-0.2890625","-131.03125","5.90625","-50.40625"
"1537795189934","828","-1.0722656","0.4609375","-0.27441406","-117.3125","-1.59375","-25.75"
"1537795189934","829","-1.1376953","0.50683594","-0.25878906","-86.78125","-14.90625","-1.09375"
"1537795190132","830","-1.2470703","0.51464844","-0.23535156","-52.59375","-32.65625","23.75"
"1537795190132","831","-1.3378906","0.5751953","-0.30078125","-18.46875","-35.53125","48.65625"
"1537795190133","832","-0.9199219","0.6308594","-0.14355469","24.0625","-22.78125","91.0625"
"1537795190134","833","-1.1757812","0.57421875","-0.076171875","116.65625","-26.96875","128.84375"
"1537795190134","834","-1.3037109","0.32421875","-0.17871094","157.78125","1.09375","148.625"
"1537795190332","835","-1.2177734","0.22265625","-0.15234375","121.09375","31.5","160.28125"
"1537795190332","836","-1.1708984","0.28515625","-0.17675781","96.625","48.09375","160.71875"
"1537795190530","837","-1.1503906","0.22070312","-0.21289062","95.28125","63.53125","152.0"
"1537795190530","838","-1.0371094","0.203125","-0.16113281","86.1875","76.125","137.53125"
"1537795190530","839","-0.9404297","0.17285156","-0.20996094","80.28125","81.40625","116.71875"
"1537795190532","840","-0.85253906","0.091796875","-0.20410156","56.96875","85.875","95.15625"
"1537795190533","841","-0.6933594","0.12207031","-0.14550781","25.875","81.0","72.8125"
"1537795190533","842","-0.78222656","0.12109375","-0.17382812","3.96875","61.15625","46.8125"
"1537795190533","843","-0.80566406","0.20019531","-0.103515625","-29.53125","53.34375","8.875"
"1537795190533","844","-0.92285156","0.28710938","0.018554688","-62.625","24.84375","-41.125"
"1537795190728","845","-1.1572266","0.3984375","0.095703125","-99.59375","-16.0625","-95.03125"
"1537795190729","846","-1.2607422","0.5419922","0.103515625","-99.28125","-35.28125","-134.875"
"1537795190927","847","-1.2734375","0.4658203","0.107421875","-86.84375","-65.375","-162.21875"
"1537795190928","848","-1.3007812","0.44628906","0.17285156","-98.5625","-89.0","-177.65625"
"1537795190928","849","-1.296875","0.5175781","0.125","-119.375","-79.28125","-173.75"
"1537795190928","850","-1.1376953","0.49023438","0.17773438","-128.46875","-68.59375","-156.96875"
"1537795190928","851","-1.109375","0.3955078","0.10546875","-146.0","-60.25","-129.8125"
"1537795190929","852","-0.99316406","0.49902344","-0.040039062","-157.46875","-48.34375","-111.375"
"1537795191126","853","-0.8925781","0.55078125","0.0146484375","-177.25","-27.90625","-84.53125"
"1537795191127","854","-0.7675781","0.5126953","-0.06738281","-149.71875","-15.1875","-57.25"
"1537795191127","855","-0.8076172","0.47070312","-0.17089844","-116.1875","-11.15625","-35.5625"
"1537795191127","856","-0.890625","0.4326172","-0.25390625","-100.28125","-1.03125","-17.875"
"1537795191127","857","-0.89746094","0.47070312","-0.2607422","-89.84375","4.5625","-3.53125"
"1537795191128","858","-1.0068359","0.44335938","-0.40722656","-52.90625","5.1875","8.625"
"1537795191128","859","-1.0820312","0.3720703","-0.39257812","-31.71875","8.65625","24.3125"
"1537795191324","860","-1.2314453","0.33984375","-0.3515625","-25.9375","8.53125","46.21875"
"1537795191325","861","-1.7158203","0.36328125","-0.39453125","-13.71875","-0.65625","61.03125"
"1537795191325","862","-1.5380859","0.43066406","-0.42773438","-2.5625","76.34375","75.75"
"1537795191325","863","-1.4130859","0.29589844","-0.18066406","14.34375","76.34375","134.09375"
"1537795191327","864","-1.5078125","0.22558594","-0.09863281","54.21875","106.75","163.40625"
"1537795191523","865","-1.3876953","0.20019531","-0.13574219","53.84375","128.0625","168.03125"
"1537795191523","866","-1.1933594","0.18652344","-0.13183594","50.0625","131.28125","161.875"
"1537795191524","867","-0.9423828","0.13867188","-0.08105469","41.5","130.0625","151.75"
"1537795191525","868","-0.7080078","0.13378906","-0.049804688","38.875","112.25","139.40625"
"1537795191525","869","-0.7011719","0.109375","-0.02734375","40.1875","89.78125","114.4375"
"1537795191722","870","-0.6611328","0.10058594","0.0107421875","31.0625","65.75","73.25"
"1537795191723","871","-0.78808594","0.099609375","-0.0048828125","15.09375","32.21875","19.34375"
"1537795191723","872","-0.9277344","0.20410156","-0.032226562","-13.46875","0.0","-42.28125"
"1537795191724","873","-1.0966797","0.2998047","-0.060546875","-21.46875","-23.8125","-102.21875"
"1537795191724","874","-1.3427734","0.28222656","-0.020507812","-39.96875","-42.78125","-149.40625"
"1537795191920","875","-1.1748047","0.25976562","-0.016601562","-83.84375","-36.375","-181.03125"
"1537795191920","876","-1.1054688","0.25585938","-0.08691406","-117.1875","-51.75","-184.4375"
"1537795191921","877","-1.2373047","0.29296875","-0.14355469","-128.90625","-64.625","-180.90625"
"1537795191922","878","-1.1884766","0.3125","-0.21679688","-124.0","-72.09375","-184.3125"
"1537795191922","879","-1.1806641","0.3466797","-0.2607422","-115.59375","-64.21875","-186.9375"
"1537795192120","880","-1.0439453","0.4013672","-0.26171875","-113.09375","-44.75","-176.0625"
"1537795192120","881","-0.8828125","0.33203125","-0.24511719","-119.6875","-22.78125","-146.15625"
"1537795192121","882","-0.7949219","0.3310547","-0.25097656","-138.1875","-10.3125","-110.09375"
"1537795192122","883","-0.84472656","0.42773438","-0.27148438","-133.34375","-5.75","-80.0"
"1537795192122","884","-0.92871094","0.5029297","-0.3203125","-102.53125","-7.75","-57.90625"
"1537795192318","885","-1.0146484","0.4970703","-0.3388672","-67.90625","-12.34375","-40.09375"
"1537795192318","886","-0.93066406","0.4638672","-0.30664062","-56.5","-15.9375","-12.3125"
"1537795192319","887","-1.0732422","0.42578125","-0.29492188","-49.375","-33.3125","24.5"
"1537795192320","888","-1.3505859","0.49609375","-0.38476562","-28.5625","-40.34375","48.65625"
"1537795192321","889","-1.2246094","0.5830078","-0.35253906","1.34375","-21.71875","75.9375"
"1537795192518","890","-1.2636719","0.56152344","-0.20996094","54.40625","-9.875","115.25"
"1537795192518","891","-1.3671875","0.4345703","-0.19042969","115.25","7.8125","144.46875"
"1537795192518","892","-1.3173828","0.28320312","-0.17773438","122.4375","33.8125","166.75"
"1537795192518","893","-1.1572266","0.22363281","-0.13671875","105.34375","54.5625","181.34375"
"1537795192518","894","-1.0888672","0.16308594","-0.23339844","100.15625","60.78125","179.625"
"1537795192718","895","-0.9707031","0.09277344","-0.24609375","85.8125","75.375","168.15625"
"1537795192718","896","-0.8310547","0.12109375","-0.23144531","58.71875","77.8125","151.375"
"1537795192719","897","-0.76953125","0.11621094","-0.24609375","63.65625","67.03125","118.84375"
"1537795192719","898","-0.74316406","0.119140625","-0.25","56.65625","53.03125","79.65625"
"1537795192719","899","-0.75390625","0.15820312","-0.296875","56.28125","26.90625","39.4375"
"1537795192914","900","-0.921875","0.16796875","-0.21386719","42.375","-6.84375","-5.0625"
"1537795192914","901","-1.2724609","0.26660156","-0.15722656","13.25","-38.8125","-57.4375"
"1537795192915","902","-1.2470703","0.36621094","-0.040039062","-30.125","-51.4375","-102.46875"
"1537795192915","903","-1.3916016","0.37597656","-0.013671875","-64.5625","-75.0","-126.40625"
"1537795193113","904","-1.2314453","0.3720703","-0.0703125","-72.9375","-54.375","-137.875"
"1537795193114","905","-1.2578125","0.3486328","0.028320312","-108.15625","-54.6875","-136.9375"
"1537795193115","906","-1.0097656","0.3857422","0.04296875","-119.625","-38.21875","-129.9375"
"1537795193116","907","-0.99902344","0.34472656","0.060546875","-126.6875","-42.0625","-122.0625"
"1537795193116","908","-0.94433594","0.3203125","-0.018554688","-154.53125","-39.6875","-114.5"
"1537795193314","909","-0.76660156","0.375","-0.078125","-174.625","-29.65625","-107.21875"
"1537795193314","910","-0.6767578","0.3984375","-0.028320312","-164.28125","-34.96875","-97.03125"
"1537795193314","911","-0.7324219","0.39160156","-0.11816406","-139.46875","-42.96875","-88.0"
"1537795193314","912","-0.7832031","0.40722656","-0.171875","-125.34375","-40.65625","-77.625"
"1537795193315","913","-0.828125","0.41796875","-0.21679688","-115.65625","-39.78125","-62.84375"
"1537795193511","914","-0.9199219","0.4375","-0.3408203","-103.5625","-36.4375","-44.4375"
"1537795193511","915","-1.0078125","0.28222656","-0.43652344","-85.5625","-19.84375","-26.65625"
"1537795193511","916","-1.1328125","0.43652344","-0.3984375","-86.40625","-19.96875","-6.28125"
"1537795193709","917","-1.421875","0.33496094","-0.48046875","-79.21875","-6.96875","20.53125"
"1537795193709","918","-1.4697266","0.47558594","-0.43066406","-104.46875","12.34375","62.75"
"1537795193908","919","-1.8134766","0.5917969","-0.6328125","-16.59375","-3.0625","77.9375"
"1537795193909","920","-1.3330078","0.37597656","-0.3984375","52.25","52.78125","102.125"
"1537795193909","921","-1.5654297","0.390625","-0.19824219","92.34375","53.84375","149.71875"
"1537795193910","922","-1.5820312","0.17578125","-0.12988281","113.21875","99.125","168.15625"
"1537795193911","923","-1.3027344","0.15917969","-0.12109375","80.6875","123.96875","178.53125"
"1537795193912","924","-1.125","0.17382812","-0.064453125","66.0","129.28125","177.9375"
"1537795193913","925","-0.9472656","0.15429688","-0.00390625","52.9375","125.625","170.71875"
"1537795193913","926","-0.8027344","0.15136719","0.016601562","51.15625","115.96875","153.34375"
"1537795193913","927","-0.73828125","0.111328125","0.048828125","47.0625","96.4375","121.71875"
"1537795194108","928","-0.7529297","0.10839844","0.01171875","0.8125","32.53125","21.4375"
"1537795194109","929","-0.9267578","0.20410156","-0.0546875","-29.09375","-10.9375","-36.375"
"1537795194109","930","-1.0664062","0.2734375","-0.103515625","-28.84375","-54.25","-92.875"
"1537795194110","931","-1.4365234","0.3046875","-0.15722656","-18.40625","-95.40625","-145.0625"
"1537795194110","932","-1.1914062","0.25195312","-0.23144531","-28.5","-100.28125","-184.1875"
"1537795194306","933","-1.1982422","0.23828125","-0.35742188","-54.75","-110.09375","-187.6875"
"1537795194306","934","-1.2949219","0.26953125","-0.2890625","-64.875","-90.40625","-184.25"
"1537795194307","935","-1.1572266","0.26953125","-0.21582031","-70.53125","-61.09375","-180.84375"
"1537795194308","936","-1.0478516","0.24609375","-0.203125","-105.28125","-39.125","-168.1875"
"1537795194309","937","-0.9121094","0.2783203","-0.25097656","-149.78125","-21.1875","-143.125"
"1537795194504","938","-0.82910156","0.3486328","-0.24316406","-158.8125","-8.53125","-116.5"
"1537795194504","939","-0.7109375","0.43554688","-0.25097656","-140.25","-0.3125","-91.1875"
"1537795194504","940","-0.73535156","0.4814453","-0.34277344","-90.1875","-13.84375","-73.65625"
"1537795194506","941","-0.9199219","0.43359375","-0.37597656","-53.03125","-16.34375","-59.5"
"1537795194506","942","-0.9785156","0.44726562","-0.29882812","-55.71875","-17.09375","-37.71875"
"1537795194703","943","-0.9892578","0.5029297","-0.31054688","-55.78125","-21.65625","-8.15625"
"1537795194704","944","-1.1982422","0.52734375","-0.39257812","-37.28125","-43.8125","27.78125"
"1537795194704","945","-1.2402344","0.60253906","-0.47753906","8.9375","-31.90625","57.5625"
"1537795194706","946","-1.3681641","0.5546875","-0.35742188","68.96875","-19.65625","95.71875"
"1537795194706","947","-1.3417969","0.4296875","-0.26953125","106.03125","5.625","136.25"
"1537795194902","948","-1.3271484","0.3154297","-0.20703125","126.125","35.09375","157.0"
"1537795194902","949","-1.3027344","0.24609375","-0.203125","109.5","55.46875","168.34375"
"1537795194903","950","-1.203125","0.27734375","-0.15722656","102.125","69.53125","172.625"
"1537795194904","951","-1.0791016","0.23730469","-0.08886719","104.0","78.0625","169.3125"
"1537795194904","952","-0.96875","0.17675781","-0.068359375","96.375","80.375","159.6875"
"1537795195101","953","-0.88183594","0.14746094","-0.0546875","75.21875","75.6875","145.21875"
"1537795195102","954","-0.82128906","0.13769531","-0.053710938","61.15625","59.21875","117.375"
"1537795195103","955","-0.89746094","0.1015625","-0.060546875","43.03125","31.96875","72.09375"
"1537795195104","956","-1.0117188","0.14453125","-0.07519531","2.5625","3.65625","15.8125"
"1537795195104","957","-1.1259766","0.21484375","-0.103515625","-21.78125","-27.21875","-50.15625"
"1537795195300","958","-1.1074219","0.21289062","-0.08691406","-42.34375","-38.03125","-106.3125"
"1537795195301","959","-0.9580078","0.2705078","-0.10644531","-60.71875","-54.6875","-133.34375"
"1537795195301","960","-1.0595703","0.22460938","-0.13085938","-57.78125","-73.78125","-143.0"
"1537795195301","961","-1.1982422","0.26660156","-0.18945312","-57.78125","-81.65625","-145.875"
"1537795195301","962","-1.0703125","0.30664062","-0.24121094","-59.0625","-78.125","-140.125"
"1537795195498","963","-0.9345703","0.29882812","-0.25097656","-52.90625","-70.8125","-129.25"
"1537795195499","964","-0.875","0.29003906","-0.2783203","-57.0","-59.9375","-115.28125"
"1537795195499","965","-0.7910156","0.26171875","-0.23535156","-64.5","-45.78125","-99.65625"
"1537795195499","966","-0.8857422","0.3017578","-0.2578125","-76.71875","-35.46875","-86.34375"
"1537795195500","967","-1.046875","0.34375","-0.30859375","-90.6875","-26.0","-75.0"
"1537795195697","968","-1.1171875","0.46191406","-0.30078125","-92.9375","-20.5625","-61.625"
"1537795195699","969","-1.1523438","0.5058594","-0.3017578","-78.78125","-18.1875","-40.875"
"1537795195699","970","-1.1699219","0.53808594","-0.28222656","-51.9375","-25.8125","-12.875"
"1537795195700","971","-1.4257812","0.57421875","-0.39746094","-18.375","-18.875","12.84375"
"1537795195700","972","-1.1640625","0.54785156","-0.36035156","23.3125","-5.3125","51.53125"
"1537795195895","973","-1.1347656","0.4814453","-0.171875","68.375","19.53125","85.21875"
"1537795195895","974","-1.2490234","0.3935547","-0.15234375","99.875","35.8125","105.0625"
"1537795195896","975","-1.0996094","0.25097656","-0.10449219","87.90625","60.90625","119.09375"
"1537795195897","976","-1.0136719","0.26757812","-0.13378906","64.03125","65.25","128.3125"
"1537795195897","977","-0.93066406","0.28808594","-0.10839844","59.875","70.4375","129.53125"
"1537795196094","978","-0.8300781","0.2734375","-0.059570312","64.84375","63.84375","128.0"
"1537795196095","979","-0.8486328","0.24707031","-0.026367188","77.09375","55.53125","116.96875"
"1537795196095","980","-0.8642578","0.19433594","-0.024414062","74.78125","43.28125","96.375"
"1537795196294","981","-1.0029297","0.17578125","-0.051757812","58.53125","27.09375","64.71875"
"1537795196294","982","-1.0830078","0.20507812","-0.047851562","32.78125","11.0","26.8125"
"1537795196296","983","-1.2207031","0.20996094","-0.078125","9.84375","-3.71875","-13.46875"
"1537795196296","984","-1.2734375","0.20703125","-0.0703125","-7.875","-21.90625","-52.0625"
"1537795196297","985","-1.0273438","0.22265625","-0.11816406","-38.625","-24.90625","-76.46875"
"1537795196297","986","-0.9199219","0.22851562","-0.18261719","-48.5","-47.0","-76.09375"
"1537795196297","987","-1.0400391","0.2548828","-0.22949219","-31.46875","-58.78125","-77.5625"
"1537795196491","988","-0.9316406","0.25390625","-0.2626953","-20.5","-53.34375","-78.3125"
"1537795196492","989","-0.74316406","0.21386719","-0.27148438","-18.65625","-44.4375","-72.6875"
"1537795196492","990","-0.70996094","0.16503906","-0.2548828","-35.28125","-37.0625","-64.0625"
"1537795196493","991","-0.66796875","0.19921875","-0.20605469","-56.6875","-20.75","-61.625"
"1537795196494","992","-0.76660156","0.20214844","-0.21679688","-69.09375","-19.15625","-63.03125"
"1537795196692","993","-0.8613281","0.2890625","-0.21386719","-86.46875","-19.03125","-65.25"
"1537795196692","994","-1.0380859","0.39257812","-0.26660156","-88.90625","-33.09375","-65.78125"
"1537795196692","995","-1.109375","0.4716797","-0.3232422","-69.09375","-43.6875","-63.40625"
"1537795196692","996","-1.0292969","0.5419922","-0.3359375","-25.8125","-54.03125","-56.1875"
"1537795196692","997","-1.1640625","0.5361328","-0.4326172","19.46875","-72.3125","-38.125"
"1537795196890","998","-1.2285156","0.66015625","-0.56640625","76.96875","-47.4375","-20.6875"
"1537795196890","999","-1.4677734","0.5703125","-0.3486328","105.90625","-3.25","15.5625"
"1537795196890","1000","-1.3134766","0.34375","-0.17480469","78.9375","49.8125","61.59375"
"1537795196891","1001","-1.2490234","0.27734375","-0.15722656","64.9375","84.09375","94.875"
"1537795196891","1002","-1.1337891","0.2919922","-0.14355469","47.875","101.5","115.5"
"1537795197089","1003","-0.9638672","0.36621094","-0.125","52.3125","103.15625","127.03125"
"1537795197089","1004","-0.92285156","0.32226562","-0.08105469","84.125","94.84375","127.4375"
"1537795197090","1005","-0.82910156","0.23535156","-0.03125","96.875","87.78125","122.6875"
"1537795197091","1006","-0.8222656","0.18164062","-0.029296875","88.15625","76.34375","110.71875"
"1537795197091","1007","-0.7607422","0.15917969","-0.020507812","69.84375","65.25","91.0"
"1537795197289","1008","-0.8232422","0.14550781","-0.043945312","48.84375","43.625","65.6875"
"1537795197291","1009","-0.9638672","0.115234375","-0.03125","20.9375","18.6875","36.4375"
"1537795197291","1010","-1.2197266","0.140625","0.0546875","-16.96875","-12.21875","-4.8125"
"1537795197291","1011","-1.5761719","0.24316406","0.01953125","-57.84375","-51.03125","-53.46875"
"1537795197291","1012","-1.1845703","0.27246094","-0.064453125","-72.25","-58.65625","-95.4375"
"1537795197486","1013","-1.0039062","0.31835938","-0.16601562","-47.96875","-89.53125","-109.0"
"1537795197487","1014","-1.0830078","0.16210938","-0.19433594","-26.53125","-118.59375","-110.03125"
"1537795197487","1015","-0.9580078","0.15820312","-0.140625","-41.1875","-98.09375","-112.34375"
"1537795197487","1016","-1.046875","0.15820312","-0.16992188","-65.46875","-100.59375","-125.28125"
"1537795197487","1017","-1.0302734","0.2890625","-0.22070312","-135.3125","-63.28125","-118.9375"
"1537795197684","1018","-0.8720703","0.4423828","-0.2529297","-153.75","-42.90625","-111.125"
"1537795197685","1019","-0.75","0.43164062","-0.29785156","-145.125","-29.34375","-93.3125"
"1537795197685","1020","-0.6738281","0.45898438","-0.23632812","-132.75","-22.46875","-73.15625"
"1537795197686","1021","-0.7451172","0.45996094","-0.27246094","-98.6875","-28.25","-61.75"
"1537795197687","1022","-0.8046875","0.5019531","-0.32617188","-78.25","-21.65625","-42.34375"
"1537795197884","1023","-1.2294922","0.36328125","-0.50878906","-39.34375","-12.28125","-14.40625"
"1537795197884","1024","-1.3144531","0.19140625","-0.25390625","-71.78125","30.09375","26.875"
"1537795197884","1025","-1.2373047","0.24316406","-0.23730469","-93.125","32.03125","61.15625"
"1537795197885","1026","-1.265625","0.23046875","-0.3779297","-86.90625","24.15625","70.625"
"1537795197885","1027","-1.1376953","0.40039062","-0.36035156","-85.0","2.6875","64.90625"
"1537795198082","1028","-1.1884766","0.4814453","-0.32910156","-32.34375","-13.625","67.8125"
"1537795198082","1029","-1.1865234","0.3779297","-0.34472656","10.9375","-3.53125","103.03125"
"1537795198083","1030","-1.3994141","0.24902344","-0.2890625","50.1875","18.25","136.5"
"1537795198083","1031","-1.5185547","0.17480469","-0.3046875","45.125","51.625","155.46875"
"1537795198281","1032","-1.4765625","0.17578125","-0.28515625","18.875","100.84375","147.71875"
"1537795198282","1033","-1.4179688","0.16113281","-0.203125","-2.3125","122.3125","140.21875"
"1537795198479","1034","-0.99609375","0.17089844","-0.13183594","0.5625","133.3125","128.1875"
"1537795198479","1035","-0.9042969","0.15722656","-0.16796875","20.53125","108.71875","113.21875"
"1537795198480","1036","-0.796875","0.1328125","-0.17871094","26.0","94.59375","89.71875"
"1537795198480","1037","-0.58984375","0.11621094","-0.16601562","23.25","75.8125","64.90625"
"1537795198481","1038","-0.56152344","0.09082031","-0.13574219","20.21875","53.84375","40.34375"
"1537795198481","1039","-0.5673828","0.1171875","-0.13574219","4.40625","35.28125","12.34375"
"1537795198482","1040","-0.796875","0.21679688","-0.14746094","-10.375","14.28125","-27.9375"
"1537795198483","1041","-0.9511719","0.32617188","-0.09375","-35.875","-8.78125","-79.21875"
"1537795198679","1042","-1.3642578","0.4736328","-0.064453125","-62.4375","-33.5625","-146.84375"
"1537795198680","1043","-1.4414062","0.58691406","0.00390625","-97.21875","-35.65625","-201.78125"
"1537795198680","1044","-1.2841797","0.5498047","-0.017578125","-114.375","-30.9375","-209.59375"
"1537795198877","1045","-1.4179688","0.49414062","0.076171875","-117.90625","-37.71875","-195.84375"
"1537795198878","1046","-1.2128906","0.48828125","9.765625E-4","-117.96875","-33.625","-180.59375"
"1537795198878","1047","-1.0683594","0.4111328","-0.10058594","-127.6875","-36.5","-166.0625"
"1537795198878","1048","-0.95996094","0.3984375","-0.14941406","-142.1875","-23.6875","-152.5625"
"1537795198878","1049","-0.7998047","0.4033203","-0.14746094","-144.75","-3.46875","-135.4375"
"1537795198879","1050","-0.71484375","0.36914062","-0.11425781","-150.3125","11.09375","-110.65625"
"1537795198880","1051","-0.7705078","0.3779297","-0.13378906","-167.03125","17.53125","-83.4375"
"1537795199076","1052","-0.828125","0.51660156","-0.16796875","-161.625","19.78125","-60.53125"
"1537795199076","1053","-0.84765625","0.6298828","-0.25","-118.46875","6.53125","-42.84375"
"1537795199076","1054","-0.953125","0.6113281","-0.30859375","-62.96875","-6.65625","-20.75"
"1537795199077","1055","-1.0019531","0.5517578","-0.2861328","-26.0625","-18.75","11.3125"
"1537795199077","1056","-1.4326172","0.53222656","-0.33691406","-2.90625","-36.1875","42.6875"
"1537795199274","1057","-1.4257812","0.5419922","-0.41503906","-1.46875","-6.09375","78.625"
"1537795199275","1058","-1.1669922","0.4736328","-0.3701172","30.78125","7.875","125.9375"
"1537795199276","1059","-1.3300781","0.41308594","-0.2578125","81.0625","19.71875","159.1875"
"1537795199277","1060","-1.3017578","0.28320312","-0.18457031","106.21875","45.28125","173.90625"
"1537795199277","1061","-1.2060547","0.17382812","-0.18652344","87.34375","61.875","177.0625"
"1537795199473","1062","-0.9951172","0.13183594","-0.20800781","58.25","68.84375","170.78125"
"1537795199474","1063","-0.82128906","0.14355469","-0.18164062","33.75","66.09375","162.125"
"1537795199474","1064","-0.6982422","0.14746094","-0.14453125","33.09375","52.5","143.5625"
"1537795199474","1065","-0.6953125","0.11328125","-0.14453125","37.84375","31.8125","110.125"
"1537795199475","1066","-0.6953125","0.12890625","-0.15722656","29.25","11.71875","63.5625"
"1537795199672","1067","-0.96777344","0.16796875","-0.16601562","7.9375","-12.9375","8.25"
"1537795199673","1068","-0.96875","0.21777344","-0.091796875","-27.03125","-21.96875","-49.375"
"1537795199674","1069","-1.2158203","0.32226562","-0.15820312","-31.46875","-52.5","-103.9375"
"1537795199674","1070","-1.28125","0.3017578","-0.1328125","-39.28125","-52.3125","-156.0"
"1537795199674","1071","-1.2148438","0.3251953","-0.15332031","-70.90625","-62.1875","-184.5"
"1537795199871","1072","-1.2724609","0.30859375","-0.25878906","-85.3125","-73.65625","-191.625"
"1537795199872","1073","-1.2675781","0.34375","-0.2607422","-85.8125","-70.96875","-186.625"
"1537795199872","1074","-1.1230469","0.37890625","-0.31054688","-83.65625","-66.28125","-174.375"
"1537795199873","1075","-0.9970703","0.35742188","-0.31054688","-93.5625","-51.15625","-151.53125"
"1537795199873","1076","-0.8076172","0.45410156","-0.2939453","-98.1875","-31.0625","-123.84375"
"1537795200069","1077","-0.6767578","0.4580078","-0.2548828","-79.625","-16.96875","-93.0625"
"1537795200069","1078","-0.5917969","0.43652344","-0.27148438","-70.59375","-5.90625","-60.15625"
"1537795200069","1079","-0.546875","0.46875","-0.26757812","-60.78125","-1.34375","-28.8125"
"1537795200070","1080","-0.68359375","0.46777344","-0.24414062","-34.15625","-6.03125","-6.875"
"1537795200072","1081","-0.9277344","0.5214844","-0.24609375","-8.21875","-14.71875","8.75"
"1537795200269","1082","-1.0839844","0.4609375","-0.31347656","19.59375","-28.25","23.09375"
"1537795200269","1083","-1.3486328","0.3173828","-0.35253906","15.09375","-31.5625","52.25"
"1537795200269","1084","-1.3251953","0.34375","-0.37695312","-15.0625","-27.21875","85.03125"
"1537795200269","1085","-1.2333984","0.2705078","-0.5361328","4.90625","-14.78125","114.6875"
"1537795200270","1086","-1.6621094","0.40625","-0.2939453","9.78125","6.84375","158.09375"
"1537795200467","1087","-1.9287109","0.32226562","-0.19140625","32.0","61.65625","186.21875"
"1537795200467","1088","-1.7949219","0.14648438","-0.27441406","52.4375","117.1875","187.625"
"1537795200468","1089","-1.4833984","0.11621094","-0.22460938","28.5625","137.9375","168.53125"
"1537795200468","1090","-1.1992188","0.21972656","-0.21679688","14.65625","125.96875","139.28125"
"1537795200468","1091","-1.0478516","0.24609375","-0.14160156","21.3125","121.875","99.5625"
"1537795200668","1092","-0.83984375","0.26367188","-0.103515625","43.59375","106.375","60.0625"
"1537795200668","1093","-1.0644531","0.19921875","-0.17578125","37.375","97.71875","29.6875"
"1537795200669","1094","-0.79296875","0.18554688","-0.11035156","19.0625","108.46875","13.375"
"1537795200669","1095","-0.6328125","0.19921875","-0.087890625","5.625","101.3125","10.4375"
"1537795200669","1096","-0.63671875","0.10644531","-0.08105469","-4.375","81.71875","10.25"
"1537795200864","1097","-0.5673828","0.19628906","-0.095703125","-22.6875","68.0625","-7.6875"
"1537795200865","1098","-0.5419922","0.27734375","-0.22558594","-14.46875","33.875","-37.78125"
"1537795200865","1099","-0.765625","0.3515625","-0.25195312","-25.0","3.53125","-80.25"
"1537795200866","1100","-1.0908203","0.3388672","-0.23925781","-47.84375","-20.6875","-135.96875"
"1537795200866","1101","-1.2304688","0.39453125","-0.041992188","-121.5625","-19.15625","-204.03125"
"1537795201063","1102","-1.3017578","0.6328125","-0.20410156","-169.25","-31.5625","-258.78125"
"1537795201064","1103","-1.3886719","0.52441406","-0.29785156","-168.625","-35.71875","-270.3125"
"1537795201064","1104","-1.3691406","0.50878906","-0.14257812","-133.15625","-32.34375","-259.9375"
"1537795201065","1105","-1.40625","0.3671875","-0.16113281","-135.375","-28.1875","-243.46875"
"1537795201065","1106","-1.296875","0.3359375","-0.21777344","-231.0","-10.6875","-197.875"
"1537795201263","1107","-0.89746094","0.5722656","-0.21777344","-238.46875","22.59375","-150.375"
"1537795201263","1108","-0.6582031","0.5683594","-0.17480469","-165.09375","24.96875","-111.6875"
"1537795201263","1109","-0.6201172","0.55859375","-0.19726562","-104.0","19.59375","-79.15625"
"1537795201263","1110","-0.6923828","0.5185547","-0.24609375","-55.71875","13.78125","-58.15625"
"1537795201263","1111","-0.71875","0.45703125","-0.3173828","-35.03125","4.6875","-43.8125"
"1537795201460","1112","-0.7988281","0.43164062","-0.38476562","-30.5625","-8.4375","-29.34375"
"1537795201460","1113","-0.79003906","0.4453125","-0.38867188","-28.1875","-19.28125","-6.875"
"1537795201662","1114","-0.83691406","0.45507812","-0.328125","-14.9375","-37.125","23.5"
"1537795201662","1115","-1.15625","0.41015625","-0.27441406","-2.5","-65.75","50.4375"
"1537795201662","1116","-1.7646484","0.5722656","-0.421875","8.0","-82.21875","65.25"
"1537795201663","1117","-1.1083984","0.6064453","-0.46875","43.40625","-35.21875","95.53125"
"1537795201663","1118","-1.3730469","0.63378906","-0.22851562","121.46875","-47.4375","144.96875"
"1537795201663","1119","-1.4199219","0.43554688","-0.1484375","195.4375","-9.8125","170.46875"
"1537795201664","1120","-1.4111328","0.25683594","-0.16113281","198.25","31.4375","187.15625"
"1537795201664","1121","-1.2705078","0.13183594","-0.10644531","165.40625","63.59375","196.3125"
"1537795201860","1122","-1.1240234","0.19921875","-0.056640625","136.90625","71.65625","198.875"
"1537795201861","1123","-1.125","0.13867188","-0.06640625","137.53125","70.0625","184.21875"
"1537795201861","1124","-0.9765625","0.0546875","-0.08691406","117.875","64.34375","155.34375"
"1537795201861","1125","-0.92871094","0.047851562","-0.107421875","75.375","44.3125","114.625"
"1537795201861","1126","-0.921875","0.06640625","-0.072265625","40.1875","21.53125","62.875"
"1537795202057","1127","-1.109375","0.049804688","-0.055664062","4.34375","-8.125","2.21875"
"1537795202057","1128","-1.0185547","0.09667969","-0.07519531","-26.59375","-32.59375","-61.15625"
"1537795202058","1129","-1.0185547","0.12011719","-0.119140625","-48.625","-49.9375","-115.71875"
"1537795202059","1130","-1.0205078","0.15527344","-0.15917969","-70.59375","-81.78125","-155.625"
"1537795202059","1131","-1.2529297","0.20117188","-0.2578125","-70.125","-105.59375","-191.75"
"1537795202256","1132","-1.3046875","0.23046875","-0.30273438","-78.78125","-100.46875","-210.9375"
"1537795202258","1133","-1.1728516","0.18164062","-0.28710938","-96.71875","-79.71875","-206.21875"
"1537795202258","1134","-1.0566406","0.17480469","-0.17675781","-140.4375","-56.03125","-187.5625"
"1537795202258","1135","-0.96875","0.3310547","-0.15820312","-173.875","-33.21875","-165.8125"
"1537795202258","1136","-0.89746094","0.43554688","-0.24609375","-180.65625","-18.75","-139.28125"
"1537795202455","1137","-0.9580078","0.5986328","-0.2919922","-146.09375","-16.28125","-114.0"
"1537795202455","1138","-1.0400391","0.70703125","-0.3095703","-72.0625","-15.75","-91.34375"
"1537795202455","1139","-1.0673828","0.609375","-0.32226562","-27.6875","-15.4375","-59.9375"
"1537795202456","1140","-1.0771484","0.57128906","-0.29882812","-23.0","-18.8125","-19.46875"
"1537795202456","1141","-1.0234375","0.57421875","-0.3125","-13.84375","-21.375","26.0"
"1537795202653","1142","-1.4238281","0.5029297","-0.38964844","0.625","-25.5","68.75"
"1537795202653","1143","-1.1953125","0.609375","-0.38671875","32.96875","-12.15625","104.625"
"1537795202654","1144","-1.2460938","0.5751953","-0.23828125","99.1875","7.9375","134.15625"
"1537795202655","1145","-1.375","0.47753906","-0.1171875","169.5","28.75","152.71875"
"1537795202655","1146","-1.4189453","0.23828125","-0.07421875","200.375","58.21875","160.03125"
"1537795202852","1147","-1.3164062","0.09277344","-0.0703125","152.0","94.3125","171.75"
"1537795202853","1148","-1.1191406","0.12695312","-0.06933594","99.0","103.8125","180.84375"
"1537795202854","1149","-1.1591797","0.13769531","-0.033203125","71.375","101.5625","178.28125"
"1537795202854","1150","-0.99121094","0.1640625","0.005859375","61.0","95.53125","160.96875"
"1537795202854","1151","-1.0683594","0.12792969","-0.017578125","56.15625","62.4375","126.28125"
"1537795203051","1152","-1.0087891","0.109375","-0.018554688","38.03125","44.8125","78.0625"
"1537795203051","1153","-0.9716797","0.09375","-0.037109375","11.375","9.46875","26.6875"
"1537795203051","1154","-0.9423828","0.047851562","-0.0390625","-6.15625","-22.21875","-32.40625"
"1537795203052","1155","-1.0078125","0.087890625","-0.055664062","-39.1875","-49.375","-96.78125"
"1537795203052","1156","-0.92089844","0.12890625","-0.10546875","-68.53125","-82.34375","-141.96875"
"1537795203250","1157","-1.1416016","0.19628906","-0.17285156","-67.4375","-111.34375","-173.28125"
"1537795203250","1158","-1.2011719","0.27539062","-0.2734375","-36.0625","-124.75","-193.34375"
"1537795203252","1159","-1.0439453","0.22460938","-0.29492188","3.90625","-123.53125","-193.40625"
"1537795203252","1160","-1.0273438","0.080078125","-0.30078125","2.5","-120.375","-172.0"
"1537795203447","1161","-0.921875","0.03515625","-0.2548828","-61.5","-92.71875","-141.28125"
"1537795203448","1162","-0.9316406","0.107421875","-0.23535156","-130.71875","-68.40625","-107.59375"
"1537795203448","1163","-0.97753906","0.3017578","-0.28808594","-162.65625","-45.90625","-74.625"
"1537795203449","1164","-1.0605469","0.5078125","-0.29492188","-132.875","-33.625","-49.125"
"1537795203450","1165","-1.09375","0.56640625","-0.265625","-76.59375","-25.28125","-29.65625"
"1537795203647","1166","-1.0634766","0.55566406","-0.2861328","-33.625","-28.625","-6.34375"
"1537795203647","1167","-1.0585938","0.46289062","-0.32128906","8.5","-41.1875","23.375"
"1537795203847","1168","-1.2871094","0.5107422","-0.36328125","37.59375","-25.5","50.71875"
"1537795203847","1169","-1.4101562","0.58496094","-0.19628906","85.03125","-8.3125","75.5625"
"1537795203848","1170","-1.4628906","0.44921875","-0.037109375","108.78125","37.46875","108.84375"
"1537795203849","1171","-1.3837891","0.2919922","0.048828125","103.34375","73.65625","142.96875"
"1537795203849","1172","-1.3837891","0.23828125","0.06347656","78.5625","94.125","169.3125"
"1537795203850","1173","-1.1923828","0.28027344","0.049804688","50.5625","105.40625","187.5625"
"1537795203850","1174","-1.1123047","0.328125","0.047851562","50.4375","94.3125","188.84375"
"1537795203850","1175","-0.9511719","0.2939453","0.08984375","62.625","85.09375","174.03125"
"1537795204044","1176","-0.91308594","0.29003906","0.140625","74.96875","58.71875","148.21875"
"1537795204045","1177","-0.9824219","0.21679688","0.14160156","87.78125","42.59375","108.40625"
"1537795204045","1178","-1.0341797","0.16015625","0.119140625","72.40625","24.59375","59.34375"
"1537795204045","1179","-1.1621094","0.14453125","0.046875","37.5625","5.8125","5.0625"
"1537795204046","1180","-1.0205078","0.16308594","9.765625E-4","9.59375","-11.65625","-45.53125"
"1537795204242","1181","-1.2519531","0.14160156","-0.041992188","-3.15625","-38.875","-98.3125"
"1537795204243","1182","-1.1005859","0.15917969","-0.09472656","-35.9375","-53.53125","-142.9375"
"1537795204244","1183","-1.0625","0.16699219","-0.21582031","-54.75","-75.875","-163.1875"
"1537795204244","1184","-1.1181641","0.18554688","-0.26953125","-51.875","-88.6875","-168.1875"
"1537795204245","1185","-1.0439453","0.19238281","-0.2763672","-44.84375","-86.59375","-169.78125"
"1537795204442","1186","-1.0458984","0.14355469","-0.30078125","-64.0625","-78.25","-160.34375"
"1537795204442","1187","-0.95410156","0.1796875","-0.30859375","-98.125","-51.15625","-144.65625"
"1537795204442","1188","-0.82714844","0.23730469","-0.25683594","-115.21875","-27.40625","-122.90625"
"1537795204443","1189","-0.78027344","0.24804688","-0.27929688","-117.25","-16.46875","-97.9375"
"1537795204443","1190","-0.9277344","0.328125","-0.3720703","-114.84375","-11.21875","-74.09375"
"1537795204641","1191","-1.0332031","0.38867188","-0.32714844","-101.3125","-3.0625","-55.03125"
"1537795204642","1192","-1.09375","0.45703125","-0.29296875","-84.21875","-3.59375","-34.15625"
"1537795204644","1193","-0.99609375","0.4580078","-0.33789062","-66.46875","-6.59375","-4.1875"
"1537795204644","1194","-1.0429688","0.38867188","-0.34179688","-43.9375","-23.5625","31.5"
"1537795204644","1195","-1.2119141","0.46289062","-0.38085938","-17.8125","-23.875","56.21875"
"1537795204841","1196","-1.1308594","0.5332031","-0.27929688","14.84375","-7.5","82.65625"
"1537795204841","1197","-1.2480469","0.4814453","-0.18652344","66.21875","-1.09375","113.46875"
"1537795205038","1198","-1.3378906","0.38476562","-0.16601562","111.15625","17.40625","133.4375"
"1537795205039","1199","-1.2363281","0.24902344","-0.16796875","108.03125","44.6875","151.4375"
"1537795205039","1200","-1.0908203","0.18945312","-0.16210938","82.84375","60.25","168.28125"
"1537795205040","1201","-1.0185547","0.15722656","-0.19921875","69.59375","67.6875","174.375"
"1537795205041","1202","-0.9716797","0.11621094","-0.21386719","67.28125","72.625","165.59375"
"1537795205041","1203","-0.875","0.11621094","-0.16113281","50.5","72.3125","150.65625"
"1537795205041","1204","-0.8828125","0.10546875","-0.18164062","51.03125","63.21875","116.90625"
"1537795205042","1205","-0.8457031","0.064453125","-0.20214844","28.21875","52.3125","77.9375"
"1537795205237","1206","-0.87402344","0.15722656","-0.18066406","11.84375","23.6875","34.25"
"1537795205238","1207","-1.1855469","0.09667969","-0.11425781","5.25","-8.65625","-24.9375"
"1537795205239","1208","-1.1298828","0.19628906","-0.048828125","-33.3125","-31.96875","-84.40625"
"1537795205239","1209","-1.515625","0.27539062","0.0859375","-80.4375","-76.0625","-137.5625"
"1537795205239","1210","-1.3642578","0.38085938","-0.103515625","-93.375","-60.90625","-181.875"
"1537795205436","1211","-1.3720703","0.4091797","0.017578125","-103.125","-63.90625","-188.65625"
"1537795205436","1212","-1.1953125","0.3671875","0.12792969","-102.90625","-47.4375","-175.71875"
"1537795205437","1213","-1.0039062","0.28027344","0.107421875","-127.84375","-44.3125","-147.375"
"1537795205437","1214","-1.015625","0.3046875","-0.005859375","-176.6875","-48.9375","-119.6875"
"1537795205437","1215","-0.8720703","0.4248047","0.0078125","-207.21875","-38.40625","-100.34375"
"1537795205635","1216","-0.7685547","0.4921875","-0.034179688","-172.71875","-41.0625","-90.125"
"1537795205635","1217","-0.7363281","0.5283203","-0.13769531","-138.90625","-41.8125","-76.65625"
"1537795205635","1218","-0.76464844","0.5019531","-0.20898438","-112.34375","-34.3125","-56.625"
"1537795205636","1219","-0.75","0.43164062","-0.23144531","-99.15625","-28.8125","-35.03125"
"1537795205636","1220","-0.8964844","0.49121094","-0.27441406","-103.8125","-28.0625","-10.84375"
"1537795205833","1221","-1.0087891","0.4296875","-0.28515625","-79.53125","-23.8125","8.5625"
"1537795205833","1222","-1.1699219","0.25390625","-0.37695312","-44.78125","-31.75","35.84375"
"1537795205833","1223","-1.4824219","0.25683594","-0.42285156","-77.9375","-29.46875","63.5"
"1537795205834","1224","-1.8310547","0.4638672","-0.5966797","-32.40625","-26.625","65.125"
"1537795205835","1225","-1.3984375","0.2685547","-0.5097656","28.03125","39.84375","96.8125"
"1537795206033","1226","-1.5234375","0.28222656","-0.25878906","53.90625","63.46875","148.6875"
"1537795206033","1227","-1.3935547","0.26464844","-0.11328125","78.375","104.6875","152.15625"
"1537795206033","1228","-1.4960938","0.22070312","-0.12207031","76.96875","118.21875","138.8125"
"1537795206034","1229","-1.0029297","0.18847656","-0.09375","64.9375","137.5","127.875"
"1537795206034","1230","-0.8828125","0.17089844","-0.033203125","54.875","131.34375","129.28125"
"1537795206232","1231","-0.6816406","0.17089844","0.01171875","48.40625","123.28125","125.0625"
"1537795206232","1232","-0.8105469","0.16113281","0.057617188","45.53125","100.09375","107.125"
"1537795206232","1233","-0.8515625","0.13476562","0.08203125","33.59375","88.3125","71.71875"
"1537795206232","1234","-0.953125","0.15234375","0.0625","4.46875","60.0625","27.46875"
"1537795206429","1235","-0.890625","0.16992188","0.0146484375","-12.9375","26.71875","-24.03125"
"1537795206629","1236","-1.0527344","0.23339844","-0.0859375","-25.5","-17.15625","-74.875"
"1537795206629","1237","-1.265625","0.21679688","-0.05859375","-35.6875","-52.78125","-122.5"
"1537795206630","1238","-1.3222656","0.32910156","-0.053710938","-66.03125","-69.65625","-169.78125"
"1537795206630","1239","-0.97753906","0.29882812","-0.21875","-86.59375","-84.28125","-181.8125"
"1537795206631","1240","-1.1396484","0.29296875","-0.26171875","-70.25","-112.0","-176.5625"
"1537795206632","1241","-1.1835938","0.27148438","-0.34570312","-46.4375","-111.5625","-173.15625"
"1537795206632","1242","-1.0839844","0.23925781","-0.32617188","-62.71875","-88.5625","-163.25"
"1537795206633","1243","-0.9121094","0.22460938","-0.3232422","-93.1875","-62.5625","-144.71875"
"1537795206633","1244","-0.8154297","0.26757812","-0.3330078","-110.40625","-40.46875","-117.125"
"1537795206829","1245","-0.9707031","0.33398438","-0.328125","-130.375","-4.03125","-54.96875"
"1537795206829","1246","-0.9736328","0.39746094","-0.37109375","-117.65625","7.3125","-28.6875"
"1537795206829","1247","-1.0107422","0.4091797","-0.40722656","-90.0625","7.9375","-7.375"
"1537795206829","1248","-0.9667969","0.4248047","-0.33984375","-60.09375","-1.71875","13.625"
"1537795206830","1249","-1.0380859","0.39941406","-0.36523438","-18.96875","-21.5","29.4375"
"1537795207026","1250","-1.4814453","0.43066406","-0.38671875","2.75","-34.125","40.125"
"1537795207027","1251","-1.2373047","0.57714844","-0.5234375","43.53125","-6.09375","55.1875"
"1537795207027","1252","-1.2060547","0.4560547","-0.26953125","99.8125","10.8125","93.15625"
"1537795207027","1253","-1.3115234","0.3466797","-0.16015625","141.5625","42.0","122.75"
"1537795207028","1254","-1.3066406","0.20410156","-0.107421875","149.65625","80.0625","139.78125"
"1537795207224","1255","-1.2431641","0.09765625","-0.0625","107.375","106.03125","154.5625"
"1537795207225","1256","-1.0527344","0.08984375","-0.13574219","62.6875","119.625","164.3125"
"1537795207225","1257","-0.9189453","0.025390625","-0.22363281","23.15625","120.4375","172.375"
"1537795207226","1258","-0.7050781","0.05078125","-0.15234375","-0.21875","108.46875","168.03125"
"1537795207226","1259","-0.57910156","0.061523438","-0.1953125","12.875","80.0625","138.125"
"1537795207423","1260","-0.4873047","0.041992188","-0.24902344","32.65625","49.25","87.09375"
"1537795207425","1261","-0.47753906","0.048828125","-0.24609375","20.46875","10.25","31.375"
"1537795207426","1262","-0.64746094","0.203125","-0.19628906","10.4375","-28.875","-18.1875"
"1537795207426","1263","-1.2011719","0.30273438","-0.09765625","-8.84375","-80.5625","-62.1875"
"1537795207426","1264","-1.4375","0.359375","-0.025390625","-48.28125","-93.3125","-116.1875"
"1537795207621","1265","-1.5527344","0.42773438","-0.040039062","-92.625","-123.34375","-158.5"
"1537795207623","1266","-1.8828125","0.60058594","-0.19726562","-131.21875","-138.0","-203.65625"
"1537795207623","1267","-1.5244141","0.6152344","-0.18359375","-112.78125","-112.125","-207.625"
"1537795207623","1268","-1.21875","0.49023438","0.0068359375","-85.3125","-76.65625","-164.0"
"1537795207625","1269","-0.9863281","0.27539062","0.036132812","-77.25","-53.28125","-120.59375"
"1537795207820","1270","-0.8828125","0.23535156","0.0","-147.75","-37.0","-88.25"
