"# PDIoT walking data"
"# Start time: 20180924T145626"
"# Group: C"
"# Subject: testCsanti"
"# Activity type: Descending stairs"
"# Sensor position: Wrist"
"# Side of body: Left"
"# Sensor mounting: Body"
"# Number of steps: 100"
"# Notes: white part up. orange sensor"
""
"timestamp","seq","accel_x","accel_y","accel_z","gyro_x","gyro_y","gyro_z"
"1537797386221","0","1.0087891","0.4375","0.09082031","41.21875","69.1875","-100.8125"
"1537797386221","1","0.9501953","0.34765625","0.05078125","62.40625","48.96875","-79.3125"
"1537797386419","2","0.84375","0.23046875","0.048828125","46.84375","29.09375","-58.875"
"1537797386421","3","0.7265625","0.234375","0.0087890625","15.40625","21.6875","-36.21875"
"1537797386421","4","0.6425781","0.26464844","-0.005859375","-2.28125","11.3125","-15.71875"
"1537797386421","5","0.5761719","0.31835938","-0.026367188","-8.34375","0.28125","1.90625"
"1537797386421","6","0.453125","0.25585938","-0.005859375","-6.25","-12.84375","4.0"
"1537797386422","7","0.44628906","0.15527344","-0.018554688","-16.40625","-18.09375","6.8125"
"1537797386423","8","0.5957031","0.20996094","-0.041992188","-34.875","-30.65625","20.03125"
"1537797386423","9","0.796875","0.30566406","0.0048828125","-55.8125","-59.90625","43.96875"
"1537797386618","10","1.0439453","0.37304688","0.026367188","-56.375","-94.03125","76.1875"
"1537797386618","11","1.7900391","0.28808594","0.076171875","-41.59375","-126.0","117.53125"
"1537797386618","12","2.0136719","0.6611328","0.43945312","-106.0","-199.4375","113.90625"
"1537797386620","13","1.0136719","0.89746094","-0.2548828","-102.375","-117.9375","162.3125"
"1537797386620","14","1.3583984","0.37402344","-0.037109375","-22.5","-31.875","165.5625"
"1537797386817","15","1.1142578","0.4267578","0.2919922","-148.78125","-72.28125","132.28125"
"1537797386818","16","0.7919922","0.6933594","0.27734375","-186.5","-107.5625","89.6875"
"1537797386818","17","0.45898438","0.80859375","0.31054688","-91.90625","-89.75","47.6875"
"1537797386818","18","0.24707031","0.453125","0.28808594","-28.15625","-40.6875","8.75"
"1537797386819","19","0.2607422","0.3359375","0.2705078","-44.90625","11.09375","-12.78125"
"1537797387015","20","0.3701172","0.36914062","0.28808594","-61.5","45.8125","-21.53125"
"1537797387016","21","0.6533203","0.43945312","0.31347656","-56.0","64.90625","-20.125"
"1537797387017","22","1.296875","0.60546875","0.41796875","-17.78125","84.875","3.1875"
"1537797387017","23","2.0136719","0.8798828","0.47265625","65.03125","53.3125","-15.21875"
"1537797387017","24","1.8886719","0.6933594","0.36523438","168.90625","66.75","-35.1875"
"1537797387213","25","2.0136719","0.17480469","0.19335938","172.375","123.5","-85.78125"
"1537797387215","26","1.4404297","0.4111328","0.036132812","50.8125","98.59375","-158.34375"
"1537797387216","27","0.9394531","0.43359375","-0.0048828125","35.71875","151.59375","-150.65625"
"1537797387216","28","1.0166016","0.74609375","0.10058594","215.78125","149.25","-123.09375"
"1537797387216","29","0.6044922","0.1953125","-0.013671875","134.25","138.21875","-154.5625"
"1537797387412","30","0.6923828","0.1640625","0.0234375","77.0","104.34375","-147.96875"
"1537797387414","31","0.5283203","0.0078125","-0.07910156","37.6875","63.21875","-126.125"
"1537797387612","32","0.50097656","0.018554688","-0.0546875","-5.71875","30.90625","-109.15625"
"1537797387612","33","0.55859375","0.057617188","0.009765625","-12.78125","-6.4375","-80.71875"
"1537797387612","34","0.8144531","0.17871094","0.013671875","-21.21875","-46.71875","-20.25"
"1537797387613","35","1.1328125","0.66308594","-0.08886719","-2.0","-105.0","68.375"
"1537797387614","36","1.4882812","0.6582031","0.140625","67.53125","-151.15625","181.78125"
"1537797387614","37","1.2353516","0.5341797","-0.23925781","52.6875","-146.6875","231.65625"
"1537797387615","38","1.5244141","0.60253906","-0.10839844","-60.40625","-73.75","270.65625"
"1537797387616","39","1.4228516","0.7167969","0.08984375","-126.0625","-101.78125","246.375"
"1537797388008","40","0.8642578","0.70410156","0.2578125","-112.71875","-139.875","152.90625"
"1537797388010","41","0.375","0.6123047","0.20800781","-56.25","-96.03125","80.59375"
"1537797388010","42","0.3984375","0.33691406","0.23828125","-36.28125","-39.59375","31.53125"
"1537797388010","43","0.5126953","0.38476562","0.23925781","-60.09375","-19.1875","8.75"
"1537797388011","44","0.5722656","0.48535156","0.2685547","-55.03125","-16.75","13.75"
"1537797388012","45","1.0","0.6035156","0.33203125","-41.40625","-13.59375","44.09375"
"1537797388013","46","1.2275391","0.96484375","0.33203125","28.96875","-11.1875","59.0625"
"1537797388013","47","1.9121094","1.125","0.36816406","166.90625","37.5625","34.28125"
"1537797388014","48","1.8525391","0.28515625","0.453125","218.59375","52.03125","-56.6875"
"1537797388208","49","0.99609375","0.4375","0.06542969","-95.3125","106.1875","-213.46875"
"1537797388209","50","0.8222656","0.5078125","0.07324219","-51.1875","161.78125","-204.75"
"1537797388209","51","0.7314453","0.50390625","-0.0029296875","58.3125","181.1875","-191.0"
"1537797388209","52","0.7763672","0.3125","0.009765625","113.3125","163.90625","-184.78125"
"1537797388210","53","0.75097656","0.036132812","-0.03125","92.9375","117.15625","-170.0625"
"1537797388606","54","0.78222656","-0.060546875","-0.1328125","26.40625","69.3125","-144.75"
"1537797388606","55","0.9013672","0.009765625","-0.06640625","-27.1875","16.875","-99.15625"
"1537797388606","56","1.2177734","0.41210938","-0.15820312","-53.8125","-71.0625","-7.40625"
"1537797388607","57","1.4492188","0.6455078","-0.005859375","6.4375","-135.46875","124.84375"
"1537797388608","58","1.1982422","0.609375","-0.17089844","47.15625","-155.5","204.9375"
"1537797388807","59","1.3662109","0.6777344","-0.22949219","16.5","-112.09375","268.40625"
"1537797388807","60","1.4160156","0.58984375","0.052734375","-41.65625","-112.875","294.03125"
"1537797388807","61","1.0429688","0.5605469","0.18554688","-119.53125","-149.875","240.75"
"1537797388808","62","0.6796875","0.7373047","0.20605469","-69.6875","-131.5625","153.34375"
"1537797388808","63","0.58496094","0.36914062","0.20898438","-20.78125","-30.1875","50.6875"
"1537797388808","64","0.5878906","0.33691406","0.21875","-49.53125","-13.625","11.8125"
"1537797388809","65","0.9404297","0.39160156","0.23144531","-73.40625","-2.65625","-3.03125"
"1537797388809","66","1.4042969","0.60058594","0.33789062","-62.65625","1.125","11.125"
"1537797388809","67","2.0136719","1.2128906","0.4326172","-32.375","-13.09375","0.21875"
"1537797389004","68","1.4970703","0.6357422","0.32421875","114.53125","15.90625","-48.6875"
"1537797389004","69","1.4541016","0.16894531","0.13378906","77.40625","97.3125","-119.71875"
"1537797389004","70","0.9824219","0.45507812","0.044921875","-14.5","127.59375","-173.96875"
"1537797389004","71","0.875","0.44726562","0.07519531","-5.21875","169.46875","-178.3125"
"1537797389005","72","0.85253906","0.4501953","0.03125","46.84375","166.34375","-186.375"
"1537797389201","73","0.890625","0.3486328","-0.049804688","99.6875","148.96875","-195.90625"
"1537797389201","74","0.9970703","0.083984375","-0.10058594","99.28125","111.84375","-209.75"
"1537797389202","75","1.1181641","-0.11230469","-0.17773438","43.25","63.3125","-208.40625"
"1537797389203","76","1.0947266","0.01171875","-0.4169922","-29.625","-23.34375","-160.5"
"1537797389599","77","1.1767578","0.17089844","-0.26757812","-63.4375","-94.875","-17.5"
"1537797389800","78","1.1777344","0.74316406","-0.057617188","-90.0","-195.46875","120.875"
"1537797389801","79","0.87890625","0.9580078","-0.3671875","-2.96875","-161.84375","213.40625"
"1537797389802","80","1.1259766","0.5957031","-0.016601562","54.71875","-130.09375","249.78125"
"1537797389803","81","1.1953125","0.43066406","0.08886719","-41.28125","-173.25","252.53125"
"1537797389803","82","1.1650391","0.4501953","0.26171875","-111.71875","-175.4375","196.5625"
"1537797389803","83","0.9892578","0.6816406","0.3330078","-148.78125","-162.0625","124.0"
"1537797389803","84","0.78125","0.7451172","0.3095703","-118.5625","-107.15625","80.71875"
"1537797389803","85","0.6777344","0.70214844","0.3310547","-82.5","-59.0625","57.40625"
"1537797389804","86","1.0361328","0.9199219","0.42285156","-19.5","-17.84375","48.71875"
"1537797389997","87","0.88671875","0.61035156","0.05078125","-50.5","141.75","-151.53125"
"1537797389997","88","1.0703125","0.73535156","-0.125","-0.9375","161.59375","-166.46875"
"1537797389998","89","1.0859375","0.5234375","-0.17578125","47.625","137.90625","-183.5"
"1537797389998","90","1.0019531","0.3017578","-0.234375","34.34375","84.5625","-190.28125"
"1537797389998","91","0.8730469","0.17382812","-0.4111328","17.1875","30.3125","-181.5"
"1537797390195","92","0.7314453","-0.12695312","-0.5234375","-3.875","-14.0625","-151.34375"
"1537797390196","93","1.0800781","0.09082031","-0.5175781","-47.65625","-83.9375","-107.40625"
"1537797390196","94","1.8681641","-0.026367188","-0.045898438","-71.9375","-162.0625","12.40625"
"1537797390197","95","2.0136719","1.0664062","0.39648438","-131.03125","-291.21875","74.375"
"1537797390197","96","1.4316406","0.89453125","0.038085938","-142.96875","-224.6875","138.8125"
"1537797390396","97","1.5039062","0.8251953","0.5136719","-87.3125","-230.1875","154.9375"
"1537797390397","98","1.1660156","0.6191406","0.47558594","-48.625","-234.46875","165.1875"
"1537797390397","99","0.7919922","0.45703125","0.5058594","-110.28125","-214.4375","130.09375"
"1537797390397","100","0.66015625","0.4169922","0.5058594","-166.34375","-164.40625","101.09375"
"1537797390397","101","0.5126953","0.59472656","0.484375","-172.8125","-130.15625","55.75"
"1537797390794","102","0.4970703","0.62597656","0.38183594","-101.84375","-71.8125","36.78125"
"1537797390794","103","0.5576172","0.50683594","0.40234375","-34.75","-46.59375","17.0"
"1537797390794","104","0.30859375","0.5722656","0.33398438","-15.21875","-34.5","10.28125"
"1537797390795","105","0.20117188","0.3857422","0.3671875","-36.0625","-4.65625","19.125"
"1537797390795","106","0.25976562","0.5546875","0.4140625","-59.5","10.96875","35.5625"
"1537797390795","107","1.0664062","0.9765625","0.40820312","7.28125","42.21875","75.78125"
"1537797390795","108","2.0136719","1.4423828","0.6308594","102.625","38.4375","59.21875"
"1537797390797","109","1.7539062","1.0878906","0.015625","157.625","118.5625","-51.4375"
"1537797390797","110","2.0136719","0.3466797","0.12792969","138.875","175.03125","-187.53125"
"1537797390991","111","1.1923828","0.62109375","-0.29492188","-22.0625","165.75","-241.4375"
"1537797390991","112","1.2060547","0.40820312","-0.119140625","4.0625","181.96875","-210.375"
"1537797390991","113","1.1132812","0.21386719","-0.12011719","6.5625","126.6875","-206.625"
"1537797390991","114","0.9814453","0.05859375","-0.16796875","20.28125","75.21875","-202.0625"
"1537797391189","115","0.8066406","0.0048828125","-0.12597656","22.84375","9.96875","-195.84375"
"1537797391189","116","0.55371094","-0.029296875","-0.18359375","34.4375","-43.96875","-163.0"
"1537797391192","117","0.4267578","-0.1171875","-0.23632812","25.90625","-89.09375","-111.1875"
"1537797391192","118","0.34179688","-0.06933594","-0.19824219","-11.625","-152.75","-39.53125"
"1537797391193","119","0.4453125","0.25195312","-0.10546875","-44.78125","-236.84375","95.5"
"1537797391193","120","1.0732422","0.859375","0.63378906","-120.65625","-309.71875","249.40625"
"1537797391390","121","1.359375","1.6582031","0.49609375","-121.4375","-327.375","225.4375"
"1537797391390","122","0.85058594","1.3955078","0.20410156","51.53125","-204.25","246.84375"
"1537797391390","123","1.1201172","1.0507812","0.109375","93.46875","-125.75","286.84375"
"1537797391390","124","0.9355469","0.7597656","0.20800781","88.84375","-106.40625","260.15625"
"1537797391390","125","0.7402344","0.45996094","0.16503906","-35.25","-111.65625","180.9375"
"1537797391588","126","0.58691406","0.484375","0.23828125","-113.8125","-85.53125","95.5625"
"1537797391589","127","0.63378906","0.7158203","0.328125","-144.3125","-61.3125","52.21875"
"1537797391589","128","0.98535156","0.8857422","0.40234375","-93.25","-33.125","47.03125"
"1537797391589","129","1.5117188","1.0224609","0.55078125","-7.125","-5.78125","42.25"
"1537797391590","130","1.5087891","0.9316406","0.31152344","20.28125","11.75","-25.375"
"1537797391787","131","1.4472656","0.5566406","0.29101562","8.3125","115.75","-75.28125"
"1537797391788","132","1.5839844","0.9013672","0.15820312","-50.15625","132.125","-141.8125"
"1537797391984","133","1.0927734","0.7832031","0.10449219","-22.1875","165.125","-170.875"
"1537797391985","134","0.8779297","0.6269531","0.0703125","14.125","183.9375","-189.5"
"1537797391985","135","0.8310547","0.5390625","-0.087890625","51.21875","170.875","-185.40625"
"1537797391986","136","0.6816406","0.22949219","-0.09863281","56.25","134.8125","-179.28125"
"1537797391986","137","0.5371094","0.13574219","-0.19140625","-0.28125","83.40625","-165.75"
"1537797391987","138","0.47558594","0.11425781","-0.4423828","-4.84375","57.59375","-144.875"
"1537797391987","139","0.60253906","-0.024414062","-0.40527344","8.03125","2.84375","-91.90625"
"1537797391988","140","0.7753906","0.27539062","-0.39941406","-45.5625","-87.1875","-53.3125"
"1537797392183","141","1.6015625","0.3203125","0.14550781","-30.25","-170.4375","46.46875"
"1537797392183","142","2.0136719","0.9921875","0.78125","-91.90625","-309.84375","88.40625"
"1537797392185","143","1.3173828","1.1142578","-0.1953125","-113.5625","-280.84375","108.96875"
"1537797392186","144","1.484375","0.6015625","0.3671875","-37.28125","-177.75","188.1875"
"1537797392187","145","1.5400391","1.1464844","0.6435547","-99.53125","-237.75","135.03125"
"1537797392383","146","0.9140625","0.5078125","0.5253906","-119.0","-212.125","141.75"
"1537797392384","147","0.56152344","0.53027344","0.5332031","-109.34375","-174.40625","83.03125"
"1537797392581","148","0.5449219","0.51660156","0.42285156","-131.09375","-105.9375","50.0625"
"1537797392581","149","0.44433594","0.50097656","0.2783203","-79.4375","-54.65625","29.4375"
"1537797392581","150","0.56640625","0.3857422","0.3359375","-48.5625","-20.46875","8.5625"
"1537797392582","151","0.38183594","0.45703125","0.296875","-71.5625","-31.09375","7.09375"
"1537797392583","152","0.27441406","0.453125","0.2763672","-78.84375","-28.59375","9.84375"
"1537797392583","153","0.37402344","0.58984375","0.33984375","-40.25","-5.9375","22.3125"
"1537797392584","154","0.96777344","0.5908203","0.4345703","43.3125","26.59375","49.40625"
"1537797392584","155","2.0136719","1.3828125","0.4892578","62.03125","31.71875","77.96875"
"1537797392782","156","1.7119141","1.3310547","0.23339844","183.8125","63.6875","22.125"
"1537797392782","157","1.9882812","0.14453125","0.46484375","281.8125","183.1875","-93.125"
"1537797392782","158","1.7304688","0.07910156","0.12597656","120.25","136.09375","-215.375"
"1537797392782","159","1.1855469","0.4296875","-0.036132812","-2.90625","139.25","-216.84375"
"1537797392782","160","0.8701172","0.46289062","-0.029296875","-22.4375","160.625","-189.4375"
"1537797392977","161","0.83691406","0.40625","0.017578125","25.78125","171.90625","-177.875"
"1537797392978","162","0.87890625","0.19628906","0.02734375","70.03125","149.09375","-184.1875"
"1537797392978","163","0.7363281","0.01953125","-0.05078125","54.03125","99.21875","-189.96875"
"1537797392979","164","0.6923828","0.044921875","-0.13085938","13.9375","58.5","-172.40625"
"1537797392980","165","0.6152344","0.099609375","-0.15429688","11.8125","10.15625","-140.28125"
"1537797393176","166","0.76660156","0.18164062","-0.2783203","10.875","-40.6875","-76.5625"
"1537797393177","167","1.1171875","0.23828125","-0.17285156","2.15625","-126.4375","27.375"
"1537797393178","168","1.3623047","0.9042969","0.57128906","-16.875","-276.40625","172.21875"
"1537797393179","169","0.8222656","1.2402344","-0.14648438","-2.96875","-298.5","280.3125"
"1537797393179","170","1.1894531","0.9667969","-0.16015625","24.875","-141.75","321.4375"
"1537797393376","171","1.4501953","0.5263672","0.3095703","-24.4375","-121.625","319.84375"
"1537797393376","172","1.2822266","0.5546875","0.46875","-100.8125","-189.71875","255.21875"
"1537797393376","173","0.8251953","0.7841797","0.390625","-96.40625","-185.09375","166.40625"
"1537797393378","174","0.546875","0.8535156","0.33496094","-43.4375","-107.625","133.375"
"1537797393378","175","0.49121094","0.74609375","0.41601562","18.75","-48.75","94.09375"
"1537797393775","176","0.890625","0.671875","0.37597656","61.125","11.03125","70.15625"
"1537797393775","177","1.9648438","0.8691406","0.49414062","97.25","40.4375","68.03125"
"1537797393972","178","2.0136719","1.1455078","0.5341797","129.53125","-13.15625","-8.21875"
"1537797393972","179","1.6269531","-0.09472656","0.33984375","103.71875","18.90625","-127.71875"
"1537797393973","180","0.7734375","0.41015625","0.053710938","-107.09375","110.625","-213.34375"
"1537797393973","181","0.89160156","0.5546875","0.15332031","-99.34375","211.6875","-236.90625"
"1537797393975","182","1.0273438","0.6298828","0.140625","13.34375","252.96875","-257.59375"
"1537797393975","183","1.3300781","0.44433594","0.09375","114.40625","234.65625","-283.1875"
"1537797393975","184","1.2529297","0.125","9.765625E-4","108.3125","165.8125","-288.78125"
"1537797393976","185","1.0185547","0.18554688","-0.45214844","7.09375","25.25","-196.25"
"1537797393977","186","1.1621094","-0.27148438","-0.15820312","-21.9375","-72.78125","-49.84375"
"1537797394172","187","0.96875","0.5576172","0.34179688","-120.53125","-205.15625","116.90625"
"1537797394172","188","1.1318359","0.42773438","0.44726562","111.65625","-109.46875","340.125"
"1537797394173","189","1.0712891","0.25390625","0.45703125","2.78125","-170.9375","276.40625"
"1537797394173","190","0.7607422","0.61816406","0.24023438","-50.6875","-151.59375","191.125"
"1537797394174","191","0.69140625","0.73535156","0.2529297","-34.53125","-69.71875","153.71875"
"1537797394174","192","0.79296875","0.7734375","0.35546875","-14.8125","-17.84375","105.625"
"1537797394369","193","1.1318359","0.65527344","0.3388672","22.90625","17.5","55.25"
"1537797394370","194","2.0136719","1.0537109","0.36914062","44.03125","33.40625","31.53125"
"1537797394370","195","1.9511719","1.0136719","0.42285156","101.875","-8.625","-26.15625"
"1537797394568","196","1.5332031","-0.08691406","0.3095703","12.78125","1.4375","-141.34375"
"1537797394568","197","1.0175781","0.5234375","0.20117188","-162.75","70.46875","-211.15625"
"1537797394569","198","0.7890625","0.57421875","0.22558594","-150.6875","140.96875","-217.1875"
"1537797394569","199","0.8017578","0.7529297","0.16308594","-50.03125","189.71875","-198.15625"
"1537797394570","200","0.8769531","0.6074219","0.1171875","102.375","190.09375","-187.40625"
"1537797394570","201","1.0625","0.27148438","0.048828125","160.3125","161.34375","-185.6875"
"1537797394571","202","1.0400391","-0.0703125","0.04296875","94.3125","83.46875","-190.65625"
"1537797394965","203","0.8251953","-0.03125","-0.107421875","4.65625","24.125","-172.9375"
"1537797394965","204","0.8105469","0.060546875","-0.107421875","-40.09375","-17.96875","-120.28125"
"1537797394967","205","0.96484375","0.1171875","-0.01953125","-47.40625","-68.6875","-17.25"
"1537797394967","206","1.0869141","0.72753906","0.42871094","-67.46875","-149.9375","132.34375"
"1537797394968","207","0.7050781","0.8515625","-0.020507812","-79.03125","-180.5","269.1875"
"1537797394968","208","1.0068359","1.28125","-0.026367188","90.0625","-91.75","316.9375"
"1537797394968","209","0.96777344","0.8125","0.24121094","187.8125","-33.90625","329.25"
"1537797394970","210","1.0322266","0.5136719","0.31445312","138.4375","-55.8125","272.0"
"1537797394970","211","0.8222656","0.56152344","0.23046875","43.65625","-77.65625","187.28125"
"1537797395362","212","0.66015625","0.4580078","0.13867188","-10.53125","-48.75","114.78125"
"1537797395363","213","0.6298828","0.5566406","0.09375","-45.75","-8.6875","55.4375"
"1537797395364","214","0.828125","0.5810547","0.15917969","-31.53125","25.3125","23.21875"
"1537797395366","215","1.1074219","0.6328125","0.13476562","-16.75","20.125","-9.3125"
"1537797395366","216","1.8427734","0.44433594","0.18554688","15.03125","23.40625","-22.96875"
"1537797395366","217","2.0136719","0.625","0.4638672","-30.625","-43.5","-98.0625"
"1537797395366","218","1.5986328","0.38085938","0.21972656","-51.0625","-33.78125","-155.625"
"1537797395367","219","0.98535156","0.42285156","0.07910156","-88.46875","54.78125","-189.78125"
"1537797395368","220","0.79589844","0.5527344","0.0146484375","-74.125","148.03125","-172.34375"
"1537797395561","221","0.7392578","0.4814453","0.021484375","44.21875","146.75","-137.5"
"1537797395562","222","0.7841797","0.19824219","0.0029296875","67.71875","98.71875","-151.46875"
"1537797395563","223","0.7841797","-0.10058594","-0.026367188","41.21875","37.03125","-180.15625"
"1537797395760","224","0.65234375","-0.080078125","-0.021484375","-20.1875","-22.75","-195.90625"
"1537797395761","225","0.61816406","0.12207031","-0.115234375","-41.125","-58.5","-160.9375"
"1537797395761","226","0.7138672","0.3798828","-0.15136719","-46.59375","-100.625","-87.375"
"1537797395965","227","1.1386719","0.62597656","0.38378906","-51.125","-166.21875","55.4375"
"1537797396157","228","0.9433594","0.71972656","0.421875","-53.25","-235.5625","180.8125"
"1537797396159","229","0.75683594","0.8359375","-0.140625","-61.75","-167.09375","233.4375"
"1537797396159","230","1.1738281","0.8330078","0.09375","5.4375","-85.90625","281.71875"
"1537797396160","231","1.34375","0.6533203","0.3984375","-8.78125","-95.125","301.46875"
"1537797396161","232","1.0087891","0.59472656","0.40625","-21.15625","-144.875","231.84375"
"1537797396162","233","0.6669922","0.61816406","0.22851562","-12.8125","-106.78125","165.125"
"1537797396162","234","0.734375","0.359375","0.22753906","-40.5625","-32.9375","120.15625"
"1537797396162","235","0.79785156","0.41992188","0.20605469","-121.6875","-2.53125","64.0"
"1537797396162","236","0.9375","0.6171875","0.23632812","-158.96875","21.21875","37.375"
"1537797396356","237","1.6269531","0.5722656","-0.11621094","6.25","62.90625","-197.0"
"1537797396356","238","1.4072266","0.4345703","-0.045898438","-7.0625","85.65625","-228.3125"
"1537797396357","239","1.1347656","0.38867188","-0.0546875","-5.53125","94.8125","-241.25"
"1537797396358","240","1.0732422","0.3154297","-0.030273438","15.21875","89.25","-242.28125"
"1537797396359","241","0.90722656","0.19238281","0.016601562","8.3125","70.15625","-230.4375"
"1537797396555","242","0.83984375","0.07714844","-0.03515625","-18.96875","45.3125","-212.75"
"1537797396556","243","0.82714844","9.765625E-4","-0.030273438","-41.53125","11.4375","-184.96875"
"1537797396556","244","0.8388672","9.765625E-4","-0.10644531","-62.96875","-37.375","-141.625"
"1537797396556","245","0.9121094","0.08691406","0.0546875","-82.75","-106.0625","-60.40625"
"1537797396557","246","1.1738281","0.6308594","0.12109375","-51.0625","-168.5","52.21875"
"1537797396754","247","1.1074219","0.87890625","-0.103515625","73.875","-197.1875","168.65625"
"1537797396954","248","1.1826172","0.5","0.083984375","189.59375","-153.71875","257.15625"
"1537797396954","249","1.2490234","0.07519531","0.20214844","6.3125","-180.8125","285.1875"
"1537797396955","250","1.2216797","0.33398438","0.19335938","-230.75","-191.625","261.5625"
"1537797396955","251","1.1923828","0.546875","0.37109375","-269.15625","-197.65625","199.1875"
"1537797396956","252","0.8857422","0.6923828","0.47558594","-210.71875","-191.1875","132.03125"
"1537797396956","253","0.50097656","0.7519531","0.36621094","-117.15625","-145.15625","93.59375"
"1537797396956","254","0.4580078","0.5527344","0.37304688","-12.375","-67.65625","76.6875"
"1537797396956","255","0.4814453","0.4921875","0.3486328","18.5","-32.5625","58.5"
"1537797396958","256","0.609375","0.49902344","0.27246094","26.4375","1.0","57.15625"
"1537797397151","257","1.1279297","0.61035156","0.26953125","35.78125","21.875","57.03125"
"1537797397151","258","2.0136719","1.0888672","0.4560547","63.4375","45.375","56.59375"
"1537797397152","259","1.6005859","0.79589844","0.24804688","122.40625","15.46875","-51.0"
"1537797397153","260","1.4970703","-0.17480469","0.015625","103.71875","110.25","-188.5"
"1537797397154","261","1.3466797","0.37695312","-0.009765625","-64.625","171.59375","-263.65625"
"1537797397350","262","1.1542969","0.6191406","0.01171875","-76.8125","205.125","-256.875"
"1537797397351","263","1.1005859","0.6308594","-0.0390625","-12.75","226.15625","-237.40625"
"1537797397352","264","1.1386719","0.41308594","-0.06933594","67.28125","207.71875","-239.96875"
"1537797397353","265","1.1191406","-0.018554688","-0.061523438","66.90625","142.625","-255.03125"
"1537797397354","266","0.8564453","-0.07421875","-0.13574219","-2.90625","61.96875","-256.25"
"1537797397550","267","0.78515625","0.057617188","-0.36523438","-4.625","1.8125","-206.09375"
"1537797397551","268","0.97753906","0.1015625","-0.31640625","-33.1875","-80.46875","-83.59375"
"1537797397551","269","1.015625","0.92578125","0.3330078","-56.1875","-220.0","116.59375"
"1537797397551","270","0.71777344","1.3164062","-0.35351562","100.53125","-201.4375","257.53125"
"1537797397552","271","0.85058594","1.0957031","-0.107421875","111.28125","-96.53125","285.5"
"1537797397750","272","0.78808594","0.60058594","0.14648438","112.75","-81.28125","269.25"
"1537797397750","273","0.81640625","0.38183594","0.091796875","-7.0","-123.125","205.84375"
"1537797397947","274","0.7441406","0.46875","0.12792969","-131.3125","-130.09375","173.3125"
"1537797397948","275","0.7314453","0.49804688","0.25195312","-162.15625","-131.9375","138.8125"
"1537797397949","276","0.7792969","0.51464844","0.28027344","-121.3125","-110.75","118.375"
"1537797397949","277","1.1298828","0.5625","0.30566406","-76.59375","-85.59375","99.15625"
"1537797397949","278","1.7294922","0.8222656","0.32421875","-24.40625","-49.09375","102.1875"
"1537797397951","279","2.0136719","1.0244141","0.36523438","32.90625","-48.0625","53.96875"
"1537797397951","280","1.2294922","0.6064453","0.13867188","37.3125","-3.3125","-17.0"
"1537797397951","281","0.89746094","0.39648438","0.059570312","-82.0625","93.78125","-114.34375"
"1537797398146","282","1.0507812","0.890625","0.0625","-139.09375","155.0","-169.15625"
"1537797398146","283","0.9765625","0.77734375","0.09082031","-55.53125","175.09375","-194.5"
"1537797398146","284","0.96777344","0.7832031","-0.00390625","12.34375","150.46875","-187.59375"
"1537797398346","285","0.8066406","0.45703125","-0.0859375","72.09375","113.5","-172.75"
"1537797398347","286","0.66308594","0.15527344","-0.14941406","43.78125","72.71875","-158.1875"
"1537797398347","287","0.44628906","0.0029296875","-0.1640625","-28.59375","30.0625","-141.875"
"1537797398347","288","0.43164062","0.25976562","-0.203125","-54.78125","-5.65625","-103.625"
"1537797398348","289","0.8105469","0.40722656","-0.37597656","4.46875","-39.15625","-43.0"
"1537797398349","290","1.5791016","0.50390625","-0.024414062","37.0625","-120.625","47.15625"
"1537797398349","291","1.828125","1.0","9.765625E-4","84.625","-222.9375","109.65625"
"1537797398543","292","1.2255859","0.35546875","-0.4248047","-7.3125","-158.90625","164.28125"
"1537797398543","293","1.4912109","0.5175781","-0.015625","-138.96875","-102.03125","191.96875"
"1537797398544","294","1.2460938","0.64160156","0.23828125","-222.03125","-160.78125","183.125"
"1537797398544","295","0.7294922","0.6542969","0.19726562","-172.96875","-175.375","125.34375"
"1537797398545","296","0.5703125","0.5576172","0.23730469","-88.65625","-132.21875","95.5"
"1537797398744","297","0.5732422","0.50683594","0.29101562","-87.6875","-106.84375","82.375"
"1537797398744","298","0.5732422","0.49121094","0.2685547","-72.625","-84.3125","71.5625"
"1537797398941","299","0.8769531","0.5859375","0.30371094","-39.96875","-55.375","71.8125"
"1537797398941","300","1.0566406","0.6611328","0.2939453","-28.0625","-47.5","78.75"
"1537797398942","301","1.2558594","0.62597656","0.2783203","-23.0","-14.0","77.1875"
"1537797398942","302","1.3261719","0.83496094","0.22265625","-48.875","10.53125","58.0625"
"1537797398945","303","1.2392578","1.3808594","-0.0146484375","6.71875","54.59375","32.75"
"1537797398945","304","1.1826172","0.7578125","0.08691406","154.625","128.75","-41.84375"
"1537797398945","305","1.6083984","0.46484375","-0.051757812","141.0625","126.5625","-135.46875"
"1537797398945","306","1.5966797","0.4658203","-0.13476562","75.875","112.40625","-184.0"
"1537797399339","307","1.2734375","0.375","-0.041992188","31.21875","117.21875","-216.84375"
"1537797399340","308","1.2353516","0.28125","-0.041015625","26.6875","130.53125","-234.34375"
"1537797399340","309","1.2001953","0.13574219","0.0146484375","14.1875","114.09375","-239.53125"
"1537797399341","310","1.0068359","0.111328125","0.051757812","-25.25","73.53125","-229.40625"
"1537797399341","311","0.73828125","0.11230469","0.01171875","-27.75","52.15625","-206.09375"
"1537797399341","312","0.6484375","0.08984375","-0.064453125","-1.875","53.8125","-170.6875"
"1537797399343","313","0.5390625","-0.0068359375","-0.025390625","37.125","23.71875","-143.59375"
"1537797399343","314","0.50683594","-0.12109375","-0.072265625","30.34375","-15.34375","-101.46875"
"1537797399344","315","0.390625","0.030273438","-0.11621094","11.5","-64.375","-46.78125"
"1537797399738","316","0.9091797","0.5810547","0.09472656","24.90625","-196.0625","173.96875"
"1537797399740","317","1.7324219","0.56347656","0.3857422","-24.34375","-238.625","337.125"
"1537797399740","318","1.6337891","1.6328125","-0.11425781","-182.0625","-208.09375","331.5"
"1537797399740","319","1.265625","1.3798828","-0.1015625","34.8125","-93.71875","363.96875"
"1537797399740","320","1.4052734","0.7236328","0.19335938","94.5","-77.71875","323.9375"
"1537797399740","321","1.03125","0.6279297","0.21484375","16.4375","-132.84375","228.46875"
"1537797399740","322","0.58984375","0.7832031","0.12792969","-51.5625","-95.5","140.90625"
"1537797399740","323","0.5048828","0.72558594","0.2109375","-52.15625","-34.5","80.09375"
"1537797399741","324","0.84277344","0.73828125","0.21386719","-21.28125","11.3125","29.4375"
"1537797399935","325","1.5615234","0.7451172","0.28710938","35.0625","21.9375","7.59375"
"1537797399935","326","2.0136719","0.83203125","0.4873047","37.8125","-21.75","-48.375"
"1537797399936","327","1.4619141","0.359375","0.21191406","16.5","-13.28125","-128.5625"
"1537797399936","328","1.1953125","0.11035156","0.17480469","-87.625","78.8125","-212.9375"
"1537797399937","329","1.0712891","0.5527344","0.13867188","-136.6875","146.9375","-247.09375"
"1537797399937","330","1.0302734","0.69140625","0.10839844","-39.21875","177.53125","-233.8125"
"1537797400135","331","1.0556641","0.5673828","-0.0068359375","62.34375","171.0625","-217.9375"
"1537797400135","332","1.0009766","0.23535156","-0.056640625","109.40625","147.84375","-215.71875"
"1537797400135","333","0.9121094","-0.09472656","-0.060546875","50.8125","96.28125","-221.09375"
"1537797400135","334","0.80078125","-0.013671875","-0.1875","-34.09375","41.71875","-197.375"
"1537797400334","335","0.74902344","0.35058594","-0.3466797","-24.53125","-17.4375","-129.1875"
"1537797400335","336","0.7939453","0.23046875","-0.3154297","43.59375","-71.3125","0.9375"
"1537797400336","337","0.95214844","0.6513672","-0.07324219","32.0625","-130.59375","152.875"
"1537797400336","338","1.0527344","0.8623047","-0.37890625","16.0625","-120.5625","299.65625"
"1537797400336","339","1.1689453","0.6689453","-0.099609375","32.625","-68.4375","309.71875"
"1537797400530","340","1.1699219","0.7207031","-9.765625E-4","-25.375","-97.0","285.5625"
"1537797400531","341","0.90722656","0.71484375","0.056640625","-23.78125","-103.65625","258.28125"
"1537797400532","342","0.7548828","0.6640625","0.1953125","2.34375","-89.09375","199.625"
"1537797400535","343","0.7363281","0.7529297","0.19433594","21.875","-64.125","139.6875"
"1537797400535","344","0.7607422","0.73535156","0.21582031","59.46875","-27.5625","95.625"
"1537797400728","345","1.140625","0.7832031","0.18945312","56.0","-1.75","54.34375"
"1537797400730","346","1.6132812","1.0253906","0.11035156","63.375","18.15625","23.40625"
"1537797400730","347","2.0136719","0.546875","0.3984375","76.625","7.125","-56.3125"
"1537797400730","348","1.5869141","0.14746094","0.19628906","-45.09375","4.3125","-180.6875"
"1537797400927","349","1.2685547","0.38964844","0.12988281","-173.5","71.125","-236.90625"
"1537797400929","350","0.8691406","0.7089844","0.051757812","-171.0625","128.5625","-223.46875"
"1537797400929","351","0.8828125","0.6542969","0.0703125","-28.375","176.53125","-195.15625"
"1537797400930","352","0.8720703","0.5214844","0.083984375","87.65625","165.6875","-191.9375"
"1537797400931","353","0.859375","0.22460938","0.013671875","126.84375","127.09375","-195.90625"
"1537797400931","354","0.8564453","-0.056640625","-0.07714844","95.84375","83.53125","-205.59375"
"1537797401126","355","0.75390625","-0.12792969","-0.107421875","13.875","30.90625","-202.4375"
"1537797401128","356","0.79785156","0.0107421875","-0.16894531","-44.15625","-17.65625","-160.4375"
"1537797401129","357","0.8339844","0.19042969","-0.33789062","-43.9375","-72.40625","-64.3125"
"1537797401129","358","0.92871094","0.5019531","0.123046875","-50.21875","-180.75","99.46875"
"1537797401129","359","0.6826172","1.3310547","-0.2421875","31.5625","-194.4375","278.46875"
"1537797401325","360","0.8847656","0.82714844","-0.20703125","134.84375","-52.53125","354.28125"
"1537797401326","361","1.4892578","0.5341797","-0.018554688","50.0","-41.46875","373.8125"
"1537797401326","362","1.3691406","0.84375","0.016601562","-43.75","-100.1875","321.3125"
"1537797401327","363","1.0205078","0.84472656","0.23144531","-49.40625","-126.75","231.59375"
"1537797401327","364","0.65722656","0.7548828","0.2734375","-5.65625","-99.09375","135.15625"
"1537797401524","365","0.64746094","0.58984375","0.25390625","-23.375","-33.53125","66.4375"
"1537797401524","366","0.8222656","0.59765625","0.28027344","-43.3125","5.78125","23.34375"
"1537797401723","367","1.0039062","0.77246094","0.21484375","-30.3125","15.71875","-6.9375"
"1537797401723","368","1.4726562","0.55566406","0.28808594","37.375","43.0625","-21.09375"
"1537797401723","369","2.0136719","0.73046875","0.43164062","31.75","18.34375","-79.5"
"1537797401725","370","1.7548828","0.16894531","0.21875","-12.375","29.6875","-163.3125"
"1537797401725","371","1.1708984","0.41796875","0.1171875","-128.03125","95.3125","-212.375"
"1537797401725","372","0.95214844","0.7294922","0.056640625","-111.25","157.5625","-190.34375"
"1537797401726","373","0.84472656","0.6972656","-0.044921875","21.3125","186.96875","-160.96875"
"1537797401727","374","0.84765625","0.4404297","-0.109375","113.59375","179.03125","-149.3125"
"1537797401921","375","0.90625","0.14160156","-0.057617188","98.96875","124.125","-160.625"
"1537797401922","376","0.8125","-0.0234375","-0.13671875","43.0625","50.09375","-177.21875"
"1537797401922","377","0.6611328","-0.01953125","-0.17871094","24.5","-0.21875","-179.53125"
"1537797401924","378","0.57421875","-0.029296875","-0.31445312","6.90625","-43.59375","-142.6875"
"1537797401924","379","0.7109375","0.2109375","-0.25195312","-29.65625","-98.34375","-48.0625"
"1537797402120","380","0.9169922","0.65722656","-0.0029296875","-28.90625","-172.6875","103.375"
"1537797402120","381","1.2666016","1.1738281","0.0859375","79.25","-189.71875","253.15625"
"1537797402122","382","1.0185547","0.79785156","-0.36914062","72.15625","-91.9375","324.3125"
"1537797402122","383","1.3154297","0.9345703","-0.10253906","-14.25","-18.84375","330.03125"
"1537797402122","384","1.2607422","0.67578125","0.045898438","-20.84375","-58.8125","290.875"
"1537797402319","385","0.9472656","0.58984375","0.19921875","-66.9375","-108.0625","209.0625"
"1537797402320","386","0.65234375","0.54003906","0.1875","-75.40625","-100.3125","126.8125"
"1537797402320","387","0.58203125","0.48535156","0.17871094","-80.4375","-58.6875","70.03125"
"1537797402321","388","0.5996094","0.5341797","0.15722656","-87.15625","-24.03125","33.125"
"1537797402321","389","0.93847656","0.56640625","0.19726562","-65.90625","2.53125","9.5625"
"1537797402518","390","1.2392578","0.83691406","0.15917969","-21.78125","2.03125","-0.15625"
"1537797402518","391","1.7246094","0.7060547","0.17871094","46.03125","18.40625","-15.65625"
"1537797402519","392","2.0136719","0.68359375","0.1015625","54.03125","18.9375","-60.46875"
"1537797402520","393","1.2832031","0.3125","-9.765625E-4","-19.5625","36.53125","-143.46875"
"1537797402520","394","0.94140625","0.3564453","-0.040039062","-82.875","115.75","-193.03125"
"1537797402717","395","1.0400391","0.7392578","9.765625E-4","-39.65625","161.46875","-200.53125"
"1537797402719","396","1.0253906","0.69433594","0.020507812","66.25","159.875","-186.0625"
"1537797402719","397","1.1035156","0.56347656","-0.05859375","102.375","136.8125","-171.53125"
"1537797402720","398","0.78125","0.22460938","-0.07910156","81.3125","94.5625","-172.8125"
"1537797402720","399","0.50878906","0.18164062","-0.14746094","33.9375","66.625","-164.40625"
"1537797402917","400","0.3486328","0.01171875","-0.20996094","0.0625","53.25","-140.28125"
"1537797402918","401","0.234375","0.16992188","-0.20996094","-43.375","20.0","-94.5"
"1537797402918","402","0.3408203","0.4033203","-0.26660156","-14.8125","-8.28125","-13.65625"
"1537797402918","403","0.81933594","0.5","-0.24023438","18.3125","-47.75","69.1875"
"1537797402918","404","1.7128906","0.6123047","0.2109375","39.5625","-121.125","188.75"
"1537797403114","405","2.0136719","0.7480469","0.087890625","43.15625","-204.5","217.625"
"1537797403115","406","1.9345703","0.27441406","-0.08300781","-43.0625","-142.125","217.25"
"1537797403115","407","1.8300781","0.45117188","0.08886719","-180.71875","-122.59375","201.9375"
"1537797403116","408","1.3515625","0.5888672","0.33691406","-301.6875","-151.40625","177.40625"
"1537797403116","409","0.7988281","0.71875","0.28515625","-302.0","-165.6875","105.125"
"1537797403315","410","0.60253906","0.4638672","0.31640625","-172.15625","-134.5","66.1875"
"1537797403316","411","0.5673828","0.35253906","0.38964844","-161.46875","-130.40625","28.78125"
"1537797403317","412","0.56640625","0.49902344","0.33203125","-163.0625","-114.34375","19.3125"
"1537797403710","413","0.7841797","0.49023438","0.3984375","-126.3125","-89.09375","29.875"
"1537797403713","414","1.0175781","0.68359375","0.4296875","-99.03125","-80.15625","51.34375"
"1537797403713","415","0.9628906","0.85253906","0.33496094","-43.5","-53.8125","79.125"
"1537797403713","416","1.1953125","0.7470703","0.27734375","6.59375","5.78125","85.71875"
"1537797403713","417","1.3027344","0.86621094","0.171875","27.25","52.875","56.0625"
"1537797403713","418","1.4111328","0.8125","0.12597656","48.34375","100.1875","10.78125"
"1537797403714","419","1.1425781","0.6201172","0.083984375","58.0","115.375","-68.03125"
"1537797403715","420","1.3515625","0.6035156","0.030273438","95.0625","140.46875","-116.90625"
"1537797403716","421","1.4052734","0.54589844","0.047851562","121.78125","152.4375","-143.90625"
"1537797403910","422","1.3759766","0.3330078","0.06738281","100.40625","141.21875","-168.6875"
"1537797403910","423","0.9423828","0.07128906","0.052734375","-31.53125","70.46875","-200.15625"
"1537797403910","424","0.7597656","0.0625","0.053710938","-58.8125","41.28125","-175.9375"
"1537797403910","425","0.6386719","0.20800781","9.765625E-4","-62.96875","14.1875","-135.34375"
"1537797403912","426","0.5605469","0.25097656","-0.041992188","-7.375","-10.84375","-89.21875"
"1537797403913","427","0.42285156","0.07324219","-0.025390625","35.28125","-45.0625","-55.40625"
"1537797404108","428","0.42578125","0.078125","-0.01953125","29.3125","-77.53125","-14.8125"
"1537797404109","429","0.46679688","0.15820312","0.07324219","7.09375","-126.9375","26.40625"
"1537797404109","430","0.5449219","0.45898438","0.09765625","18.3125","-171.46875","71.125"
"1537797404109","431","0.8876953","0.7949219","0.19726562","69.15625","-198.46875","132.28125"
"1537797404110","432","1.6640625","0.55371094","0.2998047","96.75","-190.03125","241.3125"
"1537797404307","433","2.0136719","0.97265625","0.2763672","-103.125","-209.625","279.03125"
"1537797404309","434","1.484375","1.1748047","-0.22558594","-186.9375","-102.4375","310.34375"
"1537797404309","435","1.53125","1.2626953","-0.12207031","-97.46875","-2.15625","283.96875"
"1537797404309","436","0.9951172","0.9794922","0.26757812","20.46875","-28.71875","205.96875"
"1537797404309","437","0.41015625","0.41992188","0.21972656","42.25","-67.28125","100.0"
"1537797404506","438","0.3125","0.27441406","0.119140625","6.375","-34.6875","17.78125"
"1537797404506","439","0.37402344","0.30566406","0.111328125","-57.84375","-7.90625","-20.59375"
"1537797404506","440","0.43066406","0.5488281","0.19042969","-103.5625","0.34375","-26.875"
"1537797404507","441","0.51660156","0.68066406","0.21582031","-64.1875","10.46875","-9.1875"
"1537797404507","442","0.8828125","0.6972656","0.22753906","23.34375","23.34375","2.84375"
"1537797404705","443","1.8271484","0.6328125","0.28222656","113.125","54.40625","14.3125"
"1537797404705","444","2.0136719","0.5527344","0.44140625","133.5","11.5625","-64.125"
"1537797404706","445","1.8154297","0.1640625","0.12402344","82.78125","12.40625","-164.40625"
"1537797404707","446","1.2900391","0.021484375","-0.049804688","-30.8125","89.4375","-245.09375"
"1537797404707","447","1.0126953","0.36523438","0.048828125","-118.03125","149.1875","-257.25"
"1537797404905","448","0.9160156","0.61035156","0.06347656","-98.0","156.21875","-225.625"
"1537797404905","449","0.80566406","0.53027344","-0.046875","-5.71875","146.40625","-193.75"
"1537797404905","450","0.78125","0.13183594","-0.08105469","51.40625","107.875","-194.84375"
"1537797404906","451","0.7011719","0.03125","-0.072265625","28.40625","47.28125","-186.3125"
"1537797404907","452","0.5908203","0.17285156","-0.12988281","11.78125","-13.21875","-150.78125"
"1537797405102","453","0.55371094","0.25976562","-0.14550781","14.0","-68.28125","-86.03125"
"1537797405102","454","0.62109375","0.34472656","-0.057617188","23.75","-126.75","8.03125"
"1537797405102","455","0.7421875","0.5722656","0.26953125","24.125","-181.4375","134.0"
"1537797405103","456","0.82910156","0.50878906","0.17285156","-56.75","-175.4375","226.59375"
"1537797405104","457","0.9746094","1.1962891","0.01171875","-76.875","-126.875","260.09375"
"1537797405499","458","0.8486328","0.5839844","0.06933594","22.40625","-68.625","272.84375"
"1537797405698","459","1.2919922","0.17773438","0.36914062","-40.03125","-72.25","249.28125"
"1537797405698","460","1.1376953","0.36816406","0.39941406","-154.78125","-140.34375","183.75"
"1537797405699","461","0.92285156","0.53222656","0.33984375","-161.1875","-115.4375","131.0"
"1537797405701","462","0.91796875","0.51464844","0.40039062","-117.28125","-67.09375","94.15625"
"1537797405702","463","0.94628906","0.61035156","0.35351562","-87.21875","-19.6875","79.8125"
"1537797405702","464","1.3603516","0.5019531","0.49414062","-62.84375","5.40625","63.0625"
"1537797405702","465","1.7753906","0.53222656","0.4423828","-34.28125","17.59375","45.75"
"1537797405702","466","1.515625","0.81933594","-0.043945312","-49.3125","19.9375","6.9375"
"1537797405703","467","1.3974609","0.31445312","0.07910156","-74.8125","46.40625","-51.0"
"1537797405899","468","1.0439453","0.21386719","-0.00390625","47.875","59.53125","-193.5"
"1537797405900","469","0.9550781","0.12207031","0.0048828125","-27.4375","36.28125","-188.09375"
"1537797406096","470","0.93847656","0.21582031","0.030273438","-66.9375","15.28125","-163.96875"
"1537797406096","471","0.8222656","0.29003906","0.0","-63.09375","-16.3125","-135.71875"
"1537797406097","472","1.0","0.17773438","-0.052734375","-17.875","-39.34375","-86.34375"
"1537797406097","473","1.203125","0.140625","0.12890625","-36.90625","-91.09375","-23.28125"
"1537797406097","474","1.0771484","0.47851562","0.049804688","-53.375","-134.0625","47.875"
"1537797406098","475","1.0566406","0.5234375","-0.15234375","2.75","-109.90625","114.78125"
"1537797406098","476","1.0449219","0.49609375","0.0126953125","38.28125","-102.09375","160.0625"
"1537797406100","477","0.79296875","0.17871094","0.1015625","-4.125","-124.71875","156.59375"
"1537797406296","478","0.8466797","0.3388672","0.095703125","-101.0625","-127.21875","127.78125"
"1537797406296","479","0.7714844","0.5","0.20898438","-147.75","-129.84375","111.28125"
"1537797406297","480","0.5761719","0.5800781","0.22558594","-131.21875","-119.125","91.65625"
"1537797406297","481","0.40234375","0.6279297","0.21972656","-61.375","-88.15625","77.375"
"1537797406297","482","0.39746094","0.65722656","0.20800781","3.1875","-45.875","76.375"
"1537797406494","483","0.36816406","0.53808594","0.21289062","53.78125","-17.5","62.90625"
"1537797406494","484","0.7792969","0.4609375","0.25976562","70.28125","13.53125","61.5625"
"1537797406494","485","1.9941406","0.8310547","0.26660156","61.90625","35.25","93.46875"
"1537797406494","486","2.0136719","1.3378906","0.45410156","63.375","-51.4375","10.34375"
"1537797406495","487","1.5390625","0.18554688","0.3466797","151.3125","29.28125","-93.0625"
"1537797406694","488","1.4980469","0.3642578","0.025390625","0.1875","114.96875","-199.1875"
"1537797406694","489","1.0751953","0.7050781","-0.0390625","-41.625","164.53125","-217.9375"
"1537797406695","490","0.9482422","0.6113281","0.041992188","20.78125","195.90625","-209.3125"
"1537797406695","491","0.96875","0.39648438","0.07324219","94.1875","178.6875","-222.75"
"1537797406695","492","0.9550781","0.14355469","0.046875","114.9375","134.25","-239.46875"
"1537797406891","493","0.9248047","-0.16992188","0.0","77.78125","71.875","-258.5625"
"1537797406891","494","0.8173828","-0.14355469","-0.115234375","5.6875","22.6875","-250.40625"
"1537797406891","495","1.0087891","-0.028320312","-0.26464844","-52.46875","-18.40625","-178.3125"
"1537797406892","496","1.1660156","-0.103515625","0.14160156","-118.9375","-110.75","-48.6875"
"1537797406892","497","1.2714844","1.203125","0.5292969","-80.84375","-254.1875","149.8125"
"1537797407089","498","0.8720703","1.3935547","-0.48046875","72.84375","-159.875","345.65625"
"1537797407090","499","0.83984375","1.0253906","-0.18164062","268.625","-56.90625","352.15625"
"1537797407090","500","1.2294922","-0.0703125","0.35058594","156.75","-46.1875","358.4375"
"1537797407090","501","1.0205078","0.33984375","0.10644531","-107.90625","-137.84375","278.03125"
"1537797407091","502","0.7832031","0.71972656","0.11816406","-148.65625","-126.4375","195.65625"
"1537797407486","503","0.7050781","0.8925781","0.22167969","-71.34375","-83.21875","149.125"
"1537797407487","504","1.0410156","0.890625","0.35546875","43.03125","-42.15625","111.65625"
"1537797407488","505","1.5136719","0.8183594","0.38085938","84.25","-22.6875","61.4375"
"1537797407489","506","2.0136719","0.8203125","0.31347656","56.28125","2.53125","4.90625"
"1537797407489","507","1.5361328","0.2529297","0.35253906","-37.34375","9.78125","-105.0625"
"1537797407489","508","1.3701172","0.39941406","0.16015625","-121.15625","74.84375","-181.90625"
"1537797407490","509","1.0185547","0.7402344","0.059570312","-133.59375","129.4375","-201.3125"
"1537797407490","510","0.9042969","0.7265625","0.08984375","-29.40625","176.25","-191.25"
"1537797407491","511","0.9189453","0.5058594","0.06542969","82.46875","175.25","-203.09375"
"1537797407685","512","0.9785156","0.028320312","-0.08496094","79.84375","103.78125","-232.28125"
"1537797407687","513","0.80859375","-0.07910156","-0.1484375","-0.96875","53.8125","-236.125"
"1537797407687","514","0.8339844","0.015625","-0.22753906","-51.3125","16.375","-194.71875"
"1537797407688","515","0.7060547","0.29492188","-0.32910156","-68.65625","-54.0","-113.625"
"1537797407884","516","1.1503906","0.7421875","-0.06640625","-16.59375","-130.9375","50.5"
"1537797407885","517","1.1796875","1.3603516","0.07324219","158.75","-206.6875","212.0625"
"1537797407888","518","0.796875","0.5917969","-0.43359375","184.8125","-108.25","318.6875"
"1537797407888","519","1.2060547","0.19726562","-0.12695312","-21.46875","-31.09375","329.375"
"1537797407888","520","1.3369141","0.3544922","0.18652344","-216.65625","-94.15625","277.375"
"1537797407888","521","1.0214844","0.83984375","0.24707031","-208.65625","-166.90625","204.625"
"1537797408084","522","0.6933594","0.8330078","0.2763672","-77.75","-154.03125","142.65625"
"1537797408085","523","0.56347656","0.6640625","0.3330078","21.4375","-106.65625","113.375"
"1537797408085","524","0.55078125","0.66015625","0.2548828","50.25","-52.9375","98.90625"
"1537797408085","525","0.7548828","0.6875","0.23730469","53.65625","-2.40625","84.5625"
"1537797408086","526","1.2880859","0.73535156","0.31152344","67.6875","26.75","53.625"
"1537797408282","527","2.0136719","0.81152344","0.43847656","83.6875","33.28125","-10.15625"
"1537797408480","528","2.0136719","0.30273438","0.28515625","86.625","24.25","-138.15625"
"1537797408481","529","1.7939453","-0.047851562","0.047851562","-11.71875","76.75","-258.09375"
"1537797408481","530","1.359375","0.37304688","0.05078125","-144.9375","142.96875","-295.75"
"1537797408482","531","1.0449219","0.75683594","0.07324219","-144.09375","189.375","-259.625"
"1537797408482","532","0.96484375","0.71191406","-0.0390625","-31.78125","212.0625","-200.34375"
"1537797408483","533","0.9248047","0.5019531","-0.029296875","120.25","217.5","-183.625"
"1537797408484","534","0.8417969","-9.765625E-4","-0.06738281","143.25","170.75","-199.875"
"1537797408485","535","0.7861328","-0.17773438","-0.140625","61.28125","102.6875","-194.5625"
"1537797408485","536","0.5703125","-0.030273438","-0.24414062","6.40625","19.9375","-163.84375"
"1537797408678","537","0.5644531","-0.041015625","-0.31835938","-2.375","-47.5625","-80.65625"
"1537797408679","538","0.6923828","0.23242188","-0.3017578","-32.40625","-136.5625","46.0625"
"1537797408680","539","1.3125","0.9951172","0.11425781","-1.09375","-215.78125","211.03125"
"1537797408680","540","1.2294922","1.2080078","-0.21972656","111.78125","-203.15625","333.59375"
"1537797408681","541","1.2041016","0.7158203","-0.33984375","90.59375","-81.875","363.0"
"1537797408877","542","1.5234375","0.44921875","-0.03515625","-43.6875","-57.09375","346.15625"
"1537797408879","543","1.3671875","0.9160156","0.13574219","-117.84375","-121.75","265.21875"
"1537797408879","544","0.90234375","1.0830078","0.2548828","-60.28125","-134.5625","181.59375"
"1537797408880","545","0.6044922","0.9296875","0.28320312","-4.0625","-100.875","128.3125"
"1537797408880","546","0.46191406","0.546875","0.22265625","18.625","-50.3125","73.40625"
"1537797409076","547","0.75","0.4560547","0.21386719","16.6875","21.34375","28.34375"
"1537797409078","548","1.2998047","0.6142578","0.29492188","-7.5","33.53125","-5.84375"
"1537797409078","549","1.7998047","0.61328125","0.29296875","8.375","33.40625","-33.40625"
"1537797409078","550","1.8300781","0.4580078","0.34277344","11.0625","16.75","-106.96875"
"1537797409079","551","1.6054688","0.3544922","0.1015625","-9.625","60.875","-165.0"
"1537797409275","552","1.3330078","0.44335938","0.048828125","-39.46875","118.4375","-199.5"
"1537797409276","553","1.0380859","0.5761719","0.0078125","-32.15625","161.15625","-198.28125"
"1537797409277","554","0.9091797","0.4609375","-0.03515625","13.25","179.34375","-191.4375"
"1537797409672","555","0.8417969","0.34472656","-0.0546875","36.8125","170.375","-192.59375"
"1537797409673","556","0.8671875","0.048828125","-0.08105469","28.75","133.5625","-207.25"
"1537797409673","557","0.7128906","0.06933594","-0.16894531","4.15625","83.15625","-209.25"
"1537797409674","558","0.734375","0.15429688","-0.26757812","3.0625","39.09375","-176.125"
"1537797409675","559","0.7441406","0.29296875","-0.3173828","2.46875","-30.65625","-112.21875"
"1537797409676","560","1.0019531","0.37304688","-0.14257812","5.5","-128.5625","5.28125"
"1537797409676","561","0.9667969","0.9042969","0.2265625","64.34375","-242.09375","160.25"
"1537797409677","562","0.69433594","0.6298828","-0.25390625","23.5625","-205.96875","268.8125"
"1537797409677","563","0.9189453","0.65527344","-0.2705078","-42.21875","-84.9375","297.8125"
"1537797409872","564","1.3408203","0.39648438","0.20117188","-102.96875","-73.28125","311.3125"
"1537797409873","565","0.6748047","0.7890625","0.29785156","-59.75","-122.90625","137.96875"
"1537797409874","566","0.71875","0.5966797","0.31152344","-30.125","-28.90625","93.46875"
"1537797409874","567","0.9736328","0.6533203","0.25","-41.5625","33.46875","55.15625"
"1537797410070","568","1.8164062","0.7089844","0.375","-35.09375","58.375","25.3125"
"1537797410071","569","1.8144531","0.9716797","0.30273438","-39.34375","-8.9375","-66.8125"
"1537797410071","570","1.5957031","0.57128906","0.040039062","33.28125","57.78125","-108.3125"
"1537797410071","571","1.9667969","0.48828125","-0.0029296875","36.6875","99.875","-170.0625"
"1537797410072","572","1.5947266","0.51660156","-0.001953125","13.3125","109.28125","-220.375"
"1537797410073","573","1.2666016","0.39257812","-0.056640625","18.875","129.125","-237.875"
"1537797410074","574","1.1152344","0.36035156","-0.103515625","38.09375","140.71875","-236.53125"
"1537797410269","575","0.89941406","0.25097656","-0.051757812","34.5","113.0625","-228.375"
"1537797410270","576","0.78808594","0.11816406","-0.08691406","-0.34375","79.625","-202.96875"
"1537797410270","577","0.6972656","0.05859375","-0.16113281","-29.34375","35.375","-178.375"
"1537797410270","578","0.6542969","0.10644531","-0.20898438","-16.71875","-4.59375","-135.09375"
"1537797410271","579","0.6689453","-0.018554688","-0.1953125","-11.9375","-67.34375","-80.46875"
"1537797410467","580","0.8310547","0.018554688","0.041992188","-54.75","-145.96875","3.9375"
"1537797410666","581","1.2949219","0.8779297","0.28222656","-62.78125","-223.25","107.4375"
"1537797410668","582","1.2138672","1.0136719","0.052734375","90.71875","-239.15625","179.90625"
"1537797410668","583","1.3173828","0.27734375","0.0068359375","137.34375","-157.25","231.21875"
"1537797410669","584","1.5859375","0.2890625","0.14746094","-98.3125","-156.78125","260.65625"
"1537797410669","585","1.2822266","0.62109375","0.21582031","-269.28125","-183.3125","238.90625"
"1537797410671","586","0.96972656","0.7314453","0.28125","-233.9375","-185.59375","174.34375"
"1537797410671","587","0.7998047","0.5673828","0.33984375","-118.09375","-149.8125","128.875"
"1537797410671","588","0.7167969","0.50878906","0.3955078","-99.0","-121.375","86.875"
"1537797410672","589","0.45117188","0.5546875","0.30859375","-89.78125","-78.09375","66.5"
"1537797410865","590","0.3798828","0.5810547","0.2626953","-46.5625","-22.25","58.0"
"1537797410866","591","0.3984375","0.5371094","0.25878906","-0.40625","17.0625","47.8125"
"1537797410866","592","0.5292969","0.4765625","0.23730469","25.59375","35.625","37.9375"
"1537797410866","593","1.0253906","0.4580078","0.24609375","33.34375","49.90625","40.1875"
"1537797411064","594","1.6142578","0.7675781","0.21777344","55.875","55.875","39.34375"
"1537797411064","595","2.0136719","0.8769531","0.3857422","116.59375","45.4375","-24.8125"
"1537797411065","596","1.7958984","0.3251953","0.045898438","134.40625","75.40625","-117.28125"
"1537797411065","597","1.6083984","0.08886719","-0.0234375","51.53125","131.0625","-208.28125"
"1537797411066","598","1.1748047","0.38378906","-0.045898438","-31.46875","155.65625","-247.78125"
"1537797411263","599","1.0","0.46972656","-0.0546875","-31.0625","170.4375","-242.90625"
"1537797411461","600","0.8857422","0.41601562","-0.056640625","11.78125","168.71875","-227.75"
"1537797411461","601","0.90722656","0.19628906","-0.0625","33.34375","131.75","-226.03125"
"1537797411463","602","0.8408203","-0.034179688","-0.08203125","20.53125","79.5","-222.5625"
"1537797411463","603","0.7246094","0.01171875","-0.10644531","1.78125","19.125","-201.875"
"1537797411464","604","0.76171875","0.14550781","-0.2109375","12.59375","-34.625","-142.375"
"1537797411465","605","0.69628906","0.23632812","-0.19628906","4.34375","-114.96875","-40.0"
"1537797411660","606","0.9042969","0.7001953","0.30273438","19.65625","-206.21875","115.75"
"1537797411662","607","0.7373047","1.2490234","0.27148438","158.65625","-211.875","285.5625"
"1537797411662","608","0.9404297","0.8066406","-0.38671875","130.125","-103.65625","349.15625"
"1537797411664","609","1.4736328","0.31640625","0.034179688","10.6875","-18.09375","336.625"
"1537797411664","610","1.5068359","0.68847656","0.15917969","-190.59375","-85.0625","294.53125"
"1537797411664","611","0.8955078","0.8691406","0.14941406","-164.125","-138.71875","213.84375"
"1537797411664","612","0.6220703","0.5859375","0.21679688","-33.25","-97.0625","136.4375"
"1537797411664","613","0.6748047","0.25","0.296875","-28.5","-68.34375","66.9375"
"1537797411859","614","0.6298828","0.4580078","0.21972656","-90.75","-49.21875","26.21875"
"1537797411859","615","0.80371094","0.53808594","0.2529297","-101.96875","-13.53125","17.3125"
"1537797411859","616","1.1630859","0.6542969","0.33398438","-73.125","2.34375","10.53125"
"1537797411860","617","1.6728516","0.9169922","0.21679688","-2.75","22.0","9.5"
"1537797412064","618","2.0136719","0.6699219","0.23339844","58.84375","22.125","-63.625"
"1537797412064","619","1.4970703","0.5546875","0.057617188","-26.0","51.84375","-142.5625"
"1537797412065","620","1.3759766","0.69140625","0.043945312","-73.59375","127.03125","-194.1875"
"1537797412065","621","1.1601562","0.73339844","0.0078125","-41.0","160.625","-217.375"
"1537797412065","622","0.99121094","0.68066406","-0.0234375","18.1875","165.96875","-202.25"
"1537797412065","623","0.76171875","0.4169922","-0.08691406","44.3125","143.65625","-187.34375"
"1537797412259","624","0.65625","0.15332031","-0.15820312","27.34375","106.59375","-173.90625"
"1537797412259","625","0.5371094","0.06347656","-0.20214844","-16.90625","53.625","-159.09375"
"1537797412259","626","0.51660156","0.08496094","-0.24414062","-18.59375","-5.9375","-132.1875"
"1537797412259","627","0.49902344","0.08691406","-0.25097656","-19.9375","-69.5625","-94.28125"
"1537797412260","628","0.76660156","0.31152344","-0.21777344","-26.96875","-141.28125","-24.375"
"1537797412656","629","1.3769531","0.859375","0.11035156","9.59375","-222.75","93.28125"
"1537797412657","630","1.5996094","0.91015625","0.21191406","118.96875","-268.09375","201.3125"
"1537797412657","631","1.2119141","0.5673828","-0.33691406","11.59375","-193.15625","246.375"
"1537797412657","632","1.4833984","0.4892578","-0.0087890625","-137.625","-86.625","278.15625"
"1537797412657","633","1.4707031","0.61035156","0.3984375","-221.90625","-128.875","238.96875"
"1537797412657","634","0.9716797","0.8144531","0.29003906","-160.5625","-177.46875","167.15625"
"1537797412660","635","0.6845703","0.7265625","0.31835938","-43.1875","-131.9375","130.65625"
"1537797412660","636","0.65722656","0.5097656","0.33203125","-4.09375","-85.3125","107.375"
"1537797412661","637","0.7998047","0.5126953","0.2734375","-27.21875","-40.375","89.6875"
"1537797412853","638","1.2304688","0.71875","0.25878906","-45.8125","2.71875","57.40625"
"1537797412854","639","1.3339844","0.7138672","0.26660156","-43.9375","15.34375","24.875"
"1537797412854","640","1.4833984","0.9482422","0.17382812","-33.6875","48.5625","-9.625"
"1537797412854","641","0.74902344","1.0224609","-0.048828125","43.34375","103.78125","-52.9375"
"1537797412855","642","1.3701172","0.5605469","0.017578125","145.875","165.1875","-125.6875"
"1537797413052","643","1.90625","0.45214844","-0.07421875","183.59375","144.0","-183.5625"
"1537797413052","644","1.8828125","0.3623047","-0.07324219","131.0","97.5","-218.0"
"1537797413053","645","1.5498047","0.29003906","0.040039062","34.0","73.28125","-227.25"
"1537797413053","646","1.3681641","0.24707031","0.0029296875","19.71875","86.6875","-233.78125"
"1537797413053","647","1.1230469","0.1640625","0.052734375","28.34375","84.3125","-241.1875"
"1537797413253","648","0.83984375","0.20800781","0.06933594","19.34375","63.75","-228.0625"
"1537797413253","649","0.70996094","0.17675781","0.001953125","22.59375","58.875","-188.09375"
"1537797413254","650","0.5810547","0.038085938","0.03515625","13.375","39.9375","-158.59375"
"1537797413254","651","0.5683594","0.13769531","-0.005859375","18.4375","14.875","-128.375"
"1537797413255","652","0.48339844","0.0146484375","-0.021484375","46.40625","-23.46875","-99.21875"
"1537797413648","653","0.41601562","-0.01171875","9.765625E-4","28.4375","-72.59375","-56.4375"
"1537797413649","654","0.33789062","0.00390625","-0.048828125","-2.3125","-118.8125","-2.28125"
"1537797413649","655","0.5410156","0.47460938","-0.11621094","-21.84375","-176.65625","84.0"
"1537797413650","656","1.0742188","1.1982422","0.3955078","46.03125","-253.75","242.34375"
"1537797413651","657","1.2900391","0.5576172","0.12695312","51.34375","-234.09375","362.21875"
"1537797413651","658","1.9296875","1.0751953","-0.234375","-181.3125","-141.03125","381.0"
"1537797413651","659","1.8378906","1.3232422","-0.14257812","-171.5","-86.75","405.5625"
"1537797413652","660","1.7910156","1.0703125","0.22167969","-69.625","-102.625","351.84375"
"1537797413847","661","1.0166016","0.88671875","0.37890625","14.34375","-144.5","209.5625"
"1537797413847","662","0.5341797","0.35058594","0.14453125","-87.28125","-44.84375","39.28125"
"1537797413849","663","0.5048828","0.4873047","0.23144531","-155.25","-4.0","4.71875"
"1537797413849","664","0.5","0.6347656","0.32617188","-149.78125","0.875","-4.5"
"1537797413849","665","0.75878906","0.7001953","0.36621094","-68.71875","2.96875","-5.40625"
"1537797413850","666","1.1044922","0.73339844","0.36328125","22.40625","2.28125","-15.78125"
"1537797414046","667","2.0136719","0.67871094","0.3857422","86.5","46.96875","-8.40625"
"1537797414047","668","2.0136719","0.58984375","0.18945312","64.21875","35.78125","-106.59375"
"1537797414047","669","1.5507812","0.55371094","-0.040039062","65.3125","149.625","-151.875"
"1537797414047","670","1.4169922","0.39160156","0.057617188","52.8125","211.5625","-200.53125"
"1537797414048","671","1.2734375","0.453125","0.037109375","63.1875","218.78125","-232.21875"
"1537797414247","672","1.1083984","0.35351562","-0.057617188","85.40625","200.15625","-237.21875"
"1537797414248","673","0.9560547","0.2578125","-0.028320312","66.0625","165.0","-236.65625"
"1537797414446","674","0.8623047","0.06640625","-0.046875","34.25","120.09375","-232.5"
"1537797414446","675","0.84375","0.024414062","-0.030273438","24.71875","74.6875","-219.28125"
"1537797414446","676","0.6933594","-0.032226562","-0.15136719","25.78125","19.9375","-182.59375"
"1537797414446","677","0.57128906","-0.041992188","-0.27929688","11.1875","-40.1875","-110.125"
"1537797414644","678","0.6191406","0.24902344","-0.12792969","-22.6875","-109.09375","33.0"
"1537797414645","679","0.8964844","1.1308594","0.20507812","54.9375","-182.28125","200.53125"
"1537797414645","680","0.77734375","0.95214844","-0.27148438","249.875","-122.90625","344.15625"
"1537797414645","681","1.6552734","0.61621094","-0.33984375","120.6875","-12.65625","384.96875"
"1537797414645","682","1.6943359","0.5175781","-0.17773438","-107.09375","-38.0","351.65625"
"1537797414646","683","1.3007812","0.9345703","0.009765625","-201.40625","-119.34375","259.0"
"1537797414646","684","0.7988281","0.8779297","0.22167969","-130.4375","-141.5625","177.59375"
"1537797414646","685","0.5449219","0.58984375","0.25","-34.0625","-103.3125","115.6875"
"1537797414648","686","0.5966797","0.51660156","0.27246094","-0.1875","-57.59375","76.9375"
"1537797415039","687","0.5986328","0.6660156","0.23046875","8.75","-26.34375","57.90625"
"1537797415040","688","0.8173828","0.67871094","0.20800781","46.46875","5.8125","50.1875"
"1537797415040","689","1.2207031","0.76953125","0.23828125","75.8125","15.34375","26.46875"
"1537797415041","690","1.8945312","0.546875","0.24609375","100.53125","43.375","-1.6875"
"1537797415041","691","1.9912109","0.35351562","0.16992188","62.8125","27.1875","-105.5"
"1537797415042","692","1.8583984","0.14550781","0.20605469","-7.6875","48.75","-194.96875"
"1537797415043","693","1.2451172","0.3408203","0.061523438","-89.71875","86.09375","-248.09375"
"1537797415043","694","0.98339844","0.58496094","0.00390625","-91.78125","157.625","-228.5625"
"1537797415044","695","0.8017578","0.6064453","0.024414062","-8.96875","193.625","-197.71875"
"1537797415240","696","0.7841797","0.13378906","0.0126953125","95.09375","151.8125","-192.40625"
"1537797415241","697","0.7939453","-0.07910156","-0.0390625","59.15625","96.15625","-199.875"
"1537797415241","698","0.8779297","-0.076171875","-0.13964844","10.625","35.5","-186.1875"
"1537797415241","699","0.7675781","-0.01171875","-0.22460938","-11.34375","-32.875","-138.53125"
"1537797415437","700","1.2001953","0.25195312","-0.022460938","-26.78125","-108.6875","1.8125"
"1537797415439","701","1.3095703","0.8857422","0.15039062","6.28125","-210.40625","186.96875"
"1537797415439","702","1.2148438","1.0986328","-0.43945312","45.1875","-163.46875","360.8125"
"1537797415440","703","1.4560547","0.7783203","-0.11621094","88.5","-62.46875","439.96875"
"1537797415440","704","1.6054688","0.36523438","0.22460938","-27.65625","-99.875","382.40625"
"1537797415440","705","1.2226562","0.75878906","0.20507812","-144.15625","-160.6875","271.09375"
"1537797415636","706","0.59765625","0.8886719","0.16308594","-66.34375","-125.75","187.78125"
"1537797415637","707","0.6376953","0.3857422","0.2861328","-16.21875","-50.75","116.84375"
"1537797415637","708","0.67089844","0.4873047","0.36621094","-74.8125","-32.4375","56.25"
"1537797415637","709","0.7988281","0.7832031","0.4638672","-75.3125","-20.28125","33.125"
"1537797415637","710","1.2861328","0.9667969","0.40527344","7.5625","12.3125","23.71875"
"1537797415834","711","2.0136719","1.1621094","0.42871094","104.5","36.03125","-22.75"
"1537797415834","712","1.8828125","-0.022460938","0.34179688","141.71875","45.875","-144.4375"
"1537797415835","713","1.5693359","0.01953125","0.08886719","-21.21875","81.875","-265.03125"
"1537797415835","714","1.2021484","0.4033203","0.14453125","-122.6875","138.15625","-297.21875"
"1537797415838","715","1.0332031","0.6503906","0.078125","-113.8125","181.125","-275.59375"
"1537797416033","716","1.0351562","0.6484375","0.00390625","2.21875","217.0625","-233.375"
"1537797416034","717","1.1777344","0.30859375","-0.009765625","90.875","197.53125","-218.96875"
"1537797416035","718","1.203125","0.0126953125","0.0068359375","71.53125","114.15625","-220.25"
"1537797416035","719","1.0849609","9.765625E-4","-0.2421875","41.28125","37.6875","-183.8125"
"1537797416035","720","1.0498047","-0.07128906","-0.35058594","27.28125","-32.4375","-96.59375"
"1537797416232","721","1.1210938","0.23339844","-0.051757812","-31.78125","-139.0","70.03125"
"1537797416232","722","1.0351562","1.4003906","-0.50390625","23.6875","-189.53125","222.75"
"1537797416232","723","1.1025391","0.89453125","-0.3232422","157.125","-117.78125","287.125"
"1537797416233","724","1.3427734","0.41503906","-0.09082031","44.6875","-155.0","271.6875"
"1537797416432","725","1.1865234","0.67578125","0.044921875","-192.625","-174.28125","278.53125"
"1537797416433","726","0.8544922","0.70996094","0.12011719","-267.21875","-181.375","205.78125"
"1537797416433","727","0.71972656","0.7451172","0.23828125","-145.6875","-142.78125","114.78125"
"1537797416433","728","0.6191406","0.5800781","0.35058594","-54.5","-93.0","68.625"
"1537797416434","729","0.5800781","0.50683594","0.35058594","-44.71875","-59.25","49.15625"
"1537797416629","730","0.6845703","0.63964844","0.40429688","-31.5","-30.78125","47.625"
"1537797416631","731","0.9296875","0.79785156","0.38476562","7.09375","-11.25","35.125"
"1537797416631","732","1.0830078","0.85058594","0.2890625","43.71875","19.0625","8.5625"
"1537797416631","733","1.3007812","0.5263672","0.24609375","60.84375","72.1875","-28.59375"
"1537797416632","734","1.765625","0.8330078","0.08691406","34.75","97.6875","-73.6875"
"1537797416829","735","1.7441406","0.5644531","0.13476562","46.53125","115.3125","-114.03125"
"1537797416829","736","1.3701172","0.625","-0.047851562","27.71875","116.78125","-161.78125"
"1537797416829","737","1.1914062","0.5605469","-0.13867188","22.65625","150.0625","-174.65625"
"1537797416830","738","1.0019531","0.40722656","-0.12890625","5.0625","146.625","-196.4375"
"1537797416830","739","0.7949219","0.390625","-0.15917969","4.21875","130.09375","-194.90625"
"1537797417027","740","0.6533203","0.29003906","-0.21191406","7.40625","98.1875","-180.375"
"1537797417028","741","0.5488281","0.265625","-0.23242188","0.875","47.6875","-153.40625"
"1537797417028","742","0.51171875","0.18457031","-0.33691406","20.03125","2.40625","-111.71875"
"1537797417029","743","0.49902344","-0.11230469","-0.32714844","-12.25","-67.90625","-70.78125"
"1537797417029","744","0.609375","0.22949219","-0.080078125","-83.375","-144.625","-23.28125"
"1537797417226","745","0.92871094","0.6298828","0.0048828125","-28.75","-193.5625","27.9375"
"1537797417226","746","1.8740234","0.81347656","0.5908203","18.6875","-226.21875","133.8125"
"1537797417227","747","2.0107422","1.4628906","0.42773438","-37.65625","-292.9375","160.4375"
"1537797417227","748","1.2480469","0.7324219","-0.08984375","-75.0625","-163.84375","136.375"
"1537797417228","749","1.109375","0.5732422","0.22265625","-123.78125","-78.03125","129.4375"
"1537797417427","750","0.9296875","0.6171875","0.32128906","-192.25","-108.84375","121.90625"
"1537797417427","751","0.63183594","0.6826172","0.2734375","-145.5625","-125.9375","103.59375"
"1537797417427","752","0.5449219","0.54589844","0.29296875","-55.96875","-109.15625","102.09375"
"1537797417427","753","0.49023438","0.50097656","0.27441406","-34.71875","-93.90625","96.96875"
"1537797417821","754","0.5966797","0.5449219","0.17773438","-21.71875","-54.59375","96.71875"
"1537797417823","755","0.8544922","0.625","0.10449219","-11.28125","-25.71875","86.6875"
"1537797417824","756","0.82128906","0.58691406","0.14355469","-28.0","-21.34375","58.1875"
"1537797417824","757","0.51953125","0.68847656","0.047851562","-50.53125","3.09375","32.1875"
"1537797417825","758","0.5517578","0.6816406","0.041015625","-11.71875","40.9375","18.40625"
"1537797417825","759","0.5732422","0.67578125","0.095703125","11.46875","43.3125","8.8125"
"1537797417825","760","0.5253906","0.6972656","0.12695312","22.53125","34.09375","4.0625"
"1537797417825","761","0.7607422","0.7060547","0.12988281","55.0","38.0","-9.5"
"1537797417826","762","1.9746094","0.7089844","0.1875","96.8125","60.5","4.125"
"1537797418020","763","1.9931641","0.25195312","0.03515625","53.03125","84.4375","-200.40625"
"1537797418020","764","1.4589844","0.34179688","0.140625","-45.21875","104.46875","-220.25"
"1537797418021","765","1.0849609","0.3779297","0.107421875","-77.15625","106.84375","-218.0625"
"1537797418021","766","0.9482422","0.35546875","0.0625","-11.71875","124.65625","-210.90625"
"1537797418022","767","0.88671875","0.21386719","0.044921875","53.21875","110.3125","-212.125"
"1537797418219","768","0.7792969","0.05859375","-0.0107421875","43.28125","75.09375","-202.90625"
"1537797418220","769","0.578125","0.036132812","-0.087890625","5.125","38.46875","-182.34375"
"1537797418220","770","0.5136719","0.076171875","-0.11816406","0.5625","8.4375","-146.21875"
"1537797418220","771","0.4736328","0.19628906","-0.08691406","9.21875","-34.53125","-101.21875"
"1537797418221","772","0.484375","0.119140625","-0.103515625","49.1875","-93.40625","-48.25"
"1537797418417","773","0.39941406","0.140625","0.00390625","29.0","-174.65625","30.1875"
"1537797418419","774","0.6220703","0.59375","0.15820312","11.84375","-242.59375","157.5625"
"1537797418419","775","0.9375","1.0537109","0.45214844","-8.90625","-296.90625","285.6875"
"1537797418419","776","1.3115234","1.421875","0.14355469","-47.65625","-260.90625","352.25"
"1537797418420","777","1.3671875","0.9658203","-0.10546875","-26.0625","-140.46875","375.875"
"1537797418617","778","1.7207031","0.8671875","0.19433594","-64.8125","-85.0","345.84375"
"1537797418617","779","1.4199219","1.2304688","0.28710938","-75.6875","-127.96875","271.6875"
"1537797418618","780","0.6767578","0.92285156","0.26757812","22.96875","-109.15625","152.625"
"1537797418619","781","0.6621094","0.25683594","0.22363281","-10.90625","-34.15625","47.09375"
"1537797418619","782","1.4658203","1.6953125","0.16015625","-130.90625","28.28125","-47.46875"
"1537797418815","783","2.0136719","2.0009766","0.96484375","203.3125","143.21875","-376.75"
"1537797418816","784","2.0136719","1.46875","0.22949219","230.59375","-112.40625","-771.40625"
"1537797418817","785","0.79296875","-1.8515625","0.38378906","210.21875","-255.78125","-666.78125"
"1537797418817","786","-0.3173828","-1.3027344","0.20703125","-339.78125","-304.84375","-437.34375"
"1537797418817","787","-0.3486328","-1.6943359","-0.034179688","-223.4375","-47.875","-65.78125"
"1537797419014","788","-0.81152344","-0.4033203","0.14648438","-408.5","-24.09375","63.25"
"1537797419014","789","-0.76464844","0.049804688","-0.19335938","-271.0","66.1875","140.34375"
"1537797419014","790","0.18164062","0.94628906","1.0898438","-188.59375","127.84375","84.125"
"1537797419015","791","-0.35546875","1.8583984","1.0078125","-218.0625","72.1875","115.09375"
"1537797419016","792","1.0664062","1.25","2.0078125","14.40625","109.78125","69.84375"
"1537797419212","793","1.4208984","2.0009766","1.8339844","-331.84375","-65.65625","-10.53125"
"1537797419214","794","0.48339844","1.1337891","1.3642578","114.8125","-17.5","-24.25"
"1537797419215","795","0.51464844","0.75683594","0.64160156","-181.9375","-134.1875","-61.875"
"1537797419215","796","0.28320312","1.9677734","0.46679688","-75.375","-145.84375","13.59375"
"1537797419215","797","0.25976562","0.57714844","0.64941406","161.03125","-164.28125","-20.90625"
"1537797419411","798","0.4423828","0.25097656","0.421875","61.03125","-208.40625","-50.375"
"1537797419412","799","0.3564453","0.19140625","0.44921875","8.84375","-245.75","-65.15625"
"1537797419412","800","0.36914062","0.11230469","0.36035156","26.375","-244.84375","-64.125"
"1537797419413","801","0.43945312","0.13769531","0.2109375","41.8125","-224.03125","-49.15625"
"1537797419414","802","0.79589844","0.09277344","0.34179688","35.78125","-221.65625","9.96875"
"1537797419611","803","1.6728516","0.5292969","0.72265625","-7.75","-294.40625","118.4375"
"1537797419611","804","1.3935547","1.0605469","0.46972656","82.09375","-335.90625","176.0625"
"1537797419611","805","1.3046875","0.33496094","0.20703125","135.25","-185.15625","209.625"
"1537797419809","806","1.3369141","0.77734375","-0.087890625","-86.59375","-80.15625","197.96875"
"1537797419809","807","0.9033203","0.8339844","-0.013671875","-123.90625","-40.625","178.9375"
"1537797419810","808","0.6279297","0.8457031","0.203125","-96.75","-61.375","115.5625"
"1537797419811","809","0.4501953","0.61035156","0.23925781","6.90625","-63.4375","58.25"
"1537797419811","810","0.32128906","0.41796875","0.2529297","-1.34375","-44.09375","27.375"
"1537797419812","811","0.13476562","0.546875","0.21191406","-25.625","-2.34375","13.46875"
"1537797419813","812","0.18066406","0.58691406","0.22070312","19.15625","44.40625","14.625"
"1537797420007","813","0.29492188","0.5986328","0.1953125","81.0","75.34375","11.03125"
"1537797420008","814","0.49121094","0.45996094","0.21484375","118.90625","85.40625","2.15625"
"1537797420008","815","1.2392578","0.65625","0.14746094","131.21875","90.65625","23.46875"
"1537797420009","816","2.0136719","0.703125","0.6425781","138.875","73.21875","42.75"
"1537797420010","817","2.0136719","0.6044922","0.43847656","157.90625","14.0","-92.125"
"1537797420209","818","2.0136719","-0.28125","0.15136719","145.8125","65.28125","-240.9375"
"1537797420210","819","1.6259766","0.09765625","0.005859375","-32.15625","117.03125","-311.90625"
"1537797420210","820","1.0332031","0.5214844","0.005859375","-106.875","146.28125","-288.3125"
"1537797420210","821","0.8769531","0.5185547","0.005859375","-55.34375","184.0625","-215.4375"
"1537797420210","822","0.73046875","0.2578125","0.045898438","21.5","175.5625","-187.28125"
"1537797420408","823","0.6347656","0.00390625","0.10253906","56.53125","135.71875","-178.6875"
"1537797420408","824","0.63378906","-0.048828125","0.0146484375","57.9375","91.40625","-159.15625"
"1537797420408","825","0.5830078","-0.10644531","-0.08496094","59.875","35.6875","-137.71875"
"1537797420409","826","0.5722656","-0.17578125","-0.23828125","43.59375","-25.4375","-92.5625"
"1537797420409","827","0.87597656","0.038085938","-0.2685547","-34.375","-109.46875","24.3125"
"1537797420605","828","1.1259766","0.6875","0.46484375","-83.25","-280.375","188.625"
"1537797420605","829","1.4804688","1.0029297","-0.08691406","22.28125","-265.34375","332.125"
"1537797420605","830","1.8486328","1.5478516","-0.18457031","-66.65625","-174.65625","398.21875"
"1537797420607","831","1.6376953","0.8613281","0.1953125","55.1875","-153.15625","409.6875"
"1537797420607","832","1.4296875","0.81640625","0.45898438","65.625","-214.9375","289.875"
"1537797420805","833","0.6855469","0.9794922","0.265625","37.71875","-170.5625","178.8125"
"1537797420805","834","0.4814453","0.3798828","0.31054688","6.78125","-72.90625","111.78125"
"1537797420805","835","0.3779297","0.49414062","0.23632812","-91.625","-14.125","42.21875"
"1537797420805","836","0.6455078","0.5986328","0.28125","-65.25","20.46875","16.3125"
"1537797420806","837","1.1494141","0.5292969","0.36328125","5.5625","8.625","1.0625"
"1537797421001","838","2.0136719","1.1269531","0.5839844","55.65625","-8.625","18.28125"
"1537797421202","839","1.7460938","0.80371094","0.4423828","132.625","-20.78125","-67.84375"
"1537797421203","840","1.4716797","-0.32128906","0.12890625","68.3125","112.46875","-177.15625"
"1537797421203","841","1.2998047","0.359375","0.17675781","-103.375","180.4375","-283.59375"
"1537797421203","842","1.1201172","0.65234375","0.18261719","-79.84375","207.71875","-289.875"
"1537797421203","843","1.1152344","0.7265625","0.033203125","30.875","226.40625","-262.40625"
"1537797421205","844","1.1894531","0.45703125","0.037109375","126.34375","206.09375","-254.5"
"1537797421205","845","1.2041016","-0.09375","9.765625E-4","124.46875","154.4375","-273.84375"
"1537797421206","846","1.1835938","-0.29882812","-0.045898438","10.375","67.84375","-287.9375"
"1537797421206","847","0.921875","-0.083984375","-0.36035156","-49.125","9.0625","-236.125"
"1537797421400","848","0.8222656","-0.13574219","-0.2841797","-107.46875","-100.4375","-92.875"
"1537797421400","849","1.0449219","0.5410156","-0.01953125","-85.3125","-221.03125","131.75"
"1537797421400","850","1.3964844","1.4707031","-0.12792969","40.90625","-241.5","275.78125"
"1537797421400","851","1.6113281","1.3017578","-0.15917969","89.71875","-189.78125","345.90625"
"1537797421403","852","1.609375","0.5605469","0.4560547","137.9375","-234.34375","331.6875"
"1537797421799","853","1.4316406","0.2763672","0.33789062","-50.40625","-265.90625","241.125"
"1537797421799","854","0.99902344","0.59375","0.5498047","-244.1875","-228.25","168.5625"
"1537797421799","855","0.734375","0.9140625","0.5683594","-243.90625","-183.625","122.21875"
"1537797421799","856","0.44433594","0.94921875","0.45898438","-45.78125","-125.9375","95.96875"
"1537797421800","857","0.7285156","0.5419922","0.62402344","80.875","-70.15625","89.6875"
"1537797421801","858","1.3984375","0.57910156","0.734375","68.53125","-57.15625","86.03125"
"1537797421801","859","1.8017578","1.9609375","0.6328125","42.71875","-37.625","64.3125"
"1537797421801","860","1.5644531","0.56640625","0.6152344","210.21875","116.25","-10.34375"
"1537797421802","861","1.7753906","0.2529297","0.24511719","38.46875","157.9375","-228.59375"
"1537797421996","862","1.5644531","0.7138672","0.07128906","-31.96875","218.03125","-279.09375"
"1537797421997","863","1.3867188","0.74609375","0.053710938","29.40625","270.84375","-273.65625"
"1537797421997","864","1.2773438","0.58984375","0.013671875","143.5625","286.40625","-267.0"
"1537797421997","865","1.2041016","0.25683594","0.07714844","157.53125","251.1875","-268.78125"
"1537797421999","866","1.1650391","0.03125","-0.12792969","84.84375","179.65625","-268.46875"
"1537797422194","867","1.2675781","-0.0107421875","-0.20214844","16.53125","107.875","-244.28125"
"1537797422195","868","1.1279297","-0.0546875","-0.2861328","-21.71875","21.5","-201.6875"
"1537797422395","869","1.0576172","-9.765625E-4","-0.3466797","-17.75","-58.25","-65.46875"
"1537797422395","870","1.1669922","0.4111328","-0.015625","-55.59375","-157.25","140.21875"
"1537797422396","871","1.1601562","1.0302734","-0.33007812","-48.53125","-142.71875","330.0625"
"1537797422398","872","1.1894531","0.9814453","-0.043945312","55.96875","-136.09375","366.3125"
"1537797422398","873","1.2734375","0.5957031","0.080078125","103.34375","-167.875","318.21875"
"1537797422398","874","1.2353516","0.65234375","0.0546875","-23.875","-153.65625","298.6875"
"1537797422398","875","1.0673828","0.6923828","0.25585938","-136.84375","-154.5","270.96875"
"1537797422398","876","0.8105469","0.7939453","0.33691406","-107.84375","-141.5","183.375"
"1537797422592","877","0.6933594","0.87402344","0.40234375","-38.4375","-91.40625","132.0625"
"1537797422592","878","0.79785156","0.8017578","0.42089844","29.78125","-37.8125","111.90625"
"1537797422593","879","1.2949219","1.1923828","0.34179688","70.25","2.03125","67.28125"
"1537797422593","880","1.9804688","0.9511719","0.19238281","100.59375","42.09375","26.75"
"1537797422593","881","1.8017578","-0.016601562","0.16210938","-14.53125","36.28125","-136.125"
"1537797422792","882","1.515625","0.5263672","0.041992188","-163.15625","101.65625","-245.4375"
"1537797422793","883","1.5039062","0.7685547","0.068359375","-135.25","157.1875","-268.71875"
"1537797422793","884","1.2792969","0.71972656","-0.0087890625","-17.9375","182.78125","-270.96875"
"1537797422794","885","1.0742188","0.5908203","0.005859375","81.125","183.75","-251.5"
"1537797422794","886","0.98828125","0.3408203","-0.056640625","82.78125","153.21875","-237.8125"
"1537797422992","887","0.9003906","0.037109375","-0.17871094","45.90625","123.5","-236.3125"
"1537797422992","888","0.8330078","-0.11230469","-0.18554688","-31.5625","80.65625","-235.6875"
"1537797422992","889","0.7597656","0.15039062","-0.28808594","-89.28125","12.125","-205.65625"
"1537797422992","890","0.59472656","0.20703125","-0.41503906","-43.625","-61.375","-127.40625"
"1537797422992","891","0.71777344","0.3076172","-0.37402344","-7.375","-140.96875","3.8125"
"1537797423389","892","1.1005859","0.62890625","0.021484375","18.1875","-229.46875","159.5"
"1537797423585","893","1.4091797","1.0800781","0.12792969","23.8125","-263.15625","308.8125"
"1537797423586","894","1.2373047","0.6972656","0.13476562","26.5625","-219.5625","352.4375"
"1537797423587","895","1.7900391","0.5078125","0.3203125","-95.625","-198.75","326.09375"
"1537797423588","896","1.6503906","1.0810547","0.45703125","-173.28125","-226.53125","280.59375"
"1537797423588","897","1.0742188","1.0117188","0.5097656","-117.84375","-207.5","199.4375"
"1537797423588","898","0.72558594","0.51953125","0.42089844","-88.1875","-124.53125","126.6875"
"1537797423589","899","0.7597656","0.34570312","0.3779297","-129.28125","-66.0","54.90625"
"1537797423590","900","0.81933594","0.27929688","0.62890625","-240.65625","-56.78125","12.25"
"1537797423591","901","0.47851562","0.8173828","1.0117188","-203.1875","-46.125","-18.71875"
"1537797423785","902","2.0136719","0.33398438","-0.17089844","255.125","172.21875","-248.25"
"1537797423785","903","1.4833984","0.083984375","-0.0048828125","93.4375","163.125","-290.125"
"1537797423785","904","1.4277344","0.22167969","-0.08496094","-36.125","175.0625","-281.59375"
"1537797423786","905","1.0664062","0.3935547","-0.045898438","-56.75","153.59375","-265.21875"
"1537797423786","906","0.93847656","0.30078125","-0.028320312","-13.78125","120.4375","-219.28125"
"1537797423985","907","0.75","0.17871094","-0.16113281","34.90625","75.78125","-180.75"
"1537797423985","908","0.58203125","-0.060546875","-0.16015625","33.625","14.125","-133.6875"
"1537797423986","909","0.38671875","-0.025390625","-0.265625","-23.4375","-54.34375","-63.25"
"1537797423986","910","0.6064453","0.31152344","-0.024414062","-69.21875","-137.3125","51.96875"
"1537797423986","911","1.1191406","1.3027344","0.34960938","17.03125","-248.03125","168.0"
"1537797424182","912","1.171875","0.64453125","-0.099609375","271.84375","-220.0","231.0625"
"1537797424182","913","1.8242188","0.31445312","0.064453125","76.96875","-167.40625","286.90625"
"1537797424183","914","1.4677734","0.53027344","0.048828125","-103.46875","-179.0","301.78125"
"1537797424382","915","1.3007812","0.40820312","0.18457031","-244.6875","-179.90625","240.25"
"1537797424383","916","1.1943359","0.6279297","0.44140625","-276.0","-180.5","192.59375"
"1537797424383","917","0.99902344","0.63671875","0.48339844","-199.71875","-196.8125","128.6875"
"1537797424383","918","0.7236328","0.5839844","0.46484375","-129.21875","-160.90625","85.34375"
"1537797424383","919","0.5185547","0.6591797","0.36914062","-80.0625","-108.375","60.6875"
"1537797424384","920","0.29882812","0.5361328","0.32421875","-39.90625","-50.3125","54.21875"
"1537797424384","921","0.32617188","0.42871094","0.30566406","-17.09375","-4.125","47.8125"
"1537797424580","922","0.5439453","0.5292969","0.27441406","0.5","15.40625","47.6875"
"1537797424580","923","1.0449219","0.69628906","0.29492188","26.0625","17.84375","53.5625"
"1537797424580","924","1.9550781","0.7597656","0.38476562","76.125","31.46875","55.625"
"1537797424580","925","1.9921875","0.74609375","0.2919922","63.46875","41.03125","-22.25"
"1537797424582","926","1.7607422","0.1875","0.12109375","48.34375","128.875","-121.5625"
"1537797424778","927","1.6240234","0.52734375","0.01953125","9.59375","204.0625","-198.53125"
"1537797424778","928","1.3808594","0.64746094","-0.0068359375","39.0","239.53125","-220.0625"
"1537797424779","929","1.1835938","0.5419922","-0.053710938","58.78125","235.8125","-222.875"
"1537797424779","930","1.0751953","0.39941406","-0.091796875","57.25","208.03125","-219.5625"
"1537797424780","931","1.0048828","0.1015625","-0.12207031","42.90625","156.53125","-233.0625"
"1537797424979","932","0.90625","-0.0087890625","-0.07910156","7.9375","90.71875","-250.28125"
"1537797424980","933","0.7558594","0.040039062","-0.21582031","18.5625","21.8125","-234.53125"
"1537797424980","934","0.71777344","0.16992188","-0.46289062","61.21875","-25.5","-161.21875"
"1537797424980","935","0.49902344","0.24707031","-0.23144531","39.375","-102.75","-40.0625"
"1537797424980","936","0.68847656","0.6142578","0.14257812","44.0625","-177.40625","106.90625"
"1537797425573","937","0.53027344","0.9814453","0.24902344","80.5","-250.03125","234.15625"
"1537797425574","938","0.75390625","0.7949219","-0.1640625","71.28125","-131.0625","320.59375"
"1537797425574","939","1.3457031","0.984375","0.05859375","27.84375","-62.59375","350.3125"
"1537797425574","940","1.5244141","0.48339844","0.13867188","-109.375","-66.75","358.4375"
"1537797425575","941","1.2539062","0.71484375","0.19433594","-154.78125","-119.59375","265.84375"
"1537797425575","942","0.71484375","0.9423828","0.19433594","-91.4375","-111.71875","179.15625"
"1537797425576","943","0.5283203","0.60058594","0.23339844","19.90625","-62.90625","123.5625"
"1537797425577","944","0.6230469","0.32226562","0.21484375","29.65625","-25.375","64.3125"
"1537797425578","945","0.7626953","0.36328125","0.23730469","-21.71875","-17.3125","13.75"
"1537797425772","946","1.3388672","0.57128906","-0.15332031","47.65625","126.90625","-174.53125"
"1537797425773","947","1.1181641","0.38183594","-0.00390625","14.34375","133.15625","-206.9375"
"1537797425773","948","1.0224609","0.3310547","-0.013671875","0.3125","118.75","-229.28125"
"1537797425774","949","0.9238281","0.28125","-0.024414062","13.625","86.75","-250.75"
"1537797425971","950","0.7421875","0.21875","-0.0703125","15.0","47.9375","-243.8125"
"1537797425971","951","0.54003906","-0.021484375","-0.12890625","-28.75","12.1875","-219.5625"
"1537797425971","952","0.41796875","0.12011719","-0.12988281","-71.96875","-26.9375","-173.625"
"1537797425972","953","0.48242188","0.296875","-0.2939453","-54.5625","-60.75","-96.28125"
"1537797425972","954","0.78515625","0.42382812","0.14941406","-32.71875","-147.90625","4.90625"
"1537797425973","955","1.3466797","1.8857422","0.61328125","78.6875","-249.46875","126.9375"
"1537797426170","956","1.1386719","0.88964844","0.00390625","101.375","-189.0","198.46875"
"1537797426171","957","1.2802734","0.89746094","0.3515625","-75.125","-170.25","134.4375"
"1537797426171","958","0.82421875","0.6953125","0.23046875","-167.84375","-207.5625","107.40625"
"1537797426171","959","0.73339844","0.58691406","0.2919922","-213.625","-219.5625","87.625"
"1537797426171","960","0.5644531","0.54003906","0.3154297","-217.65625","-235.6875","71.625"
"1537797426369","961","0.5263672","0.5654297","0.34570312","-161.6875","-206.5","76.375"
"1537797426369","962","0.56152344","0.5605469","0.3388672","-98.5","-182.90625","90.1875"
"1537797426369","963","0.84765625","0.61621094","0.453125","-9.34375","-144.3125","108.90625"
"1537797426370","964","1.1884766","0.8457031","0.50683594","46.15625","-123.875","129.59375"
"1537797426371","965","1.2109375","0.7167969","0.3828125","19.28125","-80.28125","131.8125"
"1537797426567","966","1.5292969","1.1162109","0.3203125","-31.5","6.9375","98.90625"
"1537797426567","967","0.9316406","1.1337891","0.32421875","39.96875","54.53125","56.0625"
"1537797426567","968","0.5888672","0.38964844","0.2734375","93.8125","126.96875","-31.59375"
"1537797426568","969","0.9970703","0.8408203","0.09765625","129.34375","159.09375","-68.625"
"1537797426569","970","1.4277344","0.8017578","0.0546875","205.625","170.5625","-69.96875"
"1537797426768","971","1.7255859","0.22460938","0.18359375","163.03125","131.125","-110.5625"
"1537797426768","972","1.3886719","-0.001953125","0.14550781","29.40625","56.84375","-193.09375"
"1537797426769","973","1.109375","0.14257812","0.046875","-35.59375","55.4375","-237.09375"
"1537797426965","974","1.0097656","0.21191406","-0.0029296875","-46.75","79.6875","-255.84375"
"1537797426965","975","1.0625","0.140625","0.1171875","-53.03125","80.65625","-243.0"
"1537797426965","976","0.84375","0.21484375","0.00390625","-44.5625","43.5","-214.5"
"1537797426965","977","0.625","0.005859375","-0.16210938","37.96875","0.03125","-178.0"
"1537797426966","978","0.38671875","-0.25195312","-0.22753906","58.34375","-44.90625","-126.375"
"1537797426967","979","0.3671875","-0.119140625","-0.33496094","50.53125","-93.84375","-57.59375"
"1537797427163","980","0.3828125","-0.296875","-0.53808594","9.15625","-158.40625","63.1875"
"1537797427164","981","1.5136719","0.08496094","0.26367188","-140.3125","-244.125","294.84375"
"1537797427165","982","2.0136719","1.6992188","0.5175781","-222.40625","-370.21875","315.21875"
"1537797427165","983","1.9248047","1.8388672","-0.07421875","-3.84375","-207.6875","364.40625"
"1537797427165","984","1.765625","1.1914062","0.32226562","203.375","-117.46875","397.5"
"1537797427362","985","1.4677734","0.87109375","0.43066406","132.8125","-163.71875","318.5"
"1537797427363","986","0.60058594","0.6953125","0.32617188","39.0","-137.375","163.1875"
"1537797427363","987","0.3857422","0.49121094","0.4921875","-74.15625","-80.65625","27.25"
"1537797427363","988","0.18554688","1.015625","0.28710938","-140.5625","-38.96875","-31.65625"
"1537797427364","989","0.40820312","0.7949219","0.38964844","-10.3125","22.71875","-34.8125"
"1537797427561","990","0.9013672","0.5917969","0.40234375","57.1875","45.8125","-32.625"
"1537797427561","991","2.0136719","1.1455078","0.49023438","49.6875","63.75","-33.53125"
"1537797427561","992","1.9042969","0.4375","0.49121094","113.40625","66.3125","-129.25"
"1537797427561","993","1.8701172","0.030273438","0.3017578","-44.375","111.78125","-243.375"
"1537797427562","994","1.4101562","0.7011719","0.22265625","-154.125","153.40625","-247.78125"
"1537797427761","995","1.2138672","0.80078125","0.14160156","-73.78125","216.65625","-201.4375"
"1537797427957","996","1.2998047","0.6933594","0.14355469","91.25","256.8125","-192.84375"
"1537797428156","997","1.4560547","0.4560547","0.15722656","206.1875","243.4375","-224.625"
"1537797428355","998","1.4951172","0.025390625","0.08300781","194.21875","183.125","-271.09375"
"1537797428553","999","1.2802734","-0.31152344","-0.068359375","47.90625","101.53125","-295.125"
"1537797428555","1000","0.9609375","0.0029296875","-0.18652344","-50.78125","27.125","-262.46875"
"1537797428555","1001","0.6894531","0.0107421875","-0.4609375","-38.40625","-37.15625","-155.25"
"1537797428555","1002","0.67871094","-0.049804688","-0.10546875","-86.65625","-153.21875","54.46875"
"1537797428556","1003","0.84472656","1.3173828","-0.087890625","-67.6875","-264.4375","250.28125"
"1537797428558","1004","0.9267578","1.0888672","-0.0859375","109.125","-192.40625","369.46875"
"1537797428558","1005","1.3671875","1.0214844","0.20703125","80.9375","-173.9375","374.3125"
"1537797428559","1006","0.55566406","0.8066406","0.4658203","108.15625","-33.25","113.875"
"1537797428559","1007","1.3515625","0.7871094","0.12597656","21.0625","136.9375","-116.3125"
"1537797428753","1008","1.0039062","-0.16210938","0.16308594","-32.40625","43.90625","-281.59375"
"1537797428754","1009","0.89160156","-0.12402344","0.20507812","-74.59375","25.40625","-234.90625"
"1537797428754","1010","0.8378906","0.11035156","0.04296875","-52.0625","-14.5625","-148.84375"
"1537797428754","1011","0.5576172","-0.0625","-0.076171875","52.65625","-13.59375","-40.0625"
"1537797428755","1012","0.6455078","0.13769531","-0.09667969","105.78125","-92.3125","136.625"
"1537797428951","1013","0.984375","0.84472656","-0.39746094","136.15625","-114.0","321.875"
"1537797428952","1014","1.6054688","0.4638672","-0.5830078","110.53125","-13.78125","412.8125"
"1537797428952","1015","2.0136719","1.1835938","0.0234375","-139.34375","-95.0","312.84375"
"1537797428954","1016","1.5263672","1.1298828","0.03125","-99.1875","-142.4375","307.90625"
"1537797428954","1017","0.76464844","0.7324219","0.22753906","-39.5","-142.1875","162.5"
"1537797429150","1018","0.5332031","0.74316406","0.20117188","-9.34375","-58.4375","77.96875"
"1537797429151","1019","0.4453125","0.6953125","0.23730469","-15.5","-23.28125","18.65625"
"1537797429151","1020","0.32910156","0.47851562","0.15722656","-1.34375","20.0625","-26.53125"
"1537797429153","1021","0.421875","0.44433594","0.13964844","9.21875","28.53125","-70.46875"
"1537797429153","1022","0.9892578","0.2939453","0.10253906","2.4375","22.78125","-88.46875"
"1537797429348","1023","1.6123047","0.44628906","0.2939453","-51.625","-4.4375","-106.0"
"1537797429350","1024","2.0136719","0.88671875","0.2109375","-79.03125","-2.53125","-90.3125"
"1537797429350","1025","1.9824219","0.83496094","0.2607422","-68.1875","36.71875","-110.9375"
"1537797429351","1026","1.4560547","0.4970703","0.11035156","-58.65625","110.125","-160.375"
"1537797429547","1027","1.0244141","0.7236328","-0.018554688","-39.5625","154.09375","-180.8125"
"1537797429746","1028","0.8847656","0.6621094","-0.09082031","43.5625","161.59375","-167.03125"
"1537797429747","1029","0.7548828","0.31640625","-0.17382812","73.0625","148.59375","-158.90625"
"1537797429747","1030","0.7402344","-0.022460938","-0.12109375","28.0","109.78125","-168.4375"
"1537797429748","1031","0.63671875","0.06640625","-0.13671875","-19.78125","23.65625","-187.71875"
"1537797429748","1032","0.5566406","0.04296875","-0.22167969","35.875","-37.9375","-164.8125"
"1537797429749","1033","0.38867188","-0.14355469","-0.32128906","40.21875","-90.65625","-108.96875"
"1537797429948","1034","0.30078125","-0.08984375","-0.5058594","-25.09375","-150.53125","-4.96875"
"1537797429949","1035","1.0253906","0.42089844","0.057617188","-115.0625","-250.8125","169.46875"
"1537797429950","1036","1.15625","1.6572266","0.047851562","0.5","-300.8125","265.28125"
"1537797429950","1037","1.3740234","1.0556641","0.14257812","-22.84375","-31.96875","299.34375"
"1537797429950","1038","1.0546875","0.92285156","0.10253906","-59.15625","-65.78125","235.5"
"1537797429951","1039","0.8076172","0.82714844","0.16601562","-108.59375","-78.46875","121.90625"
"1537797429951","1040","0.5449219","0.7246094","0.24316406","-109.3125","-81.6875","33.65625"
"1537797429951","1041","0.4501953","0.66308594","0.24902344","-102.84375","-62.53125","-4.59375"
"1537797430144","1042","0.39746094","0.6660156","0.2607422","-99.5625","-31.40625","-13.21875"
"1537797430144","1043","0.48535156","0.6269531","0.3173828","-64.625","-3.09375","-17.90625"
"1537797430145","1044","0.78808594","0.6845703","0.27539062","-8.375","18.53125","-25.53125"
"1537797430146","1045","1.4462891","0.6328125","0.3564453","47.25","55.21875","-6.5625"
"1537797430146","1046","2.0136719","1.4296875","0.36816406","78.1875","30.0625","-6.375"
"1537797430345","1047","1.8232422","0.15527344","0.41503906","91.3125","32.6875","-88.03125"
"1537797430346","1048","1.0976562","0.3125","0.041992188","-98.34375","78.09375","-205.21875"
"1537797430346","1049","1.0292969","0.63378906","-0.03515625","-161.75","146.21875","-207.5625"
"1537797430346","1050","0.8574219","0.7558594","0.02734375","-94.46875","140.40625","-188.875"
"1537797430346","1051","0.64160156","0.54785156","-0.10546875","34.59375","106.03125","-166.65625"
"1537797430542","1052","0.52441406","0.23730469","-0.12402344","76.21875","69.0","-140.21875"
"1537797430543","1053","0.37402344","-0.047851562","-0.19628906","26.1875","5.8125","-126.0625"
"1537797430544","1054","0.24707031","-0.41992188","-0.43359375","-7.25","-58.6875","-107.75"
"1537797430544","1055","0.87597656","-0.18554688","-0.2998047","-133.3125","-143.34375","-21.34375"
"1537797430544","1056","2.0136719","0.95703125","0.46289062","-173.09375","-284.34375","112.53125"
"1537797430741","1057","1.9658203","1.6152344","0.3935547","112.96875","-341.9375","142.4375"
"1537797430741","1058","1.453125","0.82714844","-0.203125","33.03125","-109.59375","263.46875"
"1537797430741","1059","1.6513672","0.72753906","0.19238281","-108.875","-73.09375","271.03125"
"1537797430742","1060","1.3984375","0.9355469","0.49804688","-165.53125","-116.0625","281.40625"
"1537797430743","1061","0.7998047","0.9638672","0.4248047","-117.625","-166.34375","205.96875"
"1537797430942","1062","0.4296875","0.6435547","0.48242188","23.6875","-120.03125","123.75"
"1537797430942","1063","0.36621094","0.25976562","0.35839844","-9.15625","-59.65625","48.5"
"1537797430942","1064","0.5917969","0.36035156","0.36621094","-84.40625","-13.9375","-8.03125"
"1537797430942","1065","0.93066406","0.66796875","0.49023438","-124.40625","-8.09375","-30.0625"
"1537797430942","1066","1.1679688","0.6435547","0.6171875","-104.75","-2.84375","-28.03125"
"1537797431137","1067","1.5839844","1.0253906","0.5566406","-98.5625","-2.71875","-35.3125"
"1537797431139","1068","0.6611328","1.1728516","0.30566406","15.9375","80.90625","-16.75"
"1537797431140","1069","1.3330078","0.42089844","0.3544922","143.4375","197.28125","-58.375"
"1537797431140","1070","1.8642578","0.59375","0.25683594","220.59375","208.65625","-130.9375"
"1537797431140","1071","2.0136719","0.44140625","0.11621094","201.21875","150.71875","-195.46875"
"1537797431338","1072","1.6806641","0.23242188","0.068359375","102.53125","126.75","-236.3125"
"1537797431339","1073","1.4697266","0.09277344","-0.0107421875","29.34375","123.8125","-271.5"
"1537797431339","1074","1.1611328","0.1015625","0.018554688","-27.03125","108.125","-286.46875"
"1537797431339","1075","0.7402344","0.1640625","-0.0029296875","-71.40625","86.40625","-266.03125"
"1537797431339","1076","0.7441406","0.3125","-0.00390625","-58.84375","80.90625","-213.03125"
"1537797431535","1077","0.62109375","0.048828125","-0.029296875","17.28125","47.34375","-190.53125"
"1537797431537","1078","0.5097656","-0.11816406","-0.11035156","4.15625","-5.65625","-161.34375"
"1537797431537","1079","0.38671875","-0.048828125","-0.10449219","-0.375","-78.40625","-106.59375"
"1537797431538","1080","0.18945312","0.099609375","-0.12011719","14.46875","-149.75","-31.53125"
"1537797431538","1081","0.28808594","0.5732422","0.28027344","36.375","-234.34375","84.0"
"1537797431734","1082","0.6044922","1.3076172","0.095703125","176.375","-327.71875","266.6875"
"1537797431735","1083","1.2148438","1.1464844","0.21582031","244.3125","-189.4375","439.0"
"1537797431735","1084","1.6992188","0.86816406","-0.07421875","-126.15625","-156.53125","406.65625"
"1537797431736","1085","2.0136719","1.0830078","0.14355469","-200.1875","-91.9375","388.6875"
"1537797431736","1086","1.5888672","1.21875","0.3095703","-131.34375","-124.0","315.21875"
"1537797431936","1087","0.8300781","0.8466797","0.36035156","-7.09375","-122.96875","186.96875"
"1537797431936","1088","0.4326172","0.3955078","0.35351562","27.46875","-64.5625","88.46875"
"1537797431936","1089","0.36816406","0.2919922","0.24316406","-14.96875","-18.40625","8.75"
"1537797431936","1090","0.42578125","0.36621094","0.22070312","-54.75","7.90625","-37.75"
"1537797432133","1091","0.6015625","0.62890625","0.29101562","-78.1875","-2.40625","-39.8125"
"1537797432133","1092","0.89746094","0.59375","0.30859375","-36.125","-11.875","-30.71875"
"1537797432134","1093","1.828125","0.6191406","0.46972656","11.15625","7.15625","-29.9375"
"1537797432134","1094","2.0136719","0.5917969","0.54589844","23.1875","3.1875","-80.09375"
"1537797432135","1095","1.7324219","0.6230469","0.26171875","-11.65625","86.9375","-113.8125"
"1537797432332","1096","1.4033203","0.6748047","0.20214844","-22.90625","173.375","-119.28125"
"1537797432332","1097","1.1318359","0.6640625","0.15527344","36.9375","208.34375","-135.96875"
"1537797432333","1098","1.2890625","0.5419922","0.08496094","134.34375","215.0625","-169.15625"
"1537797432333","1099","1.3554688","0.33203125","0.00390625","169.96875","175.1875","-222.5"
"1537797432333","1100","1.3183594","-0.001953125","-0.033203125","115.15625","102.25","-277.3125"
"1537797432334","1101","1.0068359","-0.13574219","-0.16210938","6.84375","44.28125","-301.125"
"1537797432529","1102","0.71484375","-0.068359375","-0.21289062","-74.21875","12.65625","-283.84375"
"1537797432728","1103","0.59277344","0.3046875","-0.23144531","-60.625","-59.0625","-221.53125"
"1537797432729","1104","0.36816406","0.15917969","-0.23925781","42.78125","-122.21875","-88.28125"
"1537797432730","1105","0.48632812","0.23828125","-0.00390625","66.53125","-216.53125","71.875"
"1537797432730","1106","0.8388672","1.28125","0.34375","94.34375","-297.09375","256.75"
"1537797432731","1107","0.4326172","0.94628906","-0.18652344","187.0625","-187.65625","407.25"
"1537797432731","1108","1.3515625","0.21484375","0.23632812","46.5","-36.03125","410.75"
"1537797432733","1109","1.5048828","0.40234375","0.053710938","-188.96875","-38.125","360.0625"
"1537797432733","1110","1.3867188","1.1689453","0.14160156","-186.28125","-85.65625","331.75"
"1537797432928","1111","1.2285156","1.1123047","0.25878906","-44.1875","-111.53125","243.0625"
"1537797432928","1112","0.65234375","0.4169922","0.34375","56.28125","-115.21875","109.03125"
"1537797432928","1113","0.5722656","0.020507812","0.15332031","-25.21875","-53.375","6.3125"
"1537797432929","1114","0.6904297","0.21484375","0.18554688","-165.40625","7.21875","-55.5"
"1537797432929","1115","0.81347656","0.6582031","0.42578125","-256.21875","17.0","-74.8125"
"1537797433126","1116","1.0722656","1.1210938","0.2919922","-192.5625","12.40625","-46.34375"
"1537797433127","1117","1.9248047","1.03125","0.22558594","1.875","42.9375","-11.5"
"1537797433128","1118","1.7324219","0.7763672","0.16503906","65.0625","8.9375","-68.28125"
"1537797433129","1119","1.5625","0.24023438","0.030273438","42.15625","61.125","-100.625"
"1537797433129","1120","1.5136719","0.7841797","-0.13378906","-5.875","108.84375","-125.9375"
"1537797433326","1121","1.3701172","0.625","-0.047851562","38.6875","125.875","-129.53125"
"1537797433326","1122","1.1132812","0.42773438","-0.11621094","63.03125","119.0","-154.6875"
"1537797433327","1123","1.0664062","0.20996094","-0.10644531","62.4375","103.53125","-183.75"
"1537797433327","1124","0.8339844","0.08984375","-0.12792969","-3.90625","51.1875","-209.125"
"1537797433327","1125","0.6767578","0.10839844","-0.203125","-39.96875","25.71875","-204.75"
"1537797433525","1126","0.63964844","0.0234375","-0.14257812","-69.21875","-18.03125","-181.96875"
"1537797433526","1127","0.6796875","0.09667969","-0.1796875","-99.96875","-79.3125","-124.0"
"1537797433526","1128","0.80371094","0.06738281","-0.029296875","-99.5625","-152.875","-42.03125"
"1537797433526","1129","1.0332031","0.6435547","0.1484375","-99.75","-239.46875","57.46875"
"1537797433526","1130","1.3466797","1.0205078","0.11621094","50.65625","-251.3125","160.96875"
"1537797433724","1131","1.5634766","0.390625","0.02734375","147.40625","-180.40625","224.53125"
"1537797433725","1132","1.4375","0.36523438","0.0107421875","-27.28125","-148.59375","233.25"
"1537797433725","1133","1.1787109","0.33789062","0.14941406","-230.84375","-150.71875","205.34375"
"1537797433725","1134","0.9892578","0.59277344","0.31054688","-259.40625","-174.09375","121.6875"
"1537797433726","1135","0.90527344","0.67578125","0.33398438","-164.4375","-166.90625","81.875"
"1537797433923","1136","0.75878906","0.52734375","0.4091797","-104.8125","-140.53125","62.28125"
"1537797433924","1137","0.49609375","0.5810547","0.375","-100.65625","-104.71875","53.0"
"1537797433924","1138","0.18652344","0.70410156","0.31640625","-57.75","-42.15625","51.375"
"1537797433924","1139","0.20800781","0.5800781","0.24902344","27.46875","28.15625","45.75"
"1537797433924","1140","0.3828125","0.39453125","0.29882812","66.65625","46.59375","22.625"
"1537797434119","1141","0.6357422","0.3828125","0.21191406","40.71875","34.28125","-0.875"
"1537797434120","1142","1.0625","0.41601562","0.25878906","22.40625","43.53125","-17.96875"
"1537797434121","1143","2.0136719","1.1865234","0.36914062","-23.4375","20.15625","-23.09375"
"1537797434121","1144","1.9541016","1.0488281","0.24316406","53.09375","56.65625","-58.1875"
"1537797434122","1145","1.6523438","0.58496094","0.09765625","53.40625","174.59375","-144.8125"
"1537797434319","1146","1.5263672","0.86621094","-0.025390625","66.34375","216.15625","-176.65625"
"1537797434319","1147","1.2441406","0.47753906","-0.0068359375","114.1875","208.9375","-198.15625"
"1537797434320","1148","1.0322266","0.26660156","-0.016601562","99.3125","189.125","-218.21875"
"1537797434320","1149","0.8808594","0.19335938","-0.087890625","45.96875","131.625","-235.625"
"1537797434320","1150","0.73046875","0.0048828125","-0.12597656","24.78125","87.78125","-250.03125"
"1537797434517","1151","0.6142578","-0.033203125","-0.07421875","-43.28125","34.40625","-246.78125"
"1537797434517","1152","0.6015625","0.2109375","-0.18652344","-23.5","-11.875","-210.78125"
"1537797434518","1153","0.6142578","0.16113281","-0.18652344","20.4375","-54.0625","-124.78125"
"1537797434520","1154","0.5136719","0.47070312","-0.009765625","40.28125","-124.125","15.46875"
"1537797434520","1155","0.6748047","1.1162109","-0.068359375","131.65625","-124.125","204.8125"
"1537797434715","1156","0.5","0.5546875","-0.115234375","125.4375","-51.65625","362.34375"
"1537797434715","1157","1.3613281","0.9824219","-0.0546875","-7.5","-40.8125","401.46875"
"1537797434716","1158","1.2998047","0.9765625","0.052734375","-20.4375","-62.96875","378.03125"
"1537797434717","1159","1.2470703","0.96191406","0.08105469","3.34375","-94.9375","284.15625"
"1537797434718","1160","1.0595703","0.9667969","0.19824219","-2.03125","-99.03125","226.03125"
"1537797434917","1161","0.57128906","0.5654297","0.2529297","14.34375","-73.59375","121.84375"
"1537797434917","1162","0.5576172","0.48632812","0.24902344","-52.125","-23.28125","33.78125"
"1537797434917","1163","0.44726562","0.7207031","0.14453125","-58.28125","11.375","2.0"
"1537797434917","1164","0.5625","0.71777344","0.12792969","9.8125","38.65625","0.03125"
"1537797434918","1165","1.0097656","0.8955078","0.048828125","70.78125","39.34375","1.6875"
"1537797435113","1166","2.0136719","0.67578125","0.28027344","132.375","41.71875","9.625"
"1537797435114","1167","2.0136719","0.40039062","0.42089844","58.21875","-30.78125","-88.78125"
"1537797435114","1168","1.6259766","0.07421875","0.24902344","-78.375","11.1875","-184.96875"
"1537797435115","1169","1.1503906","0.6689453","0.099609375","-185.3125","101.96875","-190.875"
"1537797435115","1170","0.8925781","0.8232422","0.14257812","-96.6875","149.8125","-143.84375"
"1537797435313","1171","0.7597656","0.6933594","0.13476562","56.5","155.375","-121.625"
"1537797435315","1172","0.69921875","0.35546875","0.078125","163.4375","144.875","-129.84375"
"1537797435315","1173","0.63378906","0.022460938","0.09277344","138.46875","102.1875","-157.0"
"1537797435315","1174","0.5957031","-0.016601562","-0.020507812","49.96875","61.78125","-172.09375"
"1537797435315","1175","0.50878906","-0.021484375","-0.051757812","-7.6875","29.875","-168.1875"
"1537797435511","1176","0.45507812","0.13964844","-0.13574219","-29.4375","-11.4375","-137.71875"
"1537797435513","1177","0.54589844","0.20703125","-0.16894531","-27.59375","-60.46875","-51.1875"
"1537797435514","1178","0.87597656","0.9609375","0.033203125","-30.65625","-129.125","100.96875"
"1537797435514","1179","1.1103516","1.1679688","-0.0234375","23.25","-114.71875","278.65625"
"1537797435514","1180","1.3212891","0.8154297","-0.030273438","42.96875","-33.3125","285.75"
"1537797435709","1181","1.3076172","1.1005859","-0.08496094","-39.5","-40.875","275.3125"
"1537797435710","1182","1.0029297","0.7705078","0.09863281","-13.96875","-70.28125","234.34375"
"1537797435710","1183","0.63378906","0.4482422","0.17675781","46.5","-79.5","137.46875"
"1537797435711","1184","0.4296875","0.4033203","0.14453125","9.5625","-66.1875","65.34375"
"1537797435712","1185","0.20996094","0.3857422","0.14550781","-28.25","-47.34375","34.8125"
"1537797435910","1186","0.22167969","0.3017578","0.20507812","-50.3125","-17.1875","14.6875"
"1537797435911","1187","0.6660156","0.4580078","0.20507812","-44.8125","-3.21875","12.84375"
"1537797435911","1188","1.9794922","0.6845703","0.4140625","-8.78125","-4.125","58.1875"
"1537797435911","1189","2.0136719","1.2871094","0.6982422","15.9375","-96.21875","9.375"
"1537797435912","1190","1.5048828","0.5517578","0.39648438","84.65625","-8.9375","-52.09375"
"1537797436107","1191","1.1425781","0.28710938","0.33203125","-97.65625","95.78125","-145.84375"
"1537797436107","1192","0.85546875","0.60253906","0.25","-157.0","163.65625","-188.5"
"1537797436107","1193","0.9199219","0.90625","0.07910156","-30.9375","191.90625","-171.46875"
"1537797436109","1194","0.87890625","0.6171875","0.01953125","124.125","186.0625","-156.53125"
"1537797436109","1195","0.82910156","0.2109375","-0.0078125","150.75","138.53125","-165.8125"
"1537797436307","1196","0.7294922","-0.048828125","-0.14257812","73.1875","76.3125","-172.21875"
"1537797436308","1197","0.82421875","-0.038085938","-0.29589844","-20.625","21.15625","-149.5"
"1537797436308","1198","0.89746094","-0.013671875","-0.26367188","-55.96875","-53.0625","-96.40625"
"1537797436308","1199","1.4023438","0.70214844","-0.001953125","-74.90625","-145.25","54.96875"
"1537797436308","1200","1.1132812","1.1298828","-0.1875","28.4375","-183.6875","204.9375"
"1537797436505","1201","0.8779297","0.87109375","-0.18261719","110.46875","-71.1875","282.4375"
"1537797436505","1202","1.1083984","0.4482422","0.021484375","79.875","-38.125","276.03125"
"1537797436505","1203","1.0585938","0.7080078","0.016601562","-39.0625","-71.875","224.40625"
"1537797436506","1204","0.7373047","0.7705078","0.20019531","-66.59375","-81.6875","182.84375"
"1537797436506","1205","0.53027344","0.72753906","0.23535156","-46.34375","-76.15625","122.09375"
"1537797436703","1206","0.49121094","0.59375","0.2529297","8.65625","-49.40625","63.6875"
"1537797436703","1207","0.6816406","0.4326172","0.2841797","-5.875","-32.3125","15.71875"
"1537797436704","1208","1.1289062","0.5888672","0.3076172","-45.53125","-21.59375","-16.21875"
"1537797436704","1209","1.7119141","0.625","0.34472656","-32.59375","5.59375","-23.84375"
"1537797436705","1210","1.8535156","0.71875","0.37597656","-26.375","-1.9375","-81.15625"
"1537797436902","1211","1.5351562","0.4296875","0.29589844","-53.78125","53.1875","-143.03125"
"1537797436903","1212","1.2734375","0.6953125","0.23730469","-77.34375","110.3125","-175.9375"
"1537797436904","1213","0.84765625","0.62890625","0.07421875","-34.125","152.5625","-168.71875"
"1537797436904","1214","0.7207031","0.58984375","0.026367188","27.15625","167.875","-143.84375"
"1537797436904","1215","0.68847656","0.43066406","-0.034179688","57.71875","140.46875","-126.3125"
"1537797437101","1216","0.6328125","0.20507812","-0.09375","50.03125","98.96875","-127.71875"
"1537797437101","1217","0.59765625","-0.041992188","-0.11816406","11.53125","54.96875","-141.15625"
"1537797437101","1218","0.5839844","0.016601562","-0.109375","-41.8125","-7.71875","-146.09375"
"1537797437101","1219","0.5517578","0.13476562","-0.22167969","-40.46875","-56.96875","-111.34375"
"1537797437102","1220","0.71484375","0.3876953","-0.06347656","-48.96875","-114.90625","-22.84375"
"1537797437301","1221","1.0605469","0.8613281","-0.009765625","16.78125","-173.8125","92.3125"
"1537797437301","1222","1.4082031","0.78808594","0.13867188","79.59375","-177.59375","213.09375"
"1537797437500","1223","1.3710938","0.5761719","-0.1015625","-41.21875","-150.65625","270.0"
"1537797437501","1224","1.6787109","0.88964844","-0.040039062","-170.71875","-136.375","258.5625"
"1537797437501","1225","1.1376953","1.4013672","0.1328125","-107.1875","-153.40625","242.21875"
"1537797437501","1226","0.7939453","0.8144531","0.35742188","-37.1875","-115.9375","174.96875"
"1537797437501","1227","0.5419922","0.6689453","0.3125","-36.09375","-89.9375","113.25"
"1537797437501","1228","0.44140625","0.45410156","0.2578125","-26.9375","-33.90625","42.09375"
"1537797437503","1229","0.67285156","0.49316406","0.3076172","-71.1875","-7.53125","0.28125"
"1537797437503","1230","0.7871094","0.8017578","0.26171875","-63.84375","0.34375","2.53125"
"1537797437697","1231","0.80371094","0.86328125","0.2685547","-21.5625","13.53125","7.40625"
"1537797437697","1232","1.0117188","0.7265625","0.23632812","8.125","35.84375","-9.84375"
"1537797437697","1233","1.5986328","0.84472656","0.11328125","26.78125","64.59375","-42.8125"
"1537797437698","1234","1.6201172","0.7080078","0.07324219","15.125","47.75","-111.53125"
"1537797437699","1235","2.0136719","0.49414062","0.045898438","-18.25","76.125","-153.28125"
"1537797437898","1236","1.8945312","0.53222656","0.107421875","-72.46875","58.8125","-205.53125"
"1537797437898","1237","1.2373047","0.609375","0.026367188","-71.0","75.53125","-204.75"
"1537797437898","1238","1.0625","0.5966797","-0.07324219","-8.90625","122.53125","-188.75"
"1537797437899","1239","1.0595703","0.35058594","-0.00390625","52.71875","118.625","-183.0"
"1537797437899","1240","0.7734375","0.068359375","-0.024414062","27.8125","63.25","-187.53125"
"1537797438095","1241","0.578125","0.09667969","-0.08203125","-20.34375","1.8125","-171.21875"
"1537797438095","1242","0.45898438","-0.015625","-0.15332031","-21.3125","-44.84375","-130.40625"
"1537797438095","1243","0.5029297","0.0859375","-0.10058594","-53.34375","-101.65625","-73.8125"
"1537797438095","1244","0.7060547","0.028320312","-0.001953125","-51.8125","-160.875","4.375"
"1537797438295","1245","1.2578125","0.66796875","0.24316406","-73.375","-242.40625","90.96875"
"1537797438296","1246","1.6025391","0.8574219","0.34765625","26.25","-273.90625","186.3125"
"1537797438296","1247","1.5966797","0.3330078","0.22460938","28.25","-215.125","209.5625"
"1537797438296","1248","1.4863281","0.7392578","0.32226562","-162.34375","-181.96875","210.71875"
"1537797438297","1249","1.0693359","0.66503906","0.42578125","-226.75","-184.375","198.875"
"1537797438492","1250","0.7548828","0.79296875","0.35546875","-139.34375","-166.46875","145.46875"
"1537797438492","1251","0.7294922","0.68652344","0.44433594","-30.78125","-136.15625","120.03125"
"1537797438492","1252","0.43066406","0.6015625","0.40039062","1.53125","-106.78125","97.0625"
"1537797438493","1253","0.40527344","0.4501953","0.36621094","-2.09375","-48.375","72.1875"
"1537797438494","1254","0.33398438","0.52246094","0.34277344","-30.84375","-16.40625","43.125"
"1537797438691","1255","0.39746094","0.39257812","0.30371094","-27.65625","22.78125","22.125"
"1537797438692","1256","0.61035156","0.44140625","0.34375","-27.34375","42.3125","8.5625"
"1537797438692","1257","0.90722656","0.84277344","0.2939453","21.53125","55.6875","17.0"
"1537797438692","1258","2.0136719","0.9628906","0.5175781","152.09375","114.28125","49.09375"
"1537797438693","1259","2.0136719","0.5546875","0.44335938","184.375","30.0625","-75.28125"
"1537797438891","1260","1.96875","-0.328125","0.20507812","36.3125","88.28125","-206.6875"
"1537797438892","1261","1.2675781","0.52734375","0.072265625","-143.75","142.125","-258.09375"
"1537797438892","1262","1.1220703","0.8027344","0.052734375","-94.0625","211.75","-204.9375"
"1537797438892","1263","1.1123047","0.6738281","0.095703125","50.34375","233.1875","-180.75"
"1537797438893","1264","1.0527344","0.36914062","0.1015625","137.6875","188.375","-188.875"
"1537797439088","1265","0.9277344","0.0087890625","0.00390625","121.4375","125.5625","-200.71875"
"1537797439089","1266","0.671875","-0.16015625","-0.08203125","35.8125","66.3125","-204.0625"
"1537797439089","1267","0.5263672","-0.03515625","-0.14941406","-28.03125","20.59375","-169.59375"
"1537797439089","1268","0.40429688","0.13964844","-0.20019531","-30.15625","-27.1875","-107.4375"
"1537797439090","1269","0.5654297","0.4013672","-0.11816406","-6.0","-92.1875","-15.34375"
"1537797439289","1270","0.90722656","0.91015625","0.24511719","67.125","-192.0625","104.65625"
"1537797439289","1271","0.7998047","1.2080078","0.42089844","240.46875","-252.90625","252.21875"
"1537797439289","1272","1.0371094","0.43164062","-0.23632812","105.34375","-132.71875","336.9375"
"1537797439290","1273","1.640625","0.77441406","0.034179688","-127.15625","-59.375","320.65625"
"1537797439291","1274","1.5908203","1.0205078","0.22363281","-225.15625","-110.9375","297.28125"
"1537797439488","1275","1.0273438","1.1503906","0.22167969","-77.03125","-161.65625","217.0"
"1537797439488","1276","0.74609375","0.51464844","0.39941406","36.25","-133.03125","123.875"
"1537797439488","1277","0.7128906","0.23144531","0.32226562","-41.6875","-98.375","52.8125"
"1537797439488","1278","0.71484375","0.46875","0.27539062","-134.65625","-50.09375","19.125"
"1537797439489","1279","0.42773438","0.74316406","0.2861328","-144.59375","-17.90625","17.0"
"1537797439685","1280","0.28222656","0.63671875","0.22363281","-44.8125","16.625","19.3125"
"1537797439685","1281","0.5839844","0.5439453","0.23144531","39.40625","38.78125","10.09375"
"1537797439686","1282","1.078125","0.58203125","0.23339844","52.46875","18.875","-0.03125"
"1537797439686","1283","1.8320312","0.4716797","0.21582031","52.125","25.0","-15.46875"
"1537797439686","1284","2.0136719","0.78222656","0.1640625","-22.46875","9.125","-85.71875"
"1537797439883","1285","1.6367188","0.42578125","0.06347656","-61.21875","70.78125","-148.59375"
"1537797439884","1286","1.2197266","0.5966797","-0.036132812","-93.09375","124.84375","-194.59375"
