"# PDIoT walking data"
"# Start time: 20180924T141715"
"# Group: C"
"# Subject: TestCjoao"
"# Activity type: Descending stairs"
"# Sensor position: Wrist"
"# Side of body: Right"
"# Sensor mounting: Body"
"# Number of steps: 30"
"# Notes: Blue side of sensor facing body, purple sensor
"
""
"timestamp","seq","accel_x","accel_y","accel_z","gyro_x","gyro_y","gyro_z"
"1537795035702","0","-1.1064453","0.2763672","-0.20800781","43.65625","20.09375","74.71875"
"1537795035705","1","-1.0693359","0.2265625","-0.19433594","42.25","31.875","82.53125"
"1537795035705","2","-1.0400391","0.19628906","-0.18554688","36.9375","36.9375","83.375"
"1537795035706","3","-1.0048828","0.16796875","-0.18359375","29.90625","37.09375","76.5"
"1537795035706","4","-0.92578125","0.17285156","-0.17578125","17.96875","32.90625","64.40625"
"1537795035902","5","-0.8964844","0.17382812","-0.18261719","9.46875","21.375","47.25"
"1537795035903","6","-0.86035156","0.19335938","-0.17382812","3.71875","12.6875","26.875"
"1537795035903","7","-0.84472656","0.20605469","-0.15722656","5.75","-1.59375","6.125"
"1537795035903","8","-0.8652344","0.20214844","-0.15527344","7.34375","-11.34375","-13.84375"
"1537795035904","9","-0.9033203","0.20800781","-0.16308594","-0.90625","-19.84375","-32.28125"
"1537795036100","10","-0.9160156","0.22363281","-0.15234375","-13.59375","-25.8125","-46.8125"
"1537795036101","11","-0.9160156","0.26367188","-0.14746094","-22.28125","-30.40625","-55.09375"
"1537795036101","12","-0.97265625","0.29296875","-0.171875","-17.875","-41.6875","-62.125"
"1537795036101","13","-1.0126953","0.3046875","-0.20214844","-11.53125","-43.625","-63.90625"
"1537795036103","14","-0.9316406","0.28808594","-0.13769531","-14.8125","-38.34375","-56.03125"
"1537795036499","15","-1.1591797","0.29101562","-0.20019531","-1.6875","-53.15625","-61.4375"
"1537795036499","16","-1.1611328","0.3173828","-0.24511719","-21.03125","-25.9375","-64.5625"
"1537795036499","17","-0.8652344","0.3388672","-0.21679688","-41.96875","-10.0","-41.75"
"1537795036500","18","-0.99902344","0.2734375","-0.18554688","-41.0","3.65625","-24.34375"
"1537795036501","19","-0.9716797","0.31054688","-0.099609375","-47.09375","19.28125","-12.9375"
"1537795036501","20","-1.0761719","0.3076172","-0.103515625","-65.71875","36.375","-1.9375"
"1537795036501","21","-1.0517578","0.37597656","-0.08300781","-81.09375","42.59375","12.34375"
"1537795036501","22","-1.0","0.40820312","-0.09375","-60.78125","43.46875","26.8125"
"1537795036502","23","-0.8652344","0.3154297","-0.07421875","-22.09375","34.0","38.84375"
"1537795036697","24","-0.88671875","0.13574219","-0.22167969","-33.875","-8.1875","17.65625"
"1537795036698","25","-0.7763672","0.22363281","-0.25585938","-61.5625","-17.03125","3.3125"
"1537795036699","26","-0.6591797","0.27539062","-0.25585938","-38.5625","-29.125","-13.53125"
"1537795036699","27","-0.64160156","0.265625","-0.28515625","-1.6875","-41.0625","-28.1875"
"1537795036699","28","-0.5498047","0.25","-0.3046875","16.375","-46.9375","-34.96875"
"1537795036895","29","-0.5029297","0.26660156","-0.33984375","25.78125","-52.6875","-34.21875"
"1537795036896","30","-0.53515625","0.27441406","-0.36035156","44.625","-57.625","-31.78125"
"1537795037095","31","-0.63671875","0.27929688","-0.3798828","55.5","-59.375","-28.125"
"1537795037095","32","-0.9765625","0.34960938","-0.42285156","65.25","-59.875","-26.65625"
"1537795037097","33","-1.3769531","0.43359375","-0.36132812","72.53125","-32.65625","-25.875"
"1537795037097","34","-1.8300781","0.62402344","-0.19238281","99.25","-6.59375","-21.59375"
"1537795037098","35","-1.9921875","0.64941406","-0.09765625","120.625","49.5","-19.21875"
"1537795037098","36","-1.8232422","0.39648438","0.041015625","98.03125","117.6875","16.125"
"1537795037098","37","-1.4824219","0.13867188","-0.01953125","29.5","158.25","71.375"
"1537795037099","38","-0.96875","0.17773438","-9.765625E-4","-37.59375","162.46875","126.96875"
"1537795037292","39","-0.7373047","0.27929688","0.017578125","-49.4375","150.5","156.6875"
"1537795037293","40","-0.5283203","0.33007812","0.0048828125","-17.8125","138.1875","167.6875"
"1537795037293","41","-0.5048828","0.34472656","0.03125","34.0","114.0","158.75"
"1537795037295","42","-0.5810547","0.3017578","0.037109375","113.28125","96.0","125.5625"
"1537795037296","43","-0.64941406","0.12402344","0.017578125","131.125","86.5625","93.28125"
"1537795037491","44","-0.83203125","0.12402344","-0.04296875","117.1875","55.84375","50.4375"
"1537795037491","45","-0.9941406","-0.05859375","0.0107421875","66.53125","7.6875","-16.84375"
"1537795037492","46","-1.0029297","0.16894531","-0.22167969","-49.78125","-67.6875","-84.9375"
"1537795037492","47","-0.99121094","0.25585938","-0.4404297","-118.03125","-136.90625","-109.3125"
"1537795037494","48","-0.8847656","0.31054688","-0.3125","-57.375","-164.84375","-119.25"
"1537795037691","49","-0.98535156","0.22363281","-0.23828125","44.5625","-199.28125","-141.84375"
"1537795037691","50","-1.1376953","0.14941406","-0.31347656","23.25","-198.4375","-144.875"
"1537795037691","51","-1.0527344","0.18457031","-0.36328125","-45.875","-160.53125","-137.75"
"1537795037691","52","-0.8330078","0.21484375","-0.38183594","-73.59375","-126.28125","-113.6875"
"1537795037692","53","-0.80371094","0.29003906","-0.44433594","-48.34375","-104.0625","-89.90625"
"1537795037889","54","-0.9404297","0.2685547","-0.5263672","-23.65625","-85.4375","-60.28125"
"1537795037890","55","-1.3212891","0.2685547","-0.4658203","-31.125","-61.15625","-34.53125"
"1537795037890","56","-1.8388672","0.44726562","-0.43847656","-40.09375","-31.1875","-20.0"
"1537795037891","57","-1.9482422","0.75","-0.4111328","-10.4375","36.6875","0.6875"
"1537795037891","58","-1.671875","0.5048828","-0.28808594","53.53125","70.875","43.90625"
"1537795038088","59","-1.4580078","0.1640625","-0.21484375","47.1875","118.15625","89.125"
"1537795038088","60","-0.9326172","0.18066406","-0.107421875","0.25","139.78125","141.25"
"1537795038089","61","-0.7841797","0.2548828","-0.07714844","-5.125","137.5","171.46875"
"1537795038089","62","-0.68066406","0.29003906","-0.10644531","24.5625","140.0","185.625"
"1537795038091","63","-0.82714844","0.27929688","-0.07421875","68.25","139.53125","186.46875"
"1537795038287","64","-0.88964844","0.20117188","9.765625E-4","103.53125","149.28125","180.84375"
"1537795038287","65","-1.3222656","0.083984375","-0.034179688","131.96875","129.09375","140.34375"
"1537795038289","66","-1.3681641","-0.19140625","-0.053710938","100.34375","120.90625","49.9375"
"1537795038289","67","-1.0175781","0.018554688","-0.2685547","-65.34375","34.59375","-40.5625"
"1537795038290","68","-0.8417969","0.20507812","-0.5683594","-145.0","-14.71875","-70.5"
"1537795038882","69","-0.62109375","0.18554688","-0.41308594","-74.4375","-30.21875","-96.53125"
"1537795038883","70","-0.49414062","0.005859375","-0.18847656","-23.125","-64.8125","-128.96875"
"1537795038884","71","-0.6347656","0.022460938","-0.13964844","-74.34375","-88.5","-153.125"
"1537795039081","72","-0.6748047","0.14648438","-0.18066406","-128.21875","-90.625","-176.875"
"1537795039084","73","-0.8720703","0.29101562","-0.20800781","-141.65625","-90.625","-192.625"
"1537795039084","74","-1.0634766","0.43359375","-0.22558594","-121.21875","-91.90625","-200.0"
"1537795039084","75","-1.5673828","0.5654297","-0.28515625","-71.28125","-98.8125","-194.8125"
"1537795039084","76","-1.9003906","0.6621094","-0.2685547","-43.09375","-74.84375","-157.8125"
"1537795039084","77","-1.9013672","0.78027344","-0.3798828","-7.5","-32.21875","-92.875"
"1537795039087","78","-0.73046875","0.26464844","-0.22753906","73.125","66.59375","111.65625"
"1537795039087","79","-0.9267578","0.14453125","-0.140625","86.125","88.6875","108.40625"
"1537795039087","80","-1.0283203","-0.016601562","-0.08886719","54.09375","109.75","94.1875"
"1537795039280","81","-1.0693359","0.20019531","-0.16503906","-97.59375","6.09375","45.1875"
"1537795039281","82","-1.1386719","0.37402344","-0.34277344","-41.125","-50.125","-1.9375"
"1537795039281","83","-0.9199219","0.37109375","-0.3544922","27.0625","-111.375","-38.8125"
"1537795039282","84","-0.76464844","0.21875","-0.34179688","116.71875","-134.46875","-59.9375"
"1537795039479","85","-0.56152344","0.18847656","-0.30078125","137.28125","-131.71875","-55.34375"
"1537795039480","86","-0.3642578","0.051757812","-0.23925781","113.53125","-124.15625","-42.59375"
"1537795039481","87","-0.5048828","0.07421875","-0.28320312","79.96875","-130.1875","-48.875"
"1537795039482","88","-0.65625","0.119140625","-0.37890625","71.0625","-117.8125","-64.6875"
"1537795039482","89","-0.9921875","0.17871094","-0.4091797","64.09375","-91.5625","-78.40625"
"1537795039482","90","-1.3291016","0.20117188","-0.32617188","51.40625","-59.15625","-85.375"
"1537795039679","91","-1.7998047","0.29101562","-0.087890625","13.125","-18.25","-73.59375"
"1537795039679","92","-1.9921875","0.55371094","-0.28515625","4.03125","30.15625","-35.5"
"1537795039679","93","-1.5068359","0.33203125","-0.041992188","-2.625","141.0625","46.65625"
"1537795039680","94","-1.4130859","0.0546875","-0.03515625","20.21875","139.15625","106.59375"
"1537795039680","95","-0.9794922","0.083984375","-0.020507812","-29.90625","139.03125","132.625"
"1537795039877","96","-0.7089844","0.2998047","-0.057617188","-71.15625","122.625","138.625"
"1537795039877","97","-0.6386719","0.3876953","-0.16113281","-40.46875","98.15625","117.6875"
"1537795039878","98","-0.68359375","0.41601562","-0.060546875","14.125","81.96875","84.1875"
"1537795039878","99","-0.75097656","0.30859375","0.06347656","63.5625","75.4375","50.0625"
"1537795039879","100","-0.62109375","0.16796875","0.09472656","48.15625","74.9375","26.1875"
"1537795040076","101","-0.5488281","0.14648438","0.024414062","-4.75","48.9375","11.90625"
"1537795040077","102","-0.52441406","0.17773438","-0.07910156","-41.0","10.9375","-7.8125"
"1537795040077","103","-0.7607422","0.24902344","-0.2548828","-53.9375","-24.0","-37.90625"
"1537795040078","104","-0.7548828","0.2529297","-0.087890625","-56.9375","-59.03125","-78.84375"
"1537795040078","105","-1.2773438","0.453125","-0.14941406","-29.53125","-128.28125","-128.34375"
"1537795040275","106","-1.5351562","0.4453125","-0.55859375","26.6875","-163.75","-155.25"
"1537795040275","107","-1.3056641","0.43554688","-0.74121094","119.6875","-144.78125","-134.875"
"1537795040672","108","-1.0253906","0.25097656","-0.49902344","180.625","-124.03125","-98.8125"
"1537795040673","109","-1.0263672","0.09277344","-0.44335938","120.96875","-89.65625","-56.625"
"1537795040673","110","-0.9111328","0.16503906","-0.5136719","45.125","-46.3125","-31.78125"
"1537795040674","111","-0.6777344","0.24511719","-0.5576172","38.15625","-5.5625","-13.0"
"1537795040675","112","-0.42382812","0.2685547","-0.5625","46.75","11.59375","0.9375"
"1537795040676","113","-0.3984375","0.35253906","-0.5283203","45.78125","12.03125","5.625"
"1537795040676","114","-0.6230469","0.50390625","-0.43164062","65.1875","18.375","4.65625"
"1537795040676","115","-0.8417969","0.5185547","-0.038085938","80.34375","17.6875","9.46875"
"1537795040677","116","-1.9921875","1.0361328","0.19238281","144.3125","-87.09375","22.59375"
"1537795041071","117","-1.9921875","1.0263672","0.3701172","197.875","159.71875","38.71875"
"1537795041071","118","-0.9189453","0.20605469","0.2578125","-33.375","136.53125","233.65625"
"1537795041071","119","-0.6191406","0.20019531","0.2734375","-57.0625","103.21875","242.5625"
"1537795041071","120","-0.7402344","0.22070312","0.16699219","13.6875","58.65625","222.84375"
"1537795041073","121","-0.57910156","0.14355469","0.09277344","81.6875","57.0","184.28125"
"1537795041073","122","-0.5019531","0.043945312","0.052734375","97.46875","41.625","154.25"
"1537795041073","123","-0.49804688","-0.047851562","0.06542969","79.1875","44.0625","122.03125"
"1537795041073","124","-0.37597656","-0.09765625","0.043945312","47.8125","47.71875","75.875"
"1537795041074","125","-0.45703125","0.07519531","-0.08203125","21.0","13.96875","10.25"
"1537795041267","126","-1.1533203","0.46289062","-0.6220703","-155.03125","-146.78125","-241.03125"
"1537795041269","127","-1.3496094","0.88964844","-0.7890625","-91.46875","-169.875","-263.125"
"1537795041269","128","-1.2802734","0.44726562","-0.63964844","3.84375","-180.0625","-275.4375"
"1537795041269","129","-1.4716797","0.5029297","-0.640625","-7.25","-170.53125","-254.25"
"1537795041270","130","-1.203125","0.61035156","-0.46679688","-30.75","-104.6875","-232.90625"
"1537795041467","131","-0.9160156","0.72558594","-0.39746094","-23.0625","-59.03125","-181.5625"
"1537795041468","132","-0.70996094","0.7207031","-0.39257812","16.625","-33.15625","-116.3125"
"1537795041469","133","-0.7138672","0.5107422","-0.38867188","47.1875","-22.40625","-54.0625"
"1537795041469","134","-0.71972656","0.43554688","-0.4140625","43.53125","-8.4375","-1.40625"
"1537795041469","135","-0.88378906","0.49902344","-0.3779297","49.875","-4.40625","26.75"
"1537795041665","136","-1.1904297","0.5800781","-0.2705078","78.875","2.1875","38.78125"
"1537795041665","137","-1.9921875","0.8300781","-0.05078125","112.0625","-3.28125","42.125"
"1537795041666","138","-1.9921875","0.6982422","0.009765625","148.375","89.21875","59.15625"
"1537795041666","139","-1.9921875","0.29882812","0.08886719","153.875","108.8125","113.65625"
"1537795041865","140","-1.3476562","0.06933594","0.07128906","110.25","168.75","167.4375"
"1537795041865","141","-1.1171875","0.15722656","0.068359375","44.625","153.1875","209.59375"
"1537795041865","142","-0.8496094","0.21191406","-0.026367188","9.21875","158.9375","231.34375"
"1537795041866","143","-0.8339844","0.32617188","0.09472656","8.875","130.75","235.375"
"1537795041866","144","-0.85546875","0.359375","0.15234375","54.09375","114.9375","210.21875"
"1537795041867","145","-0.87402344","0.234375","0.11816406","108.78125","71.03125","165.28125"
"1537795042064","146","-0.8564453","0.08496094","-0.048828125","117.625","28.4375","99.0"
"1537795042064","147","-0.9082031","-0.045898438","-0.14648438","55.1875","-32.90625","22.46875"
"1537795042064","148","-0.7167969","0.024414062","-0.2998047","-67.4375","-120.0","-34.40625"
"1537795042064","149","-0.765625","0.20605469","-0.6201172","-37.84375","-186.09375","-87.875"
"1537795042065","150","-0.7626953","0.08105469","-0.43847656","35.28125","-206.46875","-125.0"
"1537795042262","151","-0.91015625","0.14160156","-0.23046875","45.0","-221.4375","-150.25"
"1537795042262","152","-1.0097656","-0.04296875","-0.54785156","22.84375","-191.53125","-163.8125"
"1537795042264","153","-0.9580078","0.078125","-0.6689453","-32.71875","-161.125","-157.59375"
"1537795042264","154","-0.8925781","0.33398438","-0.65625","-34.59375","-134.40625","-154.90625"
"1537795042264","155","-0.8535156","0.42578125","-0.79785156","19.96875","-104.0","-142.625"
"1537795042461","156","-0.7294922","0.45117188","-0.67871094","22.96875","-59.8125","-97.03125"
"1537795042461","157","-0.99609375","0.51464844","-0.49902344","43.53125","-32.90625","-36.96875"
"1537795042462","158","-1.9921875","0.6875","-0.2109375","52.6875","-37.40625","12.09375"
"1537795042462","159","-1.9921875","0.69433594","0.109375","-4.1875","148.3125","20.21875"
"1537795042462","160","-1.9921875","0.61035156","-0.13671875","16.4375","89.78125","101.03125"
"1537795042659","161","-1.7929688","0.37890625","0.024414062","53.0","137.9375","142.21875"
"1537795042660","162","-1.2451172","0.45410156","0.1640625","55.4375","114.0625","187.6875"
"1537795042660","163","-1.1328125","0.38476562","0.15136719","105.40625","108.09375","203.8125"
"1537795042661","164","-0.68066406","0.2734375","0.17480469","118.90625","111.15625","211.5"
"1537795042661","165","-0.70214844","0.24902344","0.17773438","119.625","77.03125","203.75"
"1537795042858","166","-0.7626953","0.1796875","0.11816406","114.6875","86.71875","177.3125"
"1537795042858","167","-0.7207031","0.19824219","0.15917969","72.40625","74.40625","157.59375"
"1537795042859","168","-0.68652344","0.15917969","0.123046875","54.5625","74.03125","133.5"
"1537795042859","169","-0.6308594","0.13867188","0.10449219","37.84375","56.59375","106.625"
"1537795042860","170","-0.70996094","0.18554688","0.01953125","15.21875","26.5","67.40625"
"1537795043058","171","-0.953125","0.16210938","-0.13769531","-2.84375","-30.75","1.125"
"1537795043058","172","-1.0195312","0.14355469","-0.25097656","-69.8125","-85.875","-83.78125"
"1537795043059","173","-1.2910156","0.3857422","-0.46484375","-150.125","-185.1875","-147.03125"
"1537795043059","174","-1.4189453","0.5654297","-0.43359375","-71.9375","-200.1875","-200.71875"
"1537795043059","175","-1.3730469","0.38671875","-0.35058594","-3.03125","-207.09375","-216.25"
"1537795043256","176","-1.2314453","0.34375","-0.41992188","2.21875","-187.625","-203.78125"
"1537795043256","177","-1.1650391","0.34375","-0.49609375","-1.28125","-161.75","-181.875"
"1537795043257","178","-0.9316406","0.37402344","-0.4326172","-33.3125","-111.15625","-140.125"
"1537795043454","179","-0.8203125","0.4189453","-0.44335938","-36.0","-82.6875","-99.0625"
"1537795043454","180","-0.7402344","0.4892578","-0.51660156","-18.25","-60.1875","-63.03125"
"1537795043455","181","-0.8691406","0.5595703","-0.609375","19.0","-42.3125","-34.96875"
"1537795043455","182","-1.2011719","0.53222656","-0.5341797","53.34375","-16.0625","-5.96875"
"1537795043456","183","-1.296875","0.6484375","-0.23339844","77.15625","26.96875","34.3125"
"1537795043457","184","-1.9921875","0.46679688","-0.12792969","169.4375","21.375","56.28125"
"1537795043457","185","-1.9921875","0.25683594","-0.044921875","135.15625","155.75","52.875"
"1537795043652","186","-1.4951172","0.22558594","0.0048828125","25.9375","166.8125","104.0625"
"1537795043653","187","-1.2294922","0.051757812","-0.02734375","-18.90625","188.40625","141.0"
"1537795043654","188","-0.8564453","0.25195312","-0.017578125","-59.0","175.90625","160.03125"
"1537795043654","189","-0.7158203","0.29492188","-0.033203125","-37.28125","158.5","165.84375"
"1537795043656","190","-0.51953125","0.2607422","-0.03515625","-5.46875","148.375","160.34375"
"1537795043852","191","-0.546875","0.26757812","-0.021484375","51.21875","118.40625","137.78125"
"1537795043852","192","-0.85839844","0.20605469","0.064453125","83.75","92.34375","94.0"
"1537795043853","193","-0.9316406","0.13085938","0.06640625","55.6875","61.9375","35.40625"
"1537795043854","194","-1.0351562","0.07421875","-0.083984375","-4.5625","10.0625","-20.625"
"1537795044052","195","-1.0664062","0.21679688","-0.14746094","-104.46875","-44.96875","-67.625"
"1537795044052","196","-0.94433594","0.37402344","-0.21289062","-108.09375","-107.25","-108.03125"
"1537795044052","197","-1.0253906","0.42871094","-0.21777344","-20.6875","-142.03125","-135.84375"
"1537795044250","198","-0.9160156","0.2705078","-0.20605469","26.4375","-161.9375","-143.46875"
"1537795044250","199","-0.87402344","0.29296875","-0.22363281","23.75","-156.1875","-127.78125"
"1537795044251","200","-0.82421875","0.1953125","-0.19824219","2.9375","-143.0625","-112.0625"
"1537795044252","201","-0.9013672","0.19335938","-0.24023438","-29.09375","-137.09375","-100.625"
"1537795044253","202","-1.0625","0.2626953","-0.36816406","-55.21875","-123.15625","-95.3125"
"1537795044253","203","-1.0644531","0.37109375","-0.46972656","-53.15625","-96.5","-89.96875"
"1537795044253","204","-1.2480469","0.35253906","-0.5253906","-50.34375","-75.0625","-76.09375"
"1537795044449","205","-1.5185547","0.5527344","-0.5761719","-30.375","-37.59375","-64.3125"
"1537795044449","206","-1.9921875","0.8564453","-0.47265625","-6.53125","14.90625","-36.125"
"1537795044450","207","-1.7978516","0.67285156","-0.23339844","8.9375","87.34375","16.90625"
"1537795044450","208","-1.3857422","0.2919922","-0.2734375","28.15625","131.96875","71.375"
"1537795044450","209","-0.98535156","0.19335938","-0.2109375","-8.78125","137.34375","120.875"
"1537795044647","210","-0.87109375","0.3154297","-0.16699219","-18.65625","134.875","146.5625"
"1537795044648","211","-0.6972656","0.3955078","-0.13964844","7.40625","134.09375","157.96875"
"1537795044648","212","-0.8378906","0.32714844","-0.07324219","59.09375","122.5625","151.25"
"1537795044649","213","-0.9326172","0.23046875","-0.009765625","80.9375","133.1875","133.875"
"1537795044649","214","-0.91308594","0.1328125","0.119140625","64.65625","128.28125","114.8125"
"1537795044845","215","-1.0664062","0.1171875","0.056640625","33.6875","97.96875","80.53125"
"1537795044845","216","-0.9277344","0.0703125","-0.05078125","-16.84375","65.75","41.6875"
"1537795044846","217","-0.8798828","0.22949219","-0.0859375","-80.0625","-10.8125","1.84375"
"1537795044847","218","-0.75683594","0.29785156","-0.29882812","-59.375","-94.84375","-37.21875"
"1537795044847","219","-0.85253906","0.3173828","-0.328125","6.78125","-149.15625","-68.28125"
"1537795045056","220","-0.6875","0.18847656","-0.25097656","59.9375","-167.96875","-86.84375"
"1537795045243","221","-0.63671875","0.22167969","-0.21972656","49.375","-171.3125","-88.6875"
"1537795045243","222","-0.64941406","0.21386719","-0.22753906","47.375","-156.96875","-88.90625"
"1537795045243","223","-0.66796875","0.13867188","-0.21191406","33.53125","-146.90625","-87.6875"
"1537795045245","224","-0.9169922","0.15136719","-0.2861328","16.3125","-135.8125","-93.6875"
"1537795045246","225","-1.1132812","0.20605469","-0.4091797","-9.21875","-107.1875","-93.8125"
"1537795045246","226","-1.4326172","0.265625","-0.40039062","-36.1875","-76.96875","-80.75"
"1537795045247","227","-1.6953125","0.36914062","-0.3857422","-37.34375","-42.46875","-63.84375"
"1537795045247","228","-1.9921875","0.5996094","-0.30078125","-24.34375","-6.65625","-44.46875"
"1537795045248","229","-1.7333984","0.66796875","-0.25878906","-5.0625","69.15625","-13.59375"
"1537795045442","230","-1.265625","0.3466797","-0.27734375","21.875","88.75","37.71875"
"1537795045442","231","-0.87109375","0.24511719","-0.171875","28.5625","92.96875","72.75"
"1537795045443","232","-0.6982422","0.28515625","-0.18359375","22.65625","91.75","88.875"
"1537795045444","233","-0.5957031","0.31933594","-0.2109375","27.53125","96.75","95.71875"
"1537795045444","234","-0.5888672","0.3125","-0.14160156","41.875","97.46875","97.53125"
"1537795045641","235","-0.7294922","0.27734375","-0.038085938","65.0","100.65625","90.34375"
"1537795045642","236","-0.85546875","0.24121094","0.09375","66.1875","103.8125","85.28125"
"1537795045642","237","-1.1142578","0.31152344","0.41308594","38.53125","70.8125","80.6875"
"1537795045642","238","-1.4375","0.23339844","0.21386719","17.03125","45.84375","67.6875"
"1537795045644","239","-1.3183594","0.20019531","-0.18945312","-16.90625","-0.3125","54.9375"
"1537795045839","240","-1.2099609","0.16210938","-0.4248047","-23.0","-53.96875","20.40625"
"1537795045839","241","-0.94921875","0.11230469","-0.14355469","-21.03125","-77.5625","-13.0"
"1537795045841","242","-0.6904297","0.06738281","0.01171875","-15.3125","-95.8125","-47.40625"
"1537795045841","243","-0.74609375","0.12792969","-0.09765625","-30.03125","-124.625","-79.15625"
"1537795045841","244","-0.70410156","0.20214844","-0.34375","-26.40625","-121.71875","-103.9375"
"1537795046038","245","-0.6464844","0.19042969","-0.35253906","-2.0625","-119.09375","-115.90625"
"1537795046237","246","-0.6582031","0.18457031","-0.3408203","28.03125","-122.5","-119.625"
"1537795046238","247","-0.92285156","0.18945312","-0.35253906","35.09375","-127.75","-109.5625"
"1537795046238","248","-1.3623047","0.25195312","-0.40625","39.3125","-119.03125","-99.15625"
"1537795046239","249","-1.9169922","0.3623047","-0.27441406","38.78125","-79.09375","-91.53125"
"1537795046239","250","-1.9921875","0.63964844","-0.328125","53.46875","-0.71875","-83.78125"
"1537795046240","251","-1.7646484","0.5800781","-0.3173828","93.8125","49.5","-39.125"
"1537795046240","252","-1.6083984","0.20019531","-0.23730469","84.0","102.65625","11.78125"
"1537795046241","253","-1.1767578","0.12011719","-0.21679688","9.84375","138.625","58.71875"
"1537795046242","254","-0.8876953","0.24121094","-0.15722656","-69.6875","155.6875","100.21875"
"1537795046436","255","-0.73046875","0.44433594","-0.12988281","-68.21875","152.84375","121.21875"
"1537795046437","256","-0.6191406","0.47265625","-0.044921875","-11.09375","141.96875","120.5"
"1537795046437","257","-0.5761719","0.4111328","0.025390625","43.90625","126.03125","103.84375"
"1537795046438","258","-0.61328125","0.34375","0.09765625","61.21875","103.40625","82.03125"
"1537795046438","259","-0.65527344","0.31054688","0.123046875","47.625","75.75","59.65625"
"1537795046635","260","-0.84472656","0.35058594","0.08203125","26.875","42.40625","42.78125"
"1537795046635","261","-0.8691406","0.33496094","-0.0390625","29.25","18.8125","40.34375"
"1537795046636","262","-1.8222656","0.203125","-0.047851562","29.78125","-44.875","20.03125"
"1537795046637","263","-1.1425781","0.21484375","-0.140625","-4.5625","1.59375","-9.03125"
"1537795046637","264","-1.0947266","0.17578125","-0.103515625","-50.71875","-103.09375","14.46875"
"1537795046832","265","-1.5058594","0.22753906","-0.34277344","54.34375","-135.0","-8.0"
"1537795046835","266","-1.1748047","0.11621094","-0.41308594","73.0625","-150.40625","-21.28125"
"1537795046835","267","-0.8203125","0.09277344","-0.41015625","47.8125","-153.625","-21.84375"
"1537795046835","268","-0.8144531","0.22460938","-0.44140625","55.8125","-159.71875","-27.53125"
"1537795047032","269","-0.71875","0.25390625","-0.34570312","107.6875","-143.1875","-36.5625"
"1537795047033","270","-0.75683594","0.20214844","-0.34765625","140.8125","-139.03125","-43.5625"
"1537795047034","271","-0.86816406","0.19335938","-0.44628906","148.8125","-107.84375","-45.03125"
"1537795047034","272","-0.6923828","0.20605469","-0.37695312","144.34375","-62.375","-36.65625"
"1537795047034","273","-0.5966797","0.12988281","-0.26660156","136.5","-43.59375","-25.4375"
"1537795047034","274","-0.8466797","0.20898438","-0.31152344","97.84375","-34.4375","-23.90625"
"1537795047233","275","-0.9746094","0.40820312","-0.35058594","93.9375","-1.84375","-34.46875"
"1537795047234","276","-1.1191406","0.4638672","-0.21484375","87.0625","30.21875","-26.28125"
"1537795047234","277","-1.4150391","0.5332031","-0.01953125","84.375","50.59375","-15.90625"
"1537795047234","278","-1.9921875","0.5292969","-0.059570312","96.15625","51.875","-8.65625"
"1537795047235","279","-1.5908203","0.60253906","0.19921875","63.25","140.0","8.8125"
"1537795047431","280","-1.9921875","0.5283203","-0.040039062","57.4375","115.28125","45.46875"
"1537795047431","281","-1.4746094","0.33789062","0.072265625","25.28125","147.34375","76.5625"
"1537795047431","282","-0.98046875","0.39160156","0.20117188","-28.5","145.375","135.375"
"1537795047432","283","-0.82421875","0.2783203","0.19921875","-5.84375","122.0","161.375"
"1537795047433","284","-0.8408203","0.28222656","0.17089844","3.71875","102.96875","158.75"
"1537795047630","285","-0.66503906","0.3330078","0.171875","-1.34375","87.46875","149.96875"
"1537795047631","286","-0.64746094","0.26660156","0.09667969","8.8125","68.65625","135.5625"
"1537795047631","287","-0.4189453","0.12597656","0.021484375","26.625","45.90625","114.03125"
"1537795047631","288","-0.4658203","0.11621094","-0.046875","35.78125","16.84375","87.90625"
"1537795047632","289","-0.5214844","0.12792969","-0.08886719","42.0625","5.5","57.625"
"1537795047828","290","-0.58984375","0.040039062","-0.10058594","25.78125","-23.25","19.34375"
"1537795047828","291","-0.7871094","0.047851562","-0.2939453","-8.84375","-68.53125","-42.78125"
"1537795047828","292","-1.09375","0.22167969","-0.3671875","-73.21875","-136.21875","-128.78125"
"1537795048026","293","-1.40625","0.3671875","-0.47753906","-109.5","-180.46875","-189.8125"
"1537795048027","294","-1.3134766","0.45703125","-0.45507812","-65.34375","-176.6875","-209.78125"
"1537795048028","295","-1.4179688","0.33789062","-0.31933594","22.46875","-163.9375","-222.34375"
"1537795048028","296","-1.3007812","0.24707031","-0.35058594","-14.8125","-142.34375","-212.28125"
"1537795048028","297","-1.0566406","0.39160156","-0.3515625","-77.3125","-100.84375","-179.125"
"1537795048028","298","-0.8222656","0.54785156","-0.40820312","-53.6875","-78.0","-139.03125"
"1537795048028","299","-0.8173828","0.5878906","-0.40722656","5.5625","-65.0625","-98.1875"
"1537795048225","300","-0.81347656","0.48046875","-0.3984375","35.90625","-38.8125","-52.28125"
"1537795048227","301","-0.99609375","0.37109375","-0.26464844","28.46875","-15.0","-12.75"
"1537795048227","302","-1.8496094","0.60253906","-0.24414062","43.09375","-34.5","-1.5625"
"1537795048228","303","-1.9921875","1.0966797","-0.24023438","63.1875","72.3125","6.96875"
"1537795048228","304","-1.7480469","0.5673828","-0.056640625","78.1875","106.4375","73.9375"
"1537795048423","305","-1.2939453","0.16308594","-0.12207031","83.3125","129.8125","130.3125"
"1537795048423","306","-1.0830078","0.22949219","-0.032226562","23.875","124.375","177.3125"
"1537795048424","307","-0.875","0.40234375","-0.040039062","8.0625","120.1875","195.1875"
"1537795048425","308","-0.7480469","0.4892578","0.029296875","34.5","104.75","187.15625"
"1537795048425","309","-0.78125","0.4658203","0.15234375","94.96875","76.28125","145.46875"
"1537795048623","310","-0.7939453","0.35839844","0.024414062","137.59375","40.21875","86.375"
"1537795048623","311","-0.7158203","0.2861328","-0.047851562","112.375","29.59375","59.34375"
"1537795048623","312","-0.6953125","0.2763672","-0.0078125","96.75","8.46875","60.8125"
"1537795048624","313","-1.3671875","0.13085938","0.30664062","86.3125","-49.8125","41.9375"
"1537795048820","314","-1.9921875","0.35351562","0.06738281","21.1875","-38.34375","3.5"
"1537795048821","315","-1.3935547","0.27148438","-0.18945312","-25.125","-70.8125","5.25"
"1537795048821","316","-1.1933594","0.18554688","-0.095703125","0.5","-76.28125","19.84375"
"1537795048821","317","-1.0107422","0.19726562","-0.072265625","56.96875","-99.375","-8.46875"
"1537795048823","318","-0.7626953","0.08691406","-0.16894531","16.25","-106.375","-30.375"
"1537795048823","319","-0.73535156","0.2626953","-0.25585938","-30.09375","-123.0","-55.09375"
"1537795049020","320","-0.7597656","0.34179688","-0.2421875","17.84375","-118.34375","-85.0625"
"1537795049020","321","-0.7265625","0.26367188","-0.24023438","57.75","-120.78125","-99.96875"
"1537795049021","322","-0.8310547","0.26464844","-0.3876953","68.625","-118.09375","-93.25"
"1537795049021","323","-0.84375","0.2763672","-0.421875","73.9375","-86.90625","-73.34375"
"1537795049219","324","-0.8066406","0.2265625","-0.3330078","72.65625","-56.21875","-50.78125"
"1537795049219","325","-0.75683594","0.1953125","-0.3251953","46.59375","-25.6875","-30.5"
"1537795049417","326","-0.7314453","0.2890625","-0.29785156","22.84375","-0.65625","-17.5"
"1537795049417","327","-0.81933594","0.37109375","-0.29882812","17.96875","20.09375","-6.65625"
"1537795049418","328","-0.9951172","0.4580078","-0.16210938","21.875","31.875","13.0"
"1537795049418","329","-1.7919922","0.5986328","0.19042969","64.40625","-7.75","15.6875"
"1537795049419","330","-1.9921875","0.90722656","-0.044921875","88.875","111.4375","0.5"
"1537795049419","331","-1.7216797","0.59375","0.18652344","88.28125","94.53125","56.96875"
"1537795049420","332","-1.7128906","0.328125","0.032226562","90.03125","110.90625","97.78125"
"1537795049616","333","-1.0927734","0.27246094","0.07519531","62.8125","128.96875","141.5"
"1537795049616","334","-0.93847656","0.25","0.15136719","29.78125","122.75","172.3125"
"1537795049617","335","-0.765625","0.2529297","0.109375","9.28125","124.21875","181.53125"
"1537795049619","336","-0.6279297","0.28027344","0.08691406","17.46875","111.3125","171.34375"
"1537795049620","337","-0.6269531","0.26464844","0.043945312","43.15625","93.3125","150.84375"
"1537795049620","338","-0.60839844","0.14941406","0.064453125","52.8125","79.53125","129.46875"
"1537795050012","339","-0.59375","0.095703125","0.043945312","39.1875","65.75","102.0"
"1537795050013","340","-0.76464844","0.41992188","-0.19726562","41.09375","39.6875","67.75"
"1537795050013","341","-0.87402344","0.234375","-0.30371094","66.0625","39.4375","6.53125"
"1537795050014","342","-0.7324219","0.27148438","-0.27246094","11.5","-16.65625","-52.59375"
"1537795050014","343","-0.9589844","0.16894531","-0.46972656","-43.9375","-95.40625","-116.375"
"1537795050015","344","-0.96875","0.22363281","-0.45410156","-102.09375","-137.5625","-161.25"
"1537795050016","345","-0.97558594","0.265625","-0.3828125","-103.8125","-178.34375","-195.78125"
"1537795050017","346","-1.1035156","0.30664062","-0.375","-72.3125","-189.46875","-225.40625"
"1537795050018","347","-1.1884766","0.36328125","-0.29882812","-46.0","-175.53125","-239.625"
"1537795050212","348","-0.9267578","0.55078125","-0.296875","-21.53125","-102.90625","-187.4375"
"1537795050213","349","-0.91503906","0.5332031","-0.3173828","16.3125","-90.21875","-135.5"
"1537795050411","350","-0.91503906","0.42578125","-0.2626953","31.625","-62.625","-81.59375"
"1537795050411","351","-1.1201172","0.5019531","-0.23632812","18.3125","-51.28125","-36.25"
"1537795050411","352","-1.9921875","0.97558594","-0.60839844","61.90625","-58.84375","-9.03125"
"1537795050413","353","-1.5683594","0.78125","-0.107421875","52.5625","97.40625","40.78125"
"1537795050413","354","-1.6054688","0.24023438","-0.04296875","44.4375","100.28125","121.65625"
"1537795050414","355","-1.2958984","0.14160156","-0.1171875","30.40625","126.65625","160.78125"
"1537795050414","356","-0.9082031","0.27929688","-0.14355469","-5.46875","137.34375","200.375"
"1537795050414","357","-0.86035156","0.46484375","-0.17480469","20.40625","122.125","211.6875"
"1537795050610","358","-0.9609375","0.33496094","-0.07421875","58.71875","116.8125","211.1875"
"1537795050611","359","-1.0449219","0.28027344","0.03125","108.21875","116.625","186.65625"
"1537795050611","360","-1.0917969","0.11230469","0.051757812","114.9375","118.53125","155.53125"
"1537795050611","361","-1.1640625","-0.056640625","0.045898438","84.71875","101.4375","105.96875"
"1537795050611","362","-1.4453125","-0.068359375","0.03515625","3.71875","43.28125","18.8125"
"1537795050808","363","-1.0859375","0.29492188","-0.24707031","-101.5625","-6.90625","-55.09375"
"1537795050808","364","-0.8173828","0.34570312","-0.48632812","-99.96875","-69.21875","-67.4375"
"1537795050808","365","-0.6582031","0.20117188","-0.26171875","34.0","-98.3125","-87.75"
"1537795050809","366","-0.7324219","0.125","-0.111328125","68.0","-126.21875","-102.15625"
"1537795050809","367","-0.57128906","0.13378906","-0.091796875","22.28125","-115.25","-107.65625"
"1537795051006","368","-0.50683594","0.13769531","-0.13183594","-24.34375","-110.15625","-104.59375"
"1537795051007","369","-0.5761719","0.19140625","-0.16699219","-33.0625","-107.96875","-99.28125"
"1537795051007","370","-0.68066406","0.22949219","-0.21191406","-15.6875","-107.4375","-102.34375"
"1537795051008","371","-0.99609375","0.29101562","-0.20800781","-25.0","-111.9375","-104.1875"
"1537795051008","372","-1.8417969","0.4111328","-0.099609375","-30.25","-149.0625","-119.3125"
"1537795051206","373","-1.9921875","0.9658203","-0.42285156","-67.1875","-42.59375","-139.625"
"1537795051206","374","-1.5996094","0.8769531","-0.25","-93.625","37.15625","-59.75"
"1537795051206","375","-0.9501953","0.34960938","-0.31152344","-44.46875","54.625","49.15625"
"1537795051208","376","-0.73535156","0.3935547","-0.23730469","21.6875","57.0","98.71875"
"1537795051208","377","-0.5654297","0.4140625","-0.2763672","57.8125","67.3125","110.0"
"1537795051404","378","-0.5957031","0.42382812","-0.2861328","50.96875","63.34375","118.59375"
"1537795051405","379","-0.6503906","0.36328125","-0.19726562","96.75","67.1875","100.71875"
"1537795051405","380","-0.8769531","0.27734375","-0.17675781","127.4375","75.25","77.9375"
"1537795051406","381","-1.1298828","0.20410156","-0.099609375","108.78125","89.65625","65.5"
"1537795051406","382","-1.3847656","0.16113281","0.15722656","53.34375","97.78125","63.0"
"1537795051603","383","-1.8486328","0.083984375","0.1484375","-15.625","72.375","48.90625"
"1537795051604","384","-1.4091797","0.29589844","-0.20214844","-78.78125","68.84375","36.09375"
"1537795051604","385","-1.1318359","0.35058594","-0.34375","-66.15625","6.46875","41.15625"
"1537795051604","386","-0.95214844","0.19628906","-0.23925781","8.9375","-30.03125","17.59375"
"1537795051606","387","-0.57128906","0.16503906","-0.1953125","22.09375","-29.0","4.34375"
"1537795051802","388","-0.3720703","0.01953125","-0.072265625","-4.8125","-37.65625","-3.59375"
"1537795051802","389","-0.38476562","0.046875","-0.049804688","-34.34375","-43.28125","-24.59375"
"1537795051802","390","-0.37304688","0.12109375","-0.11035156","-44.65625","-45.53125","-46.6875"
"1537795051803","391","-0.4560547","0.19140625","-0.13964844","-49.1875","-49.625","-66.46875"
"1537795051804","392","-0.53125","0.20800781","-0.21191406","-37.59375","-61.53125","-88.96875"
"1537795052001","393","-0.8408203","0.27539062","-0.21484375","-46.125","-80.3125","-102.59375"
"1537795052001","394","-1.3691406","0.52734375","-0.19433594","-37.59375","-99.78125","-112.34375"
"1537795052001","395","-1.9921875","0.59765625","-0.21386719","-7.5","-125.25","-133.03125"
"1537795052199","396","-1.9921875","0.89746094","-0.39746094","-35.28125","-29.34375","-123.875"
"1537795052200","397","-1.5009766","0.84765625","-0.3623047","-1.625","10.5","-48.75"
"1537795052200","398","-0.9580078","0.3701172","-0.17773438","35.28125","49.0","33.09375"
"1537795052398","399","-0.5644531","0.32128906","-0.23144531","43.59375","62.0","80.21875"
"1537795052399","400","-0.5136719","0.4482422","-0.32226562","20.40625","69.34375","107.3125"
"1537795052399","401","-0.5566406","0.5175781","-0.22753906","23.03125","76.96875","120.5625"
"1537795052400","402","-0.6376953","0.50390625","-0.1640625","74.71875","80.6875","112.875"
"1537795052400","403","-0.71191406","0.375","-0.12695312","106.03125","89.28125","97.3125"
"1537795052401","404","-0.890625","0.30859375","-0.061523438","94.625","87.65625","80.875"
"1537795052401","405","-1.2177734","0.2685547","0.0078125","51.15625","74.71875","55.8125"
"1537795052401","406","-1.1591797","0.2529297","-0.047851562","3.5625","67.3125","35.59375"
"1537795052402","407","-1.3642578","0.23339844","-0.08300781","-48.625","17.53125","18.625"
"1537795052598","408","-0.87890625","0.3623047","-0.22949219","-62.0625","-14.40625","2.9375"
"1537795052599","409","-0.80859375","0.39257812","-0.2705078","-7.3125","-75.0625","-8.90625"
"1537795052599","410","-0.82421875","0.22460938","-0.23730469","77.46875","-109.25","-45.46875"
"1537795052599","411","-0.8300781","0.2626953","-0.1796875","65.125","-115.0","-63.71875"
"1537795052599","412","-0.7421875","0.23046875","-0.171875","35.71875","-110.46875","-74.75"
"1537795052796","413","-0.6845703","0.21191406","-0.16699219","25.34375","-109.5","-82.3125"
"1537795052796","414","-0.7861328","0.24707031","-0.2421875","39.875","-118.84375","-91.40625"
"1537795052994","415","-0.91308594","0.2890625","-0.40039062","50.5625","-113.15625","-97.71875"
"1537795052995","416","-0.8857422","0.3017578","-0.48632812","45.3125","-97.28125","-88.125"
"1537795052995","417","-0.9277344","0.30566406","-0.46484375","41.75","-70.625","-66.09375"
"1537795052995","418","-1.4228516","0.2998047","-0.1484375","29.125","-68.375","-45.28125"
"1537795052996","419","-1.9921875","0.6660156","-0.2734375","25.84375","-28.375","-28.90625"
"1537795052997","420","-1.4726562","0.74902344","-0.119140625","110.71875","29.0625","9.03125"
"1537795052997","421","-1.9921875","0.64160156","-0.2109375","247.5","17.46875","21.375"
"1537795052998","422","-1.5683594","0.37597656","0.068359375","225.46875","97.03125","24.59375"
"1537795053193","423","-1.2216797","0.3232422","0.23730469","134.15625","127.6875","50.5"
"1537795053193","424","-1.0410156","0.2861328","0.22851562","70.125","163.40625","70.8125"
"1537795053194","425","-0.8515625","0.3310547","0.28710938","32.1875","165.21875","96.375"
"1537795053194","426","-0.76953125","0.34375","0.21484375","25.28125","158.3125","121.71875"
"1537795053194","427","-0.80566406","0.33398438","0.22949219","25.53125","142.40625","141.375"
"1537795053392","428","-0.8027344","0.3154297","0.17773438","36.21875","132.875","153.625"
"1537795053392","429","-0.69433594","0.25097656","0.16015625","48.34375","117.75","155.40625"
"1537795053393","430","-0.69628906","0.1953125","0.13769531","51.03125","100.03125","145.53125"
"1537795053393","431","-0.6279297","0.10253906","0.06542969","43.90625","74.28125","121.03125"
"1537795053394","432","-0.8076172","0.064453125","-0.12597656","17.71875","25.6875","60.3125"
"1537795053591","433","-0.8300781","-0.0126953125","-0.21777344","-54.1875","-23.375","-22.875"
"1537795053591","434","-0.88671875","0.3173828","-0.3642578","-177.1875","-121.71875","-85.375"
"1537795053592","435","-1.1621094","0.56152344","-0.44628906","-102.40625","-164.5","-146.09375"
"1537795053592","436","-1.2275391","0.4248047","-0.29589844","8.9375","-183.90625","-186.625"
"1537795053593","437","-1.1933594","0.3232422","-0.37402344","35.15625","-196.53125","-192.5"
"1537795053988","438","-1.1474609","0.28515625","-0.49414062","24.125","-177.6875","-175.28125"
"1537795053988","439","-0.9902344","0.36914062","-0.44140625","10.6875","-140.1875","-140.5625"
"1537795053989","440","-0.78125","0.3310547","-0.45117188","17.46875","-105.90625","-104.3125"
"1537795053990","441","-0.58496094","0.35253906","-0.42871094","11.90625","-81.25","-65.65625"
"1537795054386","442","-0.6308594","0.41796875","-0.40722656","35.34375","-75.5625","-35.6875"
"1537795054386","443","-0.984375","0.68359375","-0.22363281","115.125","-82.34375","-1.5"
"1537795054386","444","-1.7939453","0.46191406","0.080078125","246.53125","-65.84375","19.40625"
"1537795054386","445","-1.7519531","-0.076171875","0.18066406","224.8125","2.3125","18.625"
"1537795054387","446","-1.5117188","0.08203125","-0.26367188","104.875","5.84375","-9.625"
"1537795054388","447","-1.2646484","0.36035156","-0.2861328","28.9375","29.25","-27.34375"
"1537795054389","448","-1.4365234","0.6386719","-0.109375","-14.15625","51.28125","-25.875"
"1537795054585","449","-0.9658203","0.875","-0.041015625","-8.21875","109.8125","19.59375"
"1537795054585","450","-0.7675781","0.6464844","0.05078125","45.0625","111.21875","78.75"
"1537795054587","451","-1.6123047","0.09472656","0.087890625","3.84375","46.75","12.78125"
"1537795054587","452","-0.9111328","0.17578125","-0.15429688","-92.40625","0.84375","-7.3125"
"1537795054587","453","-0.89746094","0.36523438","-0.33398438","-82.21875","-52.96875","2.6875"
"1537795054587","454","-0.8457031","0.24609375","-0.20214844","22.53125","-100.15625","-17.875"
"1537795054783","455","-0.85839844","0.17871094","-0.16503906","57.375","-118.40625","-42.40625"
"1537795054784","456","-0.76171875","0.099609375","-0.23730469","24.71875","-136.21875","-62.84375"
"1537795054784","457","-0.74121094","0.111328125","-0.31640625","-19.71875","-139.09375","-76.46875"
"1537795054784","458","-0.7050781","0.125","-0.37402344","-23.65625","-142.28125","-90.03125"
"1537795054785","459","-0.78515625","0.20019531","-0.4560547","-25.75","-142.8125","-101.6875"
"1537795054786","460","-0.890625","0.34375","-0.7011719","-24.90625","-130.5625","-101.90625"
"1537795054981","461","-0.8066406","0.4345703","-0.66308594","-13.0625","-85.15625","-81.15625"
"1537795054981","462","-0.75878906","0.45410156","-0.45898438","22.65625","-49.5625","-35.5625"
"1537795054982","463","-1.5068359","0.6591797","-0.25","47.75","-61.28125","6.84375"
"1537795054982","464","-1.9921875","0.88964844","-0.115234375","102.90625","27.71875","-9.4375"
"1537795054983","465","-1.46875","0.6796875","0.015625","114.625","93.9375","23.8125"
"1537795055181","466","-1.8330078","0.39160156","-0.12988281","130.9375","88.6875","44.375"
"1537795055182","467","-1.6083984","0.55078125","0.12109375","65.6875","147.40625","58.375"
"1537795055184","468","-1.0380859","0.4638672","0.29882812","32.46875","159.0","89.84375"
"1537795055184","469","-0.9765625","0.3876953","0.23144531","34.0625","141.28125","116.59375"
"1537795055185","470","-0.7949219","0.35253906","0.24902344","40.34375","137.15625","131.46875"
"1537795055578","471","-0.734375","0.38476562","0.21777344","45.90625","104.5625","144.78125"
"1537795055578","472","-0.7246094","0.2685547","0.12890625","61.21875","92.09375","145.40625"
"1537795055579","473","-0.66503906","0.2734375","0.14257812","53.125","74.53125","138.0625"
"1537795055581","474","-0.5449219","0.20800781","0.15332031","45.53125","66.15625","126.0"
"1537795055581","475","-0.4970703","0.15527344","0.12792969","33.40625","37.34375","103.59375"
"1537795055581","476","-0.6035156","0.15722656","-0.043945312","23.5","4.34375","65.3125"
"1537795055581","477","-0.8691406","0.16699219","-0.095703125","-8.59375","-40.53125","13.9375"
"1537795055582","478","-1.2314453","0.19433594","-0.24316406","-48.03125","-92.78125","-59.6875"
"1537795055582","479","-1.2666016","0.20703125","-0.3125","-121.75","-167.1875","-115.65625"
"1537795055776","480","-1.4433594","0.39160156","-0.40820312","-2.84375","-195.1875","-192.75"
"1537795055779","481","-1.4707031","0.4345703","-0.4189453","17.84375","-164.71875","-193.46875"
"1537795055779","482","-1.1875","0.37109375","-0.40722656","-15.96875","-109.25","-171.1875"
"1537795055779","483","-0.890625","0.4453125","-0.31640625","-42.96875","-76.84375","-126.21875"
"1537795055779","484","-0.7919922","0.39746094","-0.36816406","-16.96875","-59.15625","-89.09375"
"1537795055975","485","-0.6689453","0.4326172","-0.3642578","-8.84375","-44.3125","-50.46875"
"1537795056175","486","-0.6328125","0.43847656","-0.3828125","-0.40625","-33.6875","-25.4375"
"1537795056175","487","-0.63378906","0.49023438","-0.42089844","17.84375","-24.0","-11.03125"
"1537795056175","488","-0.8261719","0.53808594","-0.31640625","45.59375","-15.6875","0.4375"
"1537795056176","489","-1.0595703","0.78027344","-0.12988281","95.53125","-6.40625","14.65625"
"1537795056178","490","-1.9208984","0.8203125","0.21191406","189.21875","-19.71875","27.21875"
"1537795056178","491","-1.9746094","0.6621094","0.20507812","213.5","91.375","33.09375"
"1537795056179","492","-1.8974609","0.36914062","0.07128906","182.8125","95.03125","72.875"
"1537795056179","493","-1.4228516","0.1796875","0.045898438","122.15625","123.09375","114.15625"
"1537795056180","494","-1.1582031","0.2919922","0.08984375","42.5625","134.59375","147.71875"
"1537795056375","495","-0.83496094","0.34375","0.06640625","14.15625","136.46875","171.46875"
"1537795056375","496","-0.8105469","0.37109375","0.12695312","26.0","118.28125","179.75"
"1537795056375","497","-0.80566406","0.3251953","0.14453125","74.84375","120.96875","163.09375"
"1537795056375","498","-0.79296875","0.22460938","0.140625","87.78125","113.28125","141.3125"
"1537795056376","499","-0.7949219","0.13183594","0.08300781","80.34375","101.8125","115.84375"
"1537795056572","500","-0.8105469","0.046875","0.009765625","52.6875","77.34375","81.75"
"1537795056572","501","-1.1396484","0.036132812","0.06640625","-0.96875","18.8125","15.6875"
"1537795056573","502","-0.9658203","0.1328125","-0.0146484375","-95.75","-31.125","-67.375"
"1537795056573","503","-1.1152344","0.34375","-0.1953125","-147.8125","-110.0","-130.25"
"1537795056574","504","-1.1835938","0.33691406","-0.23339844","-80.625","-154.46875","-191.09375"
"1537795056771","505","-1.2666016","0.31054688","-0.2705078","-38.25","-170.90625","-221.125"
"1537795056772","506","-1.0703125","0.2626953","-0.2265625","-63.71875","-151.96875","-217.46875"
"1537795056772","507","-1.0253906","0.3984375","-0.265625","-78.78125","-132.3125","-202.3125"
"1537795056773","508","-0.9736328","0.43652344","-0.26367188","-63.03125","-106.9375","-175.46875"
"1537795056773","509","-0.9394531","0.5361328","-0.28222656","-50.21875","-81.125","-136.34375"
"1537795056969","510","-0.91503906","0.56152344","-0.35253906","-40.28125","-54.3125","-91.0"
"1537795056969","511","-1.1162109","0.60058594","-0.34375","-28.0625","-32.84375","-51.0"
"1537795057169","512","-1.2236328","0.70410156","-0.25585938","-6.6875","-11.96875","-17.8125"
"1537795057169","513","-1.7314453","0.84472656","-0.18066406","26.0","-2.625","14.59375"
"1537795057169","514","-1.9921875","0.7050781","-0.13476562","43.21875","66.71875","52.9375"
"1537795057169","515","-1.7548828","0.3798828","-0.17089844","18.5","87.28125","112.5"
"1537795057170","516","-1.4121094","0.39746094","-0.19140625","17.09375","97.28125","154.375"
"1537795057171","517","-1.1054688","0.38476562","-0.12695312","40.65625","104.84375","183.40625"
"1537795057367","518","-0.9550781","0.3330078","-0.061523438","78.75","106.625","198.4375"
"1537795057367","519","-0.9033203","0.25683594","-0.032226562","111.53125","101.0625","191.125"
"1537795057566","520","-0.8378906","0.20800781","0.0048828125","128.375","105.53125","169.125"
"1537795057566","521","-0.77441406","0.11816406","-0.022460938","117.125","111.75","140.03125"
"1537795057569","522","-0.66796875","0.09667969","0.021484375","78.3125","110.59375","114.8125"
"1537795057569","523","-0.6279297","0.08886719","0.048828125","43.65625","95.34375","86.0"
"1537795057569","524","-0.6875","0.11328125","-0.033203125","22.15625","57.6875","45.59375"
"1537795057570","525","-0.9941406","0.0703125","-0.052734375","-16.21875","3.78125","-19.65625"
"1537795057570","526","-0.9902344","0.16503906","-0.06640625","-97.875","-47.125","-90.0625"
"1537795057570","527","-1.2636719","0.34179688","-0.119140625","-142.125","-112.1875","-154.96875"
"1537795057570","528","-1.4003906","0.43359375","-0.21679688","-111.6875","-153.5","-213.5625"
"1537795057764","529","-1.2861328","0.4296875","-0.3486328","-8.15625","-154.71875","-226.1875"
"1537795057766","530","-1.0273438","0.3828125","-0.29101562","-14.09375","-127.5625","-181.875"
"1537795057766","531","-0.92285156","0.35839844","-0.28320312","-25.125","-102.0","-136.34375"
"1537795057766","532","-0.8144531","0.3125","-0.2919922","-40.28125","-70.5","-96.25"
"1537795057766","533","-0.7363281","0.36914062","-0.3076172","-64.0625","-50.59375","-66.625"
"1537795057963","534","-0.80859375","0.5136719","-0.33398438","-58.09375","-37.59375","-52.65625"
"1537795057964","535","-1.1640625","0.6904297","-0.39746094","-23.3125","-25.03125","-44.125"
"1537795057967","536","-1.3447266","0.78222656","-0.35839844","22.96875","3.34375","-18.71875"
"1537795057968","537","-1.9921875","0.76953125","-0.21582031","74.15625","28.4375","28.6875"
"1537795057968","538","-1.9404297","0.4326172","-0.14550781","63.90625","106.4375","87.15625"
"1537795058162","539","-1.7314453","0.23242188","-0.09277344","33.21875","128.0","144.3125"
"1537795058163","540","-1.3769531","0.22265625","-0.123046875","-6.9375","146.46875","186.71875"
"1537795058361","541","-1.1025391","0.34765625","-0.08886719","-15.25","142.625","216.875"
"1537795058361","542","-0.9033203","0.3330078","-0.06640625","31.5625","126.34375","220.03125"
"1537795058361","543","-0.77734375","0.25683594","-0.061523438","93.875","107.96875","200.9375"
"1537795058364","544","-0.70996094","0.15722656","-0.0087890625","110.90625","96.625","174.3125"
"1537795058364","545","-0.671875","0.11035156","-0.00390625","101.8125","90.5625","145.09375"
"1537795058365","546","-0.6621094","0.0234375","0.005859375","75.6875","76.21875","111.71875"
"1537795058365","547","-0.7714844","0.041992188","-0.076171875","45.25","50.53125","61.90625"
"1537795058365","548","-0.8828125","0.0078125","-0.037109375","-4.3125","8.59375","-18.25"
"1537795058560","549","-0.9658203","0.22265625","-0.12890625","-97.21875","-59.5","-100.40625"
"1537795058561","550","-1.0644531","0.35351562","-0.29882812","-111.125","-116.03125","-159.28125"
"1537795058561","551","-1.015625","0.41503906","-0.3359375","-40.21875","-149.84375","-194.25"
"1537795058562","552","-0.96972656","0.29492188","-0.29589844","40.21875","-173.84375","-203.78125"
"1537795058562","553","-1.0673828","0.21484375","-0.1875","32.0","-186.71875","-184.3125"
"1537795058759","554","-0.97753906","0.23535156","-0.20507812","15.625","-163.34375","-161.84375"
"1537795058759","555","-0.9433594","0.20507812","-0.31054688","-11.40625","-141.65625","-130.53125"
"1537795058759","556","-1.0078125","0.35742188","-0.4560547","-21.21875","-118.53125","-97.34375"
"1537795058760","557","-1.2646484","0.5019531","-0.45507812","-29.21875","-79.65625","-65.59375"
"1537795058760","558","-1.6650391","0.7080078","-0.43945312","-11.59375","-63.0625","-47.90625"
"1537795058957","559","-1.9921875","0.9326172","-0.6074219","9.59375","22.53125","-49.96875"
"1537795058958","560","-1.5869141","0.67089844","-0.29882812","-24.21875","82.28125","1.53125"
"1537795058959","561","-1.4355469","0.61328125","-0.33398438","11.0625","104.5","52.4375"
"1537795058959","562","-1.1162109","0.45410156","-0.28515625","33.46875","119.6875","94.5625"
"1537795058959","563","-0.8173828","0.3955078","-0.25","15.09375","124.4375","128.625"
"1537795059156","564","-0.7216797","0.4814453","-0.17871094","32.90625","111.28125","134.53125"
"1537795059158","565","-0.7753906","0.5136719","-0.08496094","89.375","103.28125","117.875"
"1537795059158","566","-0.80859375","0.4013672","-0.053710938","125.3125","99.90625","98.46875"
"1537795059158","567","-0.7685547","0.26367188","-0.04296875","116.59375","108.8125","88.03125"
"1537795059353","568","-0.72265625","0.2109375","-0.057617188","82.03125","101.375","85.21875"
"1537795059355","569","-0.7529297","0.15234375","-0.0390625","53.0625","96.625","86.1875"
"1537795059355","570","-1.3759766","0.109375","0.1875","-30.6875","-1.59375","49.9375"
"1537795059751","571","-1.1728516","0.48339844","-0.23242188","-104.0625","-2.6875","12.03125"
"1537795059753","572","-1.4853516","0.59765625","-0.42089844","-79.03125","-118.46875","37.84375"
"1537795059753","573","-1.3017578","0.43164062","-0.21582031","113.78125","-138.1875","5.5"
"1537795059754","574","-0.921875","0.19433594","-0.123046875","155.78125","-142.8125","10.9375"
"1537795059754","575","-0.8066406","0.12207031","-0.12207031","77.09375","-143.625","17.09375"
"1537795059756","576","-0.8105469","0.24902344","-0.13964844","42.0","-131.34375","-0.40625"
"1537795059757","577","-0.8027344","0.20214844","-0.19433594","66.21875","-122.5","-23.1875"
"1537795059757","578","-0.7607422","0.16503906","-0.25976562","60.875","-112.125","-36.25"
"1537795059757","579","-0.69433594","0.19433594","-0.33398438","48.71875","-106.1875","-38.4375"
"1537795059951","580","-0.71875","0.21777344","-0.3486328","57.6875","-95.15625","-37.78125"
"1537795059951","581","-0.7392578","0.24609375","-0.35546875","70.3125","-87.28125","-36.125"
"1537795060151","582","-0.9111328","0.2421875","-0.4111328","89.5625","-66.78125","-37.40625"
"1537795060151","583","-0.8779297","0.19921875","-0.3388672","78.0","-31.8125","-35.875"
"1537795060152","584","-0.890625","0.23242188","-0.2529297","42.0625","-9.15625","-30.4375"
"1537795060152","585","-1.1445312","0.4248047","-0.33789062","-29.34375","9.8125","-3.21875"
"1537795060154","586","-1.7509766","0.86328125","0.14941406","-38.375","-9.15625","16.5625"
"1537795060154","587","-1.9482422","1.1806641","0.02734375","65.625","87.40625","6.0625"
"1537795060154","588","-1.8417969","0.6748047","0.017578125","128.625","55.25","41.28125"
"1537795060155","589","-1.5332031","0.49316406","-0.06542969","122.21875","75.4375","60.0625"
"1537795060155","590","-1.1181641","0.4765625","0.0029296875","90.96875","91.5","87.59375"
"1537795060348","591","-0.7421875","0.35058594","0.06347656","61.40625","95.9375","122.4375"
"1537795060348","592","-0.6201172","0.28125","0.10644531","92.78125","76.71875","126.90625"
"1537795060349","593","-0.5810547","0.24609375","0.057617188","83.15625","74.09375","106.46875"
"1537795060349","594","-0.6328125","0.140625","-0.017578125","29.0","72.3125","97.84375"
"1537795060350","595","-0.5917969","0.17871094","0.051757812","-18.40625","71.15625","94.375"
"1537795060350","596","-0.5361328","0.22558594","0.091796875","-18.0","60.71875","84.0"
"1537795060547","597","-0.62402344","0.2763672","-0.0029296875","-8.59375","24.21875","59.71875"
"1537795060548","598","-0.86621094","0.27539062","-0.16796875","8.125","-20.875","1.0625"
"1537795060548","599","-1.2207031","0.21582031","-0.21972656","-52.125","-78.6875","-78.125"
"1537795060548","600","-1.1357422","0.41796875","-0.39160156","-117.59375","-121.21875","-140.90625"
"1537795060549","601","-1.1464844","0.5371094","-0.375","-70.53125","-144.03125","-182.71875"
"1537795060746","602","-1.3427734","0.44335938","-0.28710938","24.25","-171.4375","-206.28125"
"1537795060746","603","-1.3466797","0.44628906","-0.3466797","54.03125","-148.6875","-201.46875"
"1537795060746","604","-0.9736328","0.35253906","-0.3642578","40.21875","-116.75","-164.34375"
"1537795060746","605","-0.7363281","0.28808594","-0.43945312","21.8125","-97.96875","-109.84375"
"1537795060747","606","-0.6582031","0.2109375","-0.36035156","28.9375","-78.5625","-69.5"
"1537795060945","607","-0.68847656","0.19726562","-0.328125","3.5","-57.5625","-41.75"
"1537795060945","608","-0.7607422","0.25683594","-0.36328125","-26.53125","-32.90625","-28.90625"
"1537795060945","609","-1.0703125","0.4091797","-0.27929688","-32.59375","-19.34375","-26.0"
"1537795060946","610","-1.8515625","0.6972656","-0.20605469","-0.46875","-37.21875","-34.46875"
"1537795060947","611","-1.9921875","1.1923828","-0.4765625","34.5625","55.78125","-34.84375"
"1537795061143","612","-1.7558594","0.60253906","-0.09375","80.40625","89.0","37.90625"
"1537795061143","613","-1.5390625","0.13769531","-0.14453125","104.4375","104.375","92.96875"
"1537795061144","614","-1.1054688","0.11035156","-0.19726562","35.71875","128.1875","126.78125"
"1537795061145","615","-0.6640625","0.35546875","-0.18457031","-48.28125","142.03125","161.875"
"1537795061146","616","-0.48828125","0.4501953","-0.13476562","-54.875","129.53125","182.75"
"1537795061343","617","-0.51660156","0.4970703","-0.0078125","31.03125","103.15625","173.28125"
"1537795061344","618","-0.5800781","0.37597656","0.07910156","115.1875","87.78125","145.65625"
"1537795061344","619","-0.7519531","0.25585938","0.057617188","120.375","77.15625","115.71875"
"1537795061344","620","-0.71191406","0.21484375","0.020507812","88.375","73.59375","98.21875"
"1537795061344","621","-0.85546875","-0.043945312","-0.025390625","66.90625","12.5","46.75"
"1537795061541","622","-1.6445312","0.13574219","-0.17578125","-5.53125","-39.84375","-36.78125"
"1537795061541","623","-1.2939453","0.45410156","-0.1875","-111.0","-84.15625","-79.09375"
"1537795061541","624","-1.6347656","0.50878906","-0.16015625","-54.8125","-142.40625","-87.28125"
"1537795061542","625","-1.2099609","0.38867188","-0.2607422","136.0625","-170.96875","-114.4375"
"1537795061741","626","-1.0146484","0.15625","-0.3173828","173.96875","-181.03125","-90.0625"
"1537795061741","627","-0.9326172","0.16894531","-0.31445312","94.0","-169.5625","-63.78125"
"1537795061741","628","-0.8076172","0.30566406","-0.24902344","65.125","-137.28125","-57.0"
"1537795061741","629","-0.8701172","0.19238281","-0.28222656","79.65625","-121.59375","-58.875"
"1537795061742","630","-0.9082031","0.21679688","-0.3779297","58.71875","-87.9375","-53.53125"
"1537795061743","631","-0.84375","0.27441406","-0.4794922","47.5","-49.25","-38.25"
"1537795061938","632","-0.68066406","0.22851562","-0.4326172","43.78125","-18.90625","-11.34375"
"1537795061938","633","-0.70410156","0.23730469","-0.4296875","39.75","-7.09375","10.75"
"1537795061938","634","-0.7011719","0.2607422","-0.421875","28.03125","19.90625","21.3125"
"1537795061939","635","-0.5292969","0.35351562","-0.27539062","-0.78125","35.09375","29.78125"
"1537795061939","636","-0.6064453","0.5751953","-0.2998047","39.1875","25.625","24.78125"
"1537795062137","637","-1.0693359","0.6855469","-0.048828125","74.0","7.3125","27.65625"
"1537795062137","638","-1.9921875","0.85839844","0.2998047","90.65625","-79.71875","39.0625"
"1537795062137","639","-1.6845703","1.1015625","0.20507812","86.8125","121.03125","41.34375"
"1537795062138","640","-1.9921875","0.484375","0.3095703","154.5","82.28125","87.21875"
"1537795062138","641","-1.3935547","0.2998047","0.026367188","145.21875","92.46875","126.0625"
"1537795062336","642","-0.95703125","0.21875","0.060546875","112.3125","99.71875","153.5"
"1537795062337","643","-0.8613281","0.23242188","0.16308594","59.65625","104.96875","179.09375"
"1537795062339","644","-0.6621094","0.16503906","0.16796875","40.34375","112.90625","170.25"
"1537795062339","645","-0.57714844","0.115234375","0.17578125","26.8125","97.84375","151.1875"
"1537795062339","646","-0.59375","0.12890625","0.053710938","4.03125","91.78125","130.125"
"1537795062534","647","-0.42871094","0.09765625","0.009765625","4.46875","76.28125","109.25"
"1537795062534","648","-0.49609375","0.07519531","0.0146484375","22.78125","58.65625","78.8125"
"1537795062536","649","-0.5986328","0.087890625","0.001953125","22.90625","31.125","34.625"
"1537795062536","650","-0.84765625","0.14160156","-0.078125","3.90625","6.53125","-38.4375"
"1537795062536","651","-1.0361328","0.2421875","-0.14550781","-72.3125","-60.0625","-142.6875"
"1537795062732","652","-1.5166016","0.68359375","-0.375","-141.15625","-142.03125","-221.375"
"1537795062732","653","-1.6943359","0.8046875","-0.42285156","-122.0","-162.59375","-268.96875"
"1537795062734","654","-1.609375","0.6455078","-0.3720703","-0.84375","-180.0625","-275.125"
"1537795062734","655","-1.3603516","0.4814453","-0.37890625","39.6875","-158.5625","-236.0625"
"1537795062735","656","-1.0126953","0.3701172","-0.29785156","-10.5","-121.875","-179.8125"
"1537795062931","657","-0.8691406","0.41601562","-0.2548828","-55.28125","-87.03125","-128.40625"
"1537795062933","658","-0.7011719","0.39746094","-0.26660156","-66.75","-56.28125","-90.9375"
"1537795062933","659","-0.65527344","0.484375","-0.30371094","-65.90625","-42.34375","-65.34375"
"1537795062933","660","-0.6904297","0.5595703","-0.3876953","-48.09375","-27.96875","-49.125"
"1537795062934","661","-0.7050781","0.62890625","-0.328125","-29.78125","-14.96875","-28.8125"
"1537795063131","662","-1.2207031","0.6425781","-0.33203125","18.8125","-12.4375","-11.03125"
"1537795063131","663","-1.9921875","0.6796875","9.765625E-4","34.9375","-18.5","18.375"
"1537795063132","664","-1.9921875","0.828125","-0.1484375","37.1875","110.78125","52.0"
"1537795063132","665","-1.7441406","0.3828125","-0.083984375","49.15625","100.71875","149.3125"
"1537795063133","666","-1.4785156","0.11816406","-0.095703125","98.21875","113.34375","179.21875"
"1537795063330","667","-1.0761719","0.24707031","-0.087890625","46.75","127.375","219.25"
"1537795063330","668","-0.87597656","0.29492188","-0.0703125","58.59375","114.8125","232.96875"
"1537795063528","669","-0.7705078","0.24414062","-0.036132812","80.40625","103.5","221.75"
"1537795063529","670","-0.7392578","0.17871094","0.026367188","118.34375","89.21875","181.53125"
"1537795063529","671","-0.7363281","0.125","0.0390625","114.28125","86.78125","131.125"
"1537795063727","672","-0.7626953","0.045898438","0.05078125","62.28125","78.125","87.28125"
"1537795063728","673","-0.7988281","0.18652344","-0.044921875","22.71875","60.59375","44.4375"
"1537795063728","674","-0.85058594","0.19433594","-0.044921875","0.0625","25.34375","-5.46875"
"1537795063729","675","-1.1572266","0.28222656","0.0078125","-59.6875","-39.1875","-66.9375"
"1537795063729","676","-1.1240234","0.4296875","-0.16699219","-108.6875","-102.28125","-122.5625"
"1537795063730","677","-1.1386719","0.4794922","-0.28710938","-79.8125","-154.40625","-159.28125"
"1537795063730","678","-1.1230469","0.39453125","-0.3154297","-0.0625","-184.375","-182.78125"
"1537795063731","679","-1.0566406","0.34960938","-0.24609375","19.84375","-181.21875","-175.53125"
"1537795063731","680","-0.9814453","0.36328125","-0.18164062","31.5625","-159.0","-161.71875"
"1537795063926","681","-0.7080078","0.19921875","-0.22167969","-10.71875","-101.375","-99.34375"
"1537795063926","682","-0.8125","0.23046875","-0.3017578","-34.03125","-84.71875","-72.0"
"1537795063926","683","-0.90625","0.3251953","-0.32910156","-63.15625","-59.8125","-46.8125"
"1537795063926","684","-1.1289062","0.45410156","-0.3955078","-55.71875","-41.5625","-31.53125"
"1537795063927","685","-1.9648438","0.61328125","-0.29785156","-16.53125","-58.21875","-26.65625"
"1537795064125","686","-1.9921875","1.1435547","-0.18457031","-4.125","102.125","-13.28125"
"1537795064125","687","-1.6191406","0.44335938","-0.032226562","47.875","96.5625","73.375"
"1537795064125","688","-1.4882812","0.11230469","-0.10839844","89.5625","116.9375","112.0"
"1537795064125","689","-1.2265625","0.2861328","-0.10546875","40.90625","126.28125","142.40625"
"1537795064323","690","-0.9111328","0.3828125","-0.15039062","18.8125","136.28125","162.0625"
"1537795064323","691","-0.75683594","0.3515625","-0.080078125","33.8125","127.6875","169.9375"
"1537795064523","692","-0.6982422","0.3232422","0.022460938","93.5625","117.75","156.5"
"1537795064523","693","-0.71777344","0.21484375","0.109375","117.875","116.15625","138.25"
"1537795064721","694","-0.77734375","0.1328125","0.057617188","103.78125","114.0","119.875"
"1537795064721","695","-0.83984375","0.07128906","0.061523438","70.5","100.40625","95.40625"
"1537795064723","696","-1.0039062","0.11328125","-0.07910156","32.46875","80.625","58.65625"
"1537795064724","697","-1.2255859","0.068359375","0.04296875","-35.625","36.5625","3.5625"
"1537795064724","698","-1.1005859","0.17089844","-0.017578125","-123.78125","-9.78125","-62.78125"
"1537795064724","699","-1.1923828","0.34765625","-0.18554688","-162.21875","-76.28125","-118.15625"
"1537795064724","700","-1.1962891","0.38671875","-0.19238281","-100.21875","-117.5625","-170.9375"
"1537795064726","701","-1.1962891","0.36132812","-0.18066406","-59.0625","-138.0","-199.5625"
"1537795064726","702","-1.0332031","0.32714844","-0.19335938","-50.21875","-133.84375","-201.90625"
"1537795064919","703","-0.8671875","0.41210938","-0.21191406","-63.09375","-84.84375","-134.375"
"1537795064919","704","-0.8203125","0.4326172","-0.2529297","-64.625","-63.71875","-99.28125"
"1537795064920","705","-0.8779297","0.44628906","-0.21386719","-67.375","-47.53125","-67.25"
"1537795064920","706","-1.2197266","0.5410156","-0.26367188","-60.53125","-44.75","-43.5"
"1537795064921","707","-1.3642578","0.73339844","-0.27539062","-30.1875","-20.75","-26.84375"
"1537795065119","708","-1.9921875","1.0449219","-0.5449219","55.5","-20.5","-7.0"
"1537795065119","709","-1.5507812","0.5830078","-0.099609375","90.21875","50.84375","47.8125"
"1537795065119","710","-1.8525391","0.42089844","-0.16894531","124.46875","71.21875","95.34375"
"1537795065120","711","-1.4882812","0.23046875","-0.19824219","91.75","106.9375","124.53125"
"1537795065121","712","-1.0410156","0.3310547","-0.19726562","62.875","127.75","155.40625"
"1537795065317","713","-0.85058594","0.31054688","-0.12988281","86.25","124.75","168.96875"
"1537795065318","714","-0.75390625","0.28710938","-0.03515625","129.78125","118.28125","160.53125"
"1537795065516","715","-0.73339844","0.18164062","0.005859375","150.65625","105.71875","127.5"
"1537795065516","716","-0.859375","0.18261719","-0.0859375","129.34375","99.0625","86.3125"
"1537795065516","717","-0.7480469","0.15527344","-0.043945312","75.15625","110.90625","58.96875"
"1537795065517","718","-0.75097656","0.21875","0.08691406","33.53125","94.3125","43.78125"
"1537795065517","719","-0.9716797","0.26171875","-0.12597656","21.0","72.3125","24.125"
"1537795065518","720","-1.0947266","0.18261719","0.21582031","-24.40625","11.40625","14.78125"
"1537795065518","721","-1.1777344","0.36523438","-0.11328125","-57.1875","14.46875","-7.5"
"1537795065519","722","-0.94921875","0.28808594","-0.13671875","-79.625","-85.28125","-1.15625"
