"# PDIoT walking data"
"# Start time: 20180924T131652"
"# Group: C"
"# Subject: TestCsanti"
"# Activity type: Walking (level ground)"
"# Sensor position: Upper Leg"
"# Side of body: Right"
"# Sensor mounting: Body"
"# Number of steps: 100"
"# Notes: Blue side of sensor facing body, purple sensor
"
""
"timestamp","seq","accel_x","accel_y","accel_z","gyro_x","gyro_y","gyro_z"
"1537791412728","0","-0.94921875","-0.21484375","0.24414062","-8.0625","-2.25","-9.4375"
"1537791412728","1","-0.92871094","-0.14160156","0.23925781","-0.3125","-0.65625","-9.75"
"1537791412730","2","-0.9423828","-0.15332031","0.28808594","8.78125","0.3125","-8.59375"
"1537791412730","3","-0.92871094","-0.21875","0.25585938","12.15625","-0.84375","-12.125"
"1537791412730","4","-0.9550781","-0.17773438","0.2421875","10.0625","-0.71875","-18.0625"
"1537791412731","5","-0.93652344","-0.16894531","0.29785156","14.46875","-0.28125","-20.9375"
"1537791412732","6","-1.0195312","-0.22949219","0.21972656","5.1875","1.96875","-22.03125"
"1537791412732","7","-0.9892578","-0.15039062","0.17382812","-12.8125","5.75","-15.875"
"1537791412733","8","-1.0283203","-0.15917969","0.16894531","-23.25","6.46875","-9.8125"
"1537791412927","9","-1.0556641","-0.0068359375","0.1328125","-43.6875","12.34375","-3.96875"
"1537791412927","10","-1.1005859","0.078125","0.12109375","-54.4375","24.0625","1.09375"
"1537791412929","11","-1.2304688","0.11230469","0.036132812","-30.03125","34.125","14.28125"
"1537791412930","12","-1.2460938","0.2890625","-0.1484375","-5.5625","55.1875","49.8125"
"1537791412931","13","-1.1035156","0.33984375","-0.28808594","-18.75","92.125","101.875"
"1537791413126","14","-1.0546875","-0.07714844","0.36132812","-42.34375","60.25","123.1875"
"1537791413126","15","-1.2724609","-0.2783203","0.19726562","12.625","65.25","104.75"
"1537791413128","16","-1.0439453","0.072265625","0.0703125","-14.21875","36.28125","106.34375"
"1537791413128","17","-0.99609375","-0.07324219","0.0234375","19.40625","24.25","103.53125"
"1537791413128","18","-0.8964844","0.1171875","-0.03125","48.9375","28.75","87.65625"
"1537791413325","19","-0.82910156","0.032226562","-0.05859375","87.65625","13.1875","75.15625"
"1537791413325","20","-0.765625","-0.080078125","0.021484375","90.6875","5.5625","51.78125"
"1537791413326","21","-0.72753906","-0.059570312","-0.018554688","68.1875","2.09375","27.65625"
"1537791413326","22","-0.7246094","0.1796875","-0.045898438","15.0","-15.25","11.0625"
"1537791413327","23","-0.88964844","0.5019531","-0.34179688","50.96875","-28.0","-9.5"
"1537791413525","24","-1.1445312","0.59375","-0.59765625","109.4375","-12.8125","-6.71875"
"1537791413525","25","-1.1210938","0.359375","-0.43066406","74.40625","-1.15625","10.3125"
"1537791413525","26","-0.98046875","-0.078125","-0.018554688","-16.34375","-31.125","7.34375"
"1537791413526","27","-1.2285156","-0.037109375","-0.5546875","-153.1875","-91.71875","8.125"
"1537791413527","28","-1.1992188","0.14648438","0.25683594","4.03125","-41.0625","-31.375"
"1537791413724","29","-0.78027344","-0.3330078","0.234375","-52.1875","-39.125","-41.5"
"1537791413725","30","-0.9550781","0.12988281","0.2841797","-57.0","-48.21875","-51.875"
"1537791413725","31","-1.0751953","0.10644531","0.17480469","-23.125","-43.4375","-65.65625"
"1537791413725","32","-0.9082031","-0.064453125","0.24902344","-13.78125","-45.28125","-68.59375"
"1537791413725","33","-0.95996094","-0.16699219","0.21289062","-65.90625","-47.03125","-69.8125"
"1537791413923","34","-0.89453125","0.057617188","0.20703125","-70.625","-40.75","-67.625"
"1537791413924","35","-0.93847656","0.07910156","0.22070312","-48.9375","-35.75","-71.03125"
"1537791413924","36","-0.9121094","0.115234375","0.19433594","-23.0625","-38.6875","-70.84375"
"1537791413924","37","-0.9277344","0.025390625","0.09765625","-7.625","-37.78125","-63.03125"
"1537791413924","38","-1.0615234","-0.17480469","0.2265625","-11.78125","-31.46875","-56.5625"
"1537791414120","39","-1.1035156","0.0546875","0.12109375","-59.875","-28.78125","-51.5625"
"1537791414120","40","-1.1767578","0.203125","0.17773438","-56.09375","-0.65625","-31.25"
"1537791414120","41","-1.2792969","0.16015625","0.041992188","-35.28125","22.84375","-6.34375"
"1537791414122","42","-1.3964844","0.6357422","-0.059570312","-49.5","46.59375","24.90625"
"1537791414122","43","-1.2080078","0.6923828","-0.38085938","-50.40625","116.34375","99.6875"
"1537791414320","44","-1.1201172","-0.04296875","0.7558594","5.6875","77.34375","144.0"
"1537791414517","45","-1.609375","-0.28027344","0.25683594","22.34375","74.90625","125.875"
"1537791414719","46","-1.3574219","-0.061523438","0.23925781","-1.53125","34.6875","142.21875"
"1537791414719","47","-1.0341797","-0.3720703","0.032226562","33.4375","36.03125","145.5625"
"1537791414719","48","-0.78808594","-0.115234375","-0.06542969","71.96875","46.65625","117.75"
"1537791414720","49","-0.75683594","-0.12011719","0.09375","108.8125","37.3125","89.125"
"1537791414720","50","-0.5966797","-0.3154297","0.15625","138.1875","34.9375","47.75"
"1537791414721","51","-0.46875","-0.45898438","0.31054688","89.40625","16.0","10.15625"
"1537791414721","52","-0.59765625","-0.29003906","0.15332031","13.3125","-22.875","-28.6875"
"1537791414721","53","-1.0166016","0.9404297","-0.921875","91.625","-41.25","-61.40625"
"1537791414721","54","-1.5537109","0.97558594","-0.6464844","94.65625","-35.21875","0.125"
"1537791414917","55","-1.1875","0.09863281","0.2841797","-31.125","-51.8125","-76.90625"
"1537791414917","56","-0.9560547","-0.0390625","0.22070312","-27.15625","-38.25","-87.625"
"1537791414917","57","-0.87402344","-0.1015625","0.23535156","-36.4375","-47.46875","-87.21875"
"1537791414917","58","-0.91308594","0.015625","0.18164062","-79.96875","-38.25","-77.9375"
"1537791414918","59","-0.88671875","0.10644531","0.19628906","-77.09375","-38.3125","-71.875"
"1537791415114","60","-0.90527344","0.009765625","0.09082031","-36.8125","-43.9375","-76.40625"
"1537791415114","61","-1.0068359","0.026367188","0.14453125","-4.21875","-46.75","-76.09375"
"1537791415114","62","-1.1689453","0.03515625","0.051757812","-33.21875","-30.875","-66.34375"
"1537791415115","63","-1.2861328","0.3955078","0.09863281","-71.53125","-6.28125","-48.03125"
"1537791415116","64","-1.2421875","0.5341797","0.07324219","-15.8125","31.5625","-20.25"
"1537791415314","65","-1.5517578","0.58496094","-0.0146484375","-0.3125","61.09375","29.1875"
"1537791415315","66","-1.2265625","0.40429688","-0.2890625","-12.75","126.78125","112.875"
"1537791415316","67","-1.3251953","-0.39941406","0.6328125","25.09375","73.625","150.21875"
"1537791415316","68","-1.3232422","0.12011719","0.3466797","22.78125","73.1875","131.34375"
"1537791415316","69","-1.3134766","-0.265625","0.22949219","43.875","18.1875","145.625"
"1537791415511","70","-0.94433594","-0.28027344","0.060546875","54.4375","22.03125","141.5625"
"1537791415512","71","-0.76660156","-9.765625E-4","0.06347656","74.09375","11.3125","114.5625"
"1537791415512","72","-0.84472656","-0.05859375","0.119140625","127.125","5.875","89.1875"
"1537791415513","73","-0.7324219","-0.43554688","0.08886719","172.84375","22.0","55.375"
"1537791415513","74","-0.5263672","-0.50390625","0.14453125","86.71875","6.46875","21.75"
"1537791415710","75","-0.5888672","-0.2890625","0.14257812","-40.84375","-40.9375","-7.125"
"1537791415711","76","-0.95996094","0.8154297","-0.4013672","38.21875","-47.59375","-36.96875"
"1537791415711","77","-1.5292969","1.2900391","-0.77734375","63.65625","-29.09375","-10.90625"
"1537791415712","78","-0.9980469","0.27441406","-0.16308594","64.5625","-26.96875","12.875"
"1537791415712","79","-1.34375","-0.6855469","0.3564453","-106.8125","-117.34375","-25.125"
"1537791415911","80","-1.3369141","0.11035156","-0.22949219","41.875","-38.6875","-1.625"
"1537791415911","81","-0.54785156","-0.5410156","0.52441406","-91.0625","-27.21875","-40.21875"
"1537791416107","82","-1.1738281","0.33496094","0.48828125","-95.59375","-49.84375","-51.875"
"1537791416108","83","-1.1455078","0.016601562","0.18359375","-25.5625","-34.40625","-83.90625"
"1537791416108","84","-0.80371094","-0.017578125","0.24902344","-33.6875","-38.9375","-84.78125"
"1537791416109","85","-0.94140625","-0.0703125","0.19726562","-78.0625","-36.0625","-83.3125"
"1537791416110","86","-0.9082031","0.14160156","0.14453125","-89.84375","-31.1875","-68.84375"
"1537791416110","87","-0.92089844","0.20214844","0.14257812","-83.9375","-27.875","-65.71875"
"1537791416111","88","-0.953125","0.103515625","0.10449219","-41.4375","-26.59375","-67.6875"
"1537791416305","89","-1.0410156","0.091796875","0.1328125","-29.84375","-23.0625","-66.65625"
"1537791416307","90","-1.1230469","0.31152344","0.19140625","-66.71875","-19.75","-56.6875"
"1537791416307","91","-1.2587891","0.5185547","0.09082031","-16.0625","18.09375","-37.65625"
"1537791416308","92","-1.4980469","0.5605469","0.03515625","-1.21875","46.53125","0.0"
"1537791416309","93","-1.5039062","0.9169922","-0.5078125","-10.75","97.0625","82.15625"
"1537791416505","94","-0.86816406","0.12988281","0.50878906","21.53125","86.875","149.4375"
"1537791416705","95","-1.9931641","-0.328125","0.27734375","69.53125","61.28125","127.5"
"1537791416705","96","-1.3066406","-0.064453125","0.32714844","77.6875","20.28125","147.71875"
"1537791416706","97","-1.1005859","-0.5097656","-0.017578125","61.53125","21.5625","137.40625"
"1537791416706","98","-0.7363281","-0.17285156","-0.029296875","11.28125","28.21875","119.5625"
"1537791416707","99","-0.8095703","-0.109375","-0.06933594","44.625","13.375","92.65625"
"1537791416707","100","-0.7421875","-0.12695312","0.059570312","109.0625","27.78125","65.875"
"1537791416708","101","-0.5673828","-0.2841797","0.18457031","88.75","12.09375","23.875"
"1537791416708","102","-0.52734375","-0.20898438","0.052734375","51.09375","-15.125","-15.625"
"1537791416709","103","-0.65722656","0.34179688","-0.17285156","47.96875","-42.59375","-48.875"
"1537791416903","104","-1.4628906","1.2021484","-1.0664062","97.71875","-20.25","-40.75"
"1537791416904","105","-1.2451172","0.40722656","-0.5048828","51.6875","-27.21875","14.65625"
"1537791416904","106","-0.9355469","-0.7011719","0.5371094","-100.28125","-73.59375","3.625"
"1537791416904","107","-1.59375","0.69921875","-0.7861328","53.78125","-9.9375","-32.8125"
"1537791416904","108","-0.48828125","-0.9667969","0.9316406","-83.625","-6.625","-19.46875"
"1537791417103","109","-1.1591797","0.24121094","0.5800781","-130.0625","-50.59375","-52.90625"
"1537791417104","110","-1.1523438","0.08203125","0.19921875","-49.8125","-42.59375","-76.53125"
"1537791417104","111","-0.85546875","0.041015625","0.23535156","-31.90625","-34.40625","-83.65625"
"1537791417104","112","-0.91503906","-0.080078125","0.22167969","-60.25","-41.0","-87.625"
"1537791417104","113","-0.90234375","0.10253906","0.14453125","-79.65625","-31.90625","-79.59375"
"1537791417302","114","-0.9013672","0.046875","0.19628906","-68.96875","-35.03125","-77.6875"
"1537791417302","115","-0.9082031","0.22363281","0.0546875","-41.5625","-32.59375","-81.0"
"1537791417302","116","-1.046875","0.07714844","0.17578125","-21.71875","-30.5625","-70.90625"
"1537791417302","117","-1.078125","0.26367188","0.17382812","-57.5625","-24.34375","-58.53125"
"1537791417302","118","-1.2607422","0.44140625","0.125","-52.3125","10.3125","-43.21875"
"1537791417498","119","-1.3867188","0.45507812","-0.046875","-2.4375","35.71875","-9.6875"
"1537791417498","120","-1.484375","0.8779297","-0.3544922","-28.6875","67.34375","47.8125"
"1537791417500","121","-0.9453125","0.09082031","0.12695312","-7.03125","119.9375","124.09375"
"1537791417501","122","-1.9765625","-0.5292969","0.39648438","70.375","58.78125","146.0"
"1537791417501","123","-1.2636719","0.08496094","0.46191406","-12.09375","54.6875","147.96875"
"1537791417699","124","-1.2412109","-0.24414062","0.12597656","38.28125","5.875","144.96875"
"1537791417700","125","-0.90625","-0.08300781","-0.0029296875","60.84375","17.28125","133.125"
"1537791417700","126","-0.82128906","-0.059570312","0.07714844","109.9375","5.375","101.03125"
"1537791417701","127","-0.69921875","-0.234375","0.12597656","153.1875","10.4375","75.21875"
"1537791417702","128","-0.58203125","-0.5419922","0.21582031","169.875","6.71875","35.28125"
"1537791417899","129","-0.41992188","-0.49121094","0.20800781","48.28125","-16.28125","-5.59375"
"1537791417899","130","-0.74609375","-0.026367188","-0.125","-59.09375","-50.40625","-38.4375"
"1537791417899","131","-1.4726562","1.5253906","-1.0107422","100.71875","-24.53125","-38.5"
"1537791417899","132","-1.3271484","0.79785156","-0.53515625","47.71875","-22.5625","29.84375"
"1537791417900","133","-0.7011719","-0.3876953","0.50097656","-7.8125","-62.5","20.8125"
"1537791418097","134","-1.5029297","-0.18847656","-1.3603516","33.15625","6.25","-66.15625"
"1537791418097","135","-1.0283203","-1.1064453","0.5673828","-155.34375","-0.71875","23.4375"
"1537791418097","136","-0.7402344","0.01953125","0.5576172","-161.9375","-34.15625","-57.84375"
"1537791418097","137","-1.2519531","0.17578125","0.22949219","-42.90625","-53.9375","-76.65625"
"1537791418098","138","-0.9345703","0.0048828125","0.21191406","-16.46875","-33.75","-88.375"
"1537791418295","139","-0.83691406","-0.17871094","0.2939453","-53.90625","-41.96875","-85.5625"
"1537791418494","140","-0.92089844","0.061523438","0.18554688","-104.84375","-32.09375","-75.1875"
"1537791418494","141","-0.9277344","0.05859375","0.203125","-83.0","-36.5625","-74.03125"
"1537791418495","142","-0.9013672","0.19140625","0.02734375","-55.78125","-38.5625","-81.46875"
"1537791418498","143","-1.078125","0.02734375","0.22363281","-16.1875","-38.0","-77.03125"
"1537791418498","144","-1.0693359","0.26367188","0.09765625","-51.6875","-34.03125","-69.5"
"1537791418498","145","-1.2441406","0.5097656","0.15625","-66.15625","6.78125","-47.53125"
"1537791418498","146","-1.2949219","0.51171875","0.052734375","-22.8125","31.3125","-5.0625"
"1537791418498","147","-1.5712891","0.78222656","-0.10546875","-4.40625","53.1875","51.46875"
"1537791418498","148","-1.0029297","0.19335938","-0.044921875","-8.1875","125.875","144.46875"
"1537791418691","149","-1.9931641","-0.75","0.4169922","24.15625","59.40625","151.6875"
"1537791418692","150","-1.2724609","0.16113281","0.15722656","-26.25","66.90625","150.40625"
"1537791418692","151","-1.28125","-0.29882812","0.13574219","-1.65625","19.125","150.03125"
"1537791418692","152","-0.94140625","-0.18066406","0.0029296875","24.34375","39.3125","133.0"
"1537791418693","153","-0.69628906","-0.059570312","-0.028320312","85.3125","33.40625","102.59375"
"1537791418893","154","-0.6279297","-0.2265625","0.23535156","135.375","20.40625","75.9375"
"1537791418893","155","-0.5048828","-0.4873047","0.25","116.46875","11.625","31.3125"
"1537791418893","156","-0.41308594","-0.4560547","0.30078125","13.5","-16.84375","-11.03125"
"1537791418894","157","-0.7373047","0.43164062","-0.203125","42.1875","-46.96875","-48.28125"
"1537791418896","158","-1.5869141","1.515625","-1.0371094","98.9375","-17.5625","-35.15625"
"1537791419089","159","-1.3642578","0.4091797","-0.390625","93.5625","-30.875","19.0625"
"1537791419089","160","-1.5068359","-0.6171875","0.08105469","-112.3125","-69.5625","19.28125"
"1537791419089","161","-0.5888672","-0.6074219","0.42089844","2.125","-13.71875","-9.15625"
"1537791419090","162","-1.1113281","-0.31640625","0.6123047","-153.5","-42.28125","-57.96875"
"1537791419091","163","-1.0332031","0.35253906","0.29882812","-52.4375","-61.8125","-66.65625"
"1537791419290","164","-1.0712891","-0.040039062","0.25683594","-14.46875","-41.84375","-91.65625"
"1537791419290","165","-0.7919922","0.041992188","0.2734375","-7.15625","-48.625","-93.125"
"1537791419291","166","-0.97753906","-0.13476562","0.12011719","-53.53125","-47.21875","-87.40625"
"1537791419291","167","-0.90234375","0.22070312","0.16894531","-90.875","-28.375","-73.71875"
"1537791419291","168","-0.8691406","0.18066406","0.26660156","-81.78125","-31.53125","-74.875"
"1537791419486","169","-0.9267578","0.15429688","0.03125","-37.78125","-33.75","-75.75"
"1537791419487","170","-1.0537109","0.025390625","0.23632812","6.40625","-33.0625","-68.15625"
"1537791419488","171","-1.1220703","0.046875","0.076171875","-52.4375","-31.46875","-63.28125"
"1537791419488","172","-1.2578125","0.45214844","0.17773438","-66.59375","9.28125","-36.78125"
"1537791419488","173","-1.4287109","0.4296875","-0.033203125","-16.90625","36.21875","-10.4375"
"1537791419685","174","-1.4921875","0.875","0.028320312","-15.625","63.25","36.4375"
"1537791419685","175","-1.0625","0.34277344","-0.1328125","4.8125","126.40625","128.0625"
"1537791419686","176","-1.7568359","-0.39160156","0.6064453","79.59375","54.46875","157.65625"
"1537791419686","177","-1.3095703","0.032226562","0.40527344","7.15625","74.65625","149.90625"
"1537791419687","178","-1.3417969","-0.032226562","0.296875","23.75","12.90625","155.90625"
"1537791420083","179","-0.9785156","-0.099609375","0.09863281","80.5","17.40625","140.5625"
"1537791420083","180","-0.7675781","-0.13964844","0.16210938","125.84375","13.0625","112.625"
"1537791420083","181","-0.5917969","-0.20800781","0.24707031","188.21875","-4.4375","84.65625"
"1537791420083","182","-0.5878906","-0.6279297","0.2685547","167.40625","-15.96875","32.125"
"1537791420085","183","-0.328125","-0.6669922","0.28125","14.78125","-25.1875","-6.15625"
"1537791420085","184","-0.69140625","-0.10546875","-0.0146484375","-97.0","-58.65625","-43.625"
"1537791420086","185","-1.703125","1.9394531","-1.1347656","155.46875","-8.09375","-35.625"
"1537791420087","186","-1.2753906","0.7626953","-0.58984375","42.90625","-33.1875","38.9375"
"1537791420087","187","-0.6816406","-0.40625","1.0996094","-49.0","-66.15625","3.625"
"1537791420480","188","-1.9931641","0.9326172","-1.1738281","190.78125","16.96875","-69.5625"
"1537791420679","189","-0.32714844","-1.5839844","1.0537109","-37.34375","-24.34375","-21.96875"
"1537791420679","190","-1.0693359","0.38085938","0.5839844","-173.15625","-50.84375","-68.15625"
"1537791420679","191","-1.1953125","0.055664062","0.20214844","-17.53125","-49.78125","-82.4375"
"1537791420680","192","-0.78027344","-0.060546875","0.25097656","-28.625","-43.375","-90.1875"
"1537791420877","193","-0.9326172","-0.056640625","0.20605469","-66.21875","-43.625","-85.5625"
"1537791420877","194","-0.8876953","0.12890625","0.17675781","-98.09375","-32.75","-76.15625"
"1537791420878","195","-0.8964844","0.24609375","0.13964844","-75.0625","-28.6875","-73.96875"
"1537791420879","196","-0.9169922","0.07421875","0.14453125","-50.96875","-29.65625","-73.71875"
"1537791420880","197","-1.2314453","0.4375","0.16796875","-60.71875","-26.84375","-67.5"
"1537791420880","198","-1.9931641","-0.8457031","0.3046875","35.09375","65.3125","133.5"
"1537791420880","199","-1.2070312","0.026367188","0.13671875","-44.5625","61.09375","151.6875"
"1537791421077","200","-1.125","-0.24902344","0.14746094","-28.875","38.34375","149.78125"
"1537791421077","201","-0.8154297","-0.14746094","-0.018554688","32.34375","42.125","120.75"
"1537791421077","202","-0.60839844","-0.13964844","0.11816406","86.375","18.625","100.15625"
"1537791421077","203","-0.56152344","-0.3623047","0.265625","120.4375","7.8125","59.21875"
"1537791421078","204","-0.29589844","-0.5029297","0.3046875","87.40625","-1.28125","5.75"
"1537791421079","205","-0.44433594","-0.37109375","0.13574219","5.3125","-24.28125","-33.625"
"1537791421080","206","-1.2763672","1.2021484","-0.8173828","120.84375","-58.46875","-68.46875"
"1537791421080","207","-1.8232422","1.2402344","-1.0332031","26.78125","-32.34375","16.71875"
"1537791421081","208","-0.5722656","-0.119140625","0.29296875","41.25","-11.875","24.4375"
"1537791421276","209","-1.5908203","-0.21875","-1.1933594","-180.1875","-68.09375","-41.75"
"1537791421276","210","-1.28125","-0.56347656","0.7519531","-132.6875","3.625","44.25"
"1537791421277","211","-0.5498047","-0.46972656","0.5263672","-123.84375","-31.59375","-62.1875"
"1537791421277","212","-1.3740234","0.20703125","0.32421875","-68.53125","-65.65625","-79.15625"
"1537791421476","213","-1.0058594","0.051757812","0.21777344","-22.9375","-40.21875","-94.0"
"1537791421478","214","-0.76953125","-0.018554688","0.2763672","-46.3125","-45.8125","-89.28125"
"1537791421478","215","-0.9316406","-0.026367188","0.17382812","-97.53125","-32.8125","-78.25"
"1537791421478","216","-0.8720703","0.140625","0.2109375","-106.1875","-28.1875","-73.90625"
"1537791421479","217","-0.89160156","0.10839844","-0.015625","-72.3125","-34.40625","-81.09375"
"1537791421673","218","-1.0478516","0.09667969","0.29492188","-13.625","-39.0","-75.78125"
"1537791421673","219","-1.1923828","0.05078125","0.07910156","-31.375","-33.875","-73.65625"
"1537791421673","220","-1.3144531","0.4404297","0.111328125","-69.75","-5.40625","-53.28125"
"1537791421674","221","-1.1582031","0.54785156","0.018554688","-36.8125","30.65625","-18.78125"
"1537791421674","222","-1.4423828","0.78027344","-0.07714844","-40.46875","62.09375","29.96875"
"1537791421874","223","-0.98046875","0.8486328","-0.22460938","-31.5","140.53125","121.96875"
"1537791421874","224","-1.5449219","-0.29101562","0.74902344","58.96875","55.375","172.375"
"1537791421874","225","-1.5351562","-0.030273438","0.4658203","33.9375","81.4375","150.15625"
"1537791421874","226","-1.4433594","-0.10449219","0.23535156","-5.8125","25.90625","165.28125"
"1537791421874","227","-1.0078125","-0.28222656","0.029296875","54.375","23.28125","150.59375"
"1537791422070","228","-0.82421875","-0.125","-0.08984375","80.5625","21.3125","105.125"
"1537791422070","229","-0.5859375","-0.24609375","0.06933594","143.25","40.65625","80.40625"
"1537791422071","230","-0.4580078","-0.46777344","0.42578125","129.28125","5.625","34.0"
"1537791422072","231","-0.296875","-0.6035156","0.40234375","43.75","-10.0","-5.3125"
"1537791422072","232","-0.5830078","-0.18359375","-0.017578125","-62.25","-52.40625","-24.21875"
"1537791422270","233","-1.5703125","1.8339844","-1.1347656","170.46875","-41.0","-46.25"
"1537791422271","234","-1.3183594","0.9482422","-0.65722656","36.125","-27.75","16.90625"
"1537791422271","235","-0.5126953","-0.2734375","0.43359375","-8.53125","-16.84375","23.25"
"1537791422271","236","-1.6386719","-0.31835938","-1.5957031","-65.375","-51.75","-65.40625"
"1537791422271","237","-1.3466797","-0.8105469","0.74121094","-187.1875","21.1875","52.5"
"1537791422470","238","-0.35351562","-0.20117188","0.62402344","-169.8125","-24.875","-56.9375"
"1537791422470","239","-1.6464844","0.26953125","0.20410156","-67.4375","-73.21875","-80.3125"
"1537791422471","240","-0.9902344","-0.047851562","0.15429688","-10.5625","-36.5625","-95.3125"
"1537791422472","241","-0.77734375","-0.07519531","0.30859375","-63.46875","-41.6875","-92.71875"
"1537791422472","242","-0.8935547","0.016601562","0.16992188","-86.84375","-36.71875","-73.96875"
"1537791422865","243","-0.91308594","0.123046875","0.21191406","-82.28125","-34.09375","-75.96875"
"1537791422867","244","-0.890625","0.15527344","-0.091796875","-71.65625","-36.4375","-78.59375"
"1537791422867","245","-1.0419922","0.119140625","0.2607422","-31.375","-34.28125","-72.875"
"1537791422867","246","-1.0390625","0.26953125","0.15039062","-53.84375","-29.96875","-68.78125"
"1537791422867","247","-1.2177734","0.56933594","0.23535156","-44.375","5.03125","-52.25"
"1537791422868","248","-1.4433594","0.43554688","-0.029296875","-17.09375","30.40625","-6.46875"
"1537791422868","249","-1.4892578","0.91796875","-0.14160156","-25.09375","52.9375","51.15625"
"1537791422869","250","-0.98046875","0.21289062","-0.053710938","-8.71875","123.78125","153.34375"
"1537791422870","251","-1.9931641","-0.6699219","0.50683594","66.46875","55.0625","159.90625"
"1537791423064","252","-1.3398438","0.1015625","0.25097656","-52.25","81.0","156.1875"
"1537791423065","253","-1.3349609","-0.1171875","0.19433594","3.96875","19.25","157.65625"
"1537791423065","254","-0.9189453","-0.13378906","0.013671875","70.5625","34.8125","137.59375"
"1537791423065","255","-0.6621094","-0.09472656","0.15332031","96.125","10.875","98.28125"
"1537791423066","256","-0.5078125","-0.3046875","0.24609375","129.875","-0.21875","70.9375"
"1537791423066","257","-0.39746094","-0.69140625","0.24023438","134.34375","-4.5","20.5625"
"1537791423264","258","-0.29785156","-0.59765625","0.28125","8.0","-31.0625","-15.125"
"1537791423265","259","-1.0302734","0.7441406","-0.54003906","10.875","-48.75","-55.34375"
"1537791423265","260","-1.8574219","2.0048828","-0.82910156","-2.125","-56.5","27.40625"
"1537791423265","261","-1.0244141","0.37597656","-0.14746094","94.90625","-15.78125","29.5"
"1537791423265","262","-1.0878906","-0.5126953","0.7636719","-139.21875","-121.4375","-10.375"
"1537791423463","263","-1.7119141","0.3046875","-0.29003906","76.59375","-24.28125","6.40625"
"1537791423861","264","-0.32128906","-0.98339844","0.5019531","-39.0","-53.46875","-55.53125"
"1537791424057","265","-1.4169922","0.38085938","0.515625","-97.71875","-71.09375","-74.34375"
"1537791424058","266","-1.1308594","-0.044921875","0.18847656","-16.40625","-49.5","-88.0625"
"1537791424059","267","-0.7158203","0.005859375","0.3154297","-54.875","-47.96875","-95.9375"
"1537791424059","268","-0.94921875","0.041992188","0.203125","-88.625","-45.40625","-83.84375"
"1537791424059","269","-0.8935547","0.16699219","0.24121094","-121.34375","-22.6875","-71.21875"
"1537791424060","270","-0.86816406","0.17675781","0.18066406","-91.8125","-33.875","-75.90625"
"1537791424060","271","-0.93847656","0.0390625","0.22265625","-32.53125","-37.65625","-79.75"
"1537791424061","272","-1.1445312","0.095703125","0.12109375","-20.1875","-38.1875","-74.03125"
"1537791424062","273","-1.9931641","-0.59277344","0.31640625","52.375","74.0625","130.4375"
"1537791424256","274","-0.6328125","-0.32910156","0.29589844","152.03125","13.875","57.8125"
"1537791424257","275","-0.4091797","-0.5595703","0.234375","90.15625","12.78125","9.40625"
"1537791424257","276","-0.4013672","-0.27246094","0.19726562","17.6875","-28.0625","-18.65625"
"1537791424258","277","-0.90625","0.89160156","-0.50097656","77.09375","-48.03125","-56.5625"
"1537791424259","278","-1.6708984","1.515625","-0.9589844","58.65625","-22.21875","-14.625"
"1537791424456","279","-1.0654297","0.20898438","-0.095703125","70.9375","-19.8125","14.46875"
"1537791424456","280","-1.5771484","-0.5673828","-0.17089844","-201.28125","-98.75","0.375"
"1537791424653","281","-1.1376953","0.072265625","0.63964844","-13.90625","-23.84375","4.71875"
"1537791424653","282","-0.703125","-0.50683594","0.46484375","-103.21875","-25.0625","-64.03125"
"1537791424655","283","-1.2353516","0.3984375","0.49414062","-68.65625","-65.65625","-75.0"
"1537791424656","284","-1.0869141","0.037109375","0.24511719","-20.6875","-42.84375","-89.90625"
"1537791424656","285","-0.81640625","0.001953125","0.28222656","-24.96875","-45.9375","-92.40625"
"1537791424657","286","-0.9824219","-0.10058594","0.13769531","-77.625","-39.40625","-87.15625"
"1537791424657","287","-0.8388672","0.2265625","0.23632812","-116.09375","-20.4375","-70.78125"
"1537791424657","288","-0.8173828","0.21777344","0.20800781","-87.65625","-31.59375","-72.5625"
"1537791424854","289","-0.9296875","0.109375","0.15917969","-20.09375","-40.34375","-78.71875"
"1537791424854","290","-1.0927734","0.053710938","0.14453125","-2.8125","-31.0","-74.625"
"1537791424855","291","-1.2236328","0.29101562","0.024414062","-64.21875","-22.6875","-57.4375"
"1537791424855","292","-1.1904297","0.4873047","0.17382812","-57.75","24.0","-38.5"
"1537791424855","293","-1.484375","0.5263672","0.0087890625","-14.78125","36.4375","-6.875"
"1537791425051","294","-1.3632812","0.9785156","-0.24511719","-22.65625","78.03125","56.90625"
"1537791425052","295","-0.9326172","0.40039062","0.25683594","-0.4375","139.34375","152.90625"
"1537791425053","296","-1.9931641","-0.49902344","0.44628906","104.25","26.4375","151.4375"
"1537791425053","297","-1.2685547","-0.04296875","0.36914062","17.09375","72.09375","162.65625"
"1537791425053","298","-1.34375","-0.087890625","0.34375","9.09375","14.78125","165.84375"
"1537791425253","299","-0.9941406","-0.061523438","0.099609375","69.40625","12.09375","141.0"
"1537791425253","300","-0.7470703","-0.10644531","0.16210938","124.34375","-0.96875","106.03125"
"1537791425254","301","-0.54589844","-0.23730469","0.27441406","197.6875","-1.9375","77.09375"
"1537791425254","302","-0.49023438","-0.64160156","0.31933594","170.28125","-6.21875","14.09375"
"1537791425254","303","-0.32910156","-0.67285156","0.2578125","42.25","-32.03125","-22.09375"
"1537791425450","304","-0.78222656","-0.1796875","-0.13476562","-62.1875","-60.84375","-55.28125"
"1537791425451","305","-1.7177734","2.0048828","-1.0634766","155.75","11.0625","-38.5625"
"1537791425451","306","-1.2363281","0.82421875","-0.5019531","61.28125","-22.875","32.71875"
"1537791425451","307","-0.6425781","-0.5810547","0.78222656","-40.40625","-61.15625","-0.59375"
"1537791425451","308","-1.9931641","1.0419922","-1.3144531","151.625","45.375","-68.78125"
"1537791425648","309","-0.265625","-1.5644531","1.4355469","-83.0","-13.96875","-20.1875"
"1537791425648","310","-0.9902344","0.49316406","0.58496094","-166.375","-54.3125","-64.8125"
"1537791425649","311","-1.2265625","0.0234375","0.19824219","-11.09375","-47.21875","-81.03125"
"1537791425649","312","-0.8183594","-0.061523438","0.22070312","-7.375","-44.53125","-94.03125"
"1537791425650","313","-0.8984375","-0.10253906","0.20410156","-30.40625","-51.375","-94.21875"
"1537791425846","314","-0.89941406","0.1171875","0.15820312","-82.53125","-36.5","-80.8125"
"1537791425846","315","-0.9394531","0.29785156","0.1796875","-71.71875","-28.5625","-76.84375"
"1537791425847","316","-0.92089844","0.125","0.051757812","-61.875","-24.65625","-72.6875"
"1537791425847","317","-1.0693359","0.05078125","0.23046875","-3.78125","-28.96875","-66.03125"
"1537791425848","318","-1.1152344","0.15722656","0.06738281","-51.9375","-23.71875","-59.8125"
"1537791426045","319","-1.2333984","0.53808594","0.15234375","-46.75","17.46875","-43.21875"
"1537791426045","320","-1.3408203","0.546875","-0.051757812","0.0","43.59375","-10.0"
"1537791426046","321","-1.2480469","1.0244141","-0.13085938","-30.34375","73.4375","47.6875"
"1537791426047","322","-0.96972656","0.39453125","0.08496094","21.4375","118.78125","144.28125"
"1537791426246","323","-1.9931641","-0.640625","0.48632812","125.375","33.75","156.4375"
"1537791426246","324","-1.3857422","-0.026367188","0.51464844","7.375","65.5625","159.25"
"1537791426247","325","-1.3779297","-0.17578125","0.111328125","-0.3125","17.03125","161.75"
"1537791426248","326","-1.0195312","-0.072265625","-0.01171875","76.78125","22.34375","147.84375"
"1537791426248","327","-0.7519531","-0.14355469","0.11425781","121.71875","2.6875","100.71875"
"1537791427039","328","-0.5625","-0.23242188","0.21386719","176.40625","4.46875","79.59375"
"1537791427040","329","-0.47070312","-0.59765625","0.26367188","155.875","-0.09375","16.25"
"1537791427041","330","-0.31054688","-0.609375","0.31347656","37.78125","-25.0625","-21.59375"
"1537791427041","331","-0.6933594","-0.12597656","-0.064453125","-67.0625","-58.875","-47.46875"
"1537791427041","332","-1.7558594","2.0048828","-1.25","120.46875","-12.25","-34.28125"
"1537791427041","333","-1.28125","0.8261719","-0.6074219","54.75","-18.65625","36.09375"
"1537791427042","334","-0.5859375","-0.5078125","0.80078125","-55.125","-43.1875","15.21875"
"1537791427043","335","-1.7792969","0.81152344","-0.54589844","102.125","27.125","-27.34375"
"1537791427044","336","-0.45117188","-1.5244141","0.9404297","-79.28125","-24.15625","-21.0"
"1537791427238","337","-1.4619141","0.85546875","-0.14941406","-44.625","59.9375","51.59375"
"1537791427239","338","-1.0996094","0.3857422","-0.27734375","-5.5","114.15625","144.125"
"1537791427239","339","-1.78125","-0.7421875","0.55566406","26.84375","63.3125","162.125"
"1537791427239","340","-1.3212891","0.0126953125","0.30664062","-49.4375","73.375","148.5"
"1537791427240","341","-1.3056641","0.030273438","0.20800781","-32.78125","14.59375","158.6875"
"1537791427438","342","-0.98339844","-0.20507812","-0.029296875","28.75","22.78125","146.625"
"1537791427438","343","-0.74121094","-0.12890625","-0.00390625","57.1875","11.5625","100.46875"
"1537791427438","344","-0.6220703","-0.09765625","0.12011719","112.90625","3.125","83.03125"
"1537791427439","345","-0.5546875","-0.484375","0.24316406","149.34375","7.15625","26.875"
"1537791427439","346","-0.3310547","-0.51171875","0.24121094","42.1875","-10.71875","-12.3125"
"1537791427635","347","-0.65527344","-0.14355469","0.0107421875","-62.4375","-46.375","-37.59375"
"1537791427636","348","-1.5595703","1.8769531","-1.0146484","61.53125","-19.15625","-36.96875"
"1537791427637","349","-1.3769531","0.8154297","-0.6279297","18.125","-6.21875","6.40625"
"1537791427637","350","-0.7392578","-0.30078125","0.26464844","-10.25","-20.6875","8.1875"
"1537791427637","351","-1.7470703","0.4111328","-1.2734375","-104.0","-30.3125","-31.5"
"1537791427834","352","-0.8701172","-0.87109375","0.52734375","-133.1875","-13.15625","20.03125"
"1537791427835","353","-0.79589844","0.040039062","0.54589844","-140.5","-22.4375","-43.8125"
"1537791427835","354","-1.2099609","0.15527344","0.29589844","-71.34375","-49.5625","-49.4375"
"1537791427835","355","-0.9902344","0.09765625","0.23144531","-42.0","-37.09375","-60.71875"
"1537791427836","356","-0.8730469","-0.05859375","0.2890625","-88.875","-33.0","-65.1875"
"1537791428033","357","-0.8652344","0.053710938","0.23730469","-128.25","-22.25","-50.15625"
"1537791428033","358","-0.8984375","0.2109375","0.27929688","-123.65625","-23.53125","-52.90625"
"1537791428033","359","-0.8935547","0.37890625","0.28710938","-72.4375","-27.75","-55.78125"
"1537791428033","360","-0.9511719","0.037109375","0.14648438","-37.53125","-34.15625","-57.71875"
"1537791428036","361","-1.0498047","0.03515625","0.20117188","-57.5","-32.40625","-55.46875"
"1537791428431","362","-1.1279297","0.31640625","0.37402344","-93.03125","-20.875","-43.4375"
"1537791428432","363","-1.0927734","0.45703125","0.18652344","-48.84375","-5.0","-23.25"
"1537791428432","364","-1.328125","0.27929688","-0.036132812","-65.3125","22.03125","5.6875"
"1537791428433","365","-1.4023438","1.0595703","-0.5410156","-72.5625","65.0625","61.46875"
"1537791428434","366","-1.0576172","-0.01171875","-0.29003906","-63.84375","126.46875","147.09375"
"1537791428436","367","-1.8300781","-0.71777344","0.4951172","-63.71875","83.875","162.84375"
"1537791428436","368","-1.484375","0.24414062","0.119140625","-130.4375","82.59375","147.28125"
"1537791428436","369","-1.4267578","-0.203125","0.051757812","-38.9375","33.875","150.09375"
"1537791428436","370","-1.0683594","-0.40820312","-0.12011719","-10.5","58.3125","131.96875"
"1537791428628","371","-0.7265625","-0.005859375","0.009765625","29.90625","49.15625","86.75"
"1537791428629","372","-0.5839844","-0.13769531","0.11230469","37.65625","37.375","61.78125"
"1537791428630","373","-0.4140625","-0.39453125","0.16796875","57.9375","29.5625","15.875"
"1537791428630","374","-0.36328125","-0.23632812","0.328125","0.78125","1.78125","-16.53125"
"1537791428631","375","-0.69140625","0.52246094","0.0029296875","24.78125","-48.4375","-48.09375"
"1537791428631","376","-1.59375","1.6699219","-1.3544922","-50.84375","-9.5","-20.6875"
"1537791428829","377","-1.2919922","0.44921875","-0.3955078","31.75","-5.25","5.125"
"1537791428830","378","-0.70410156","-0.72265625","0.5078125","-144.96875","-56.03125","18.0625"
"1537791428830","379","-1.6972656","0.93359375","-0.46191406","51.6875","-26.28125","-34.46875"
"1537791428830","380","-0.6279297","-1.0117188","0.92578125","-126.46875","35.65625","8.1875"
"1537791428830","381","-0.76660156","0.13085938","0.62890625","-134.9375","-29.09375","-28.75"
"1537791429025","382","-1.2919922","0.04296875","0.23632812","-71.53125","-40.8125","-42.28125"
"1537791429026","383","-0.89746094","-0.064453125","0.31054688","-78.78125","-23.4375","-42.71875"
"1537791429027","384","-0.87597656","0.020507812","0.359375","-133.0","-28.375","-53.8125"
"1537791429027","385","-0.9199219","0.17871094","0.3330078","-155.15625","-12.5","-42.21875"
"1537791429028","386","-0.91308594","0.3125","0.38183594","-126.03125","-17.1875","-36.375"
"1537791429226","387","-0.8847656","0.20507812","0.19140625","-78.25","-25.6875","-38.1875"
"1537791429227","388","-1.0458984","0.025390625","0.15039062","-78.5625","-19.75","-42.96875"
"1537791429228","389","-0.98535156","0.16894531","0.099609375","-112.0","-14.4375","-34.59375"
"1537791429228","390","-1.0527344","0.6894531","0.27734375","-136.09375","0.1875","-24.90625"
"1537791429228","391","-1.0507812","0.68359375","-0.1015625","-80.1875","20.75","11.84375"
"1537791429426","392","-1.6533203","0.5126953","-0.6875","-102.84375","83.03125","68.75"
"1537791429426","393","-1.0654297","-0.13378906","-0.32617188","-134.40625","141.25","136.65625"
"1537791429427","394","-1.6298828","-0.8378906","0.43847656","-159.78125","107.0625","165.96875"
"1537791429427","395","-1.4794922","0.38964844","0.15136719","-188.28125","90.84375","139.0625"
"1537791429427","396","-1.3417969","-0.3515625","-0.14941406","-39.0625","46.03125","131.71875"
"1537791429624","397","-0.9951172","-0.2783203","-0.12695312","-37.53125","59.65625","118.0625"
"1537791429624","398","-0.75097656","-0.0126953125","0.026367188","6.71875","52.1875","71.0"
"1537791429624","399","-0.65527344","-0.005859375","0.078125","17.34375","41.875","41.4375"
"1537791429624","400","-0.5410156","-0.25976562","0.14648438","49.25","28.40625","11.125"
"1537791429626","401","-0.45996094","-0.16503906","0.2529297","14.65625","9.0","-8.34375"
"1537791429823","402","-0.5732422","0.08105469","0.20703125","-36.5","-26.46875","-26.71875"
"1537791429824","403","-1.1542969","1.2568359","-0.7138672","-90.15625","-34.96875","-30.5625"
"1537791429824","404","-1.4326172","1.296875","-1.1054688","-73.78125","-8.59375","10.625"
"1537791429824","405","-0.97753906","0.28027344","-0.13769531","50.65625","16.1875","-4.4375"
"1537791429824","406","-0.421875","-0.92089844","1.2304688","-235.34375","-79.53125","-8.40625"
"1537791430019","407","-1.7558594","1.3027344","-0.80371094","48.9375","-85.8125","-123.21875"
"1537791430020","408","-1.0859375","-1.2919922","0.34375","-124.15625","26.9375","13.125"
"1537791430020","409","-0.66796875","0.28222656","0.5","-146.0","-12.8125","-35.9375"
"1537791430021","410","-1.2412109","-0.029296875","0.4267578","-100.90625","-33.5625","-42.15625"
"1537791430023","411","-1.0117188","0.22363281","0.3408203","-92.78125","-21.28125","-48.28125"
"1537791430219","412","-0.9326172","-0.07421875","0.40722656","-127.3125","-25.5625","-57.4375"
"1537791430220","413","-0.8671875","0.09863281","0.35058594","-155.59375","-12.125","-46.25"
"1537791430220","414","-0.9433594","0.22363281","0.36035156","-123.34375","-18.25","-45.46875"
"1537791430220","415","-0.88964844","0.13769531","0.20507812","-99.90625","-17.8125","-47.84375"
"1537791430220","416","-0.9433594","0.060546875","0.24804688","-83.25","-18.90625","-59.6875"
"1537791430418","417","-1.0478516","0.14941406","0.28222656","-50.40625","-22.25","-58.40625"
"1537791430420","418","-1.2451172","0.31933594","0.11230469","-73.25","-15.5","-48.09375"
"1537791430420","419","-1.2607422","0.41992188","-0.08496094","-83.0","22.59375","-11.59375"
"1537791430420","420","-1.4335938","0.58984375","-0.2265625","-89.96875","60.875","30.46875"
"1537791430421","421","-1.2900391","0.8261719","-0.203125","-39.1875","88.625","88.8125"
"1537791430617","422","-1.0371094","0.2421875","0.6347656","-63.34375","119.875","159.0625"
"1537791430619","423","-1.9931641","-0.2548828","0.38183594","84.65625","60.4375","138.375"
"1537791430619","424","-1.3486328","-0.068359375","0.2421875","7.03125","56.09375","156.25"
"1537791430619","425","-1.2392578","-0.23828125","0.17089844","-3.34375","37.90625","147.78125"
"1537791430818","426","-0.90722656","-0.046875","0.041015625","43.59375","36.15625","118.40625"
"1537791430818","427","-0.75390625","-0.06738281","0.07421875","118.28125","28.53125","96.25"
"1537791430818","428","-0.57128906","-0.3671875","0.2998047","174.5625","17.15625","65.0625"
"1537791430818","429","-0.3935547","-0.57714844","0.31933594","112.3125","11.65625","17.90625"
"1537791430819","430","-0.37597656","-0.44140625","0.23730469","18.1875","-26.34375","-13.53125"
"1537791430819","431","-0.8125","0.6972656","-0.45898438","46.6875","-39.84375","-60.65625"
"1537791431016","432","-1.7636719","1.8710938","-0.8076172","92.65625","-26.28125","-11.90625"
"1537791431017","433","-1.0556641","0.32714844","-0.24707031","77.03125","-30.6875","23.03125"
"1537791431017","434","-1.2451172","-0.5839844","0.5595703","-161.25","-108.1875","-10.90625"
"1537791431018","435","-1.6367188","-0.0390625","-0.111328125","53.78125","-26.28125","14.53125"
"1537791431018","436","-0.56933594","-0.6220703","0.40429688","-99.5","-24.34375","-47.59375"
"1537791431213","437","-1.25","0.4560547","0.49609375","-73.5625","-60.34375","-69.6875"
"1537791431213","438","-1.140625","-0.08691406","0.21875","-2.125","-41.625","-99.0"
"1537791431213","439","-0.79003906","-0.083984375","0.25683594","-11.59375","-50.65625","-102.28125"
"1537791431214","440","-0.9785156","-0.06542969","0.103515625","-40.21875","-46.8125","-100.9375"
"1537791431412","441","-0.8720703","0.11328125","0.21972656","-79.65625","-39.21875","-83.65625"
"1537791431414","442","-0.8720703","0.18359375","0.11035156","-88.1875","-32.28125","-81.96875"
"1537791431414","443","-1.0048828","0.21386719","0.13378906","-44.875","-34.46875","-79.875"
"1537791431415","444","-1.1328125","0.18457031","0.19433594","-31.25","-24.09375","-63.59375"
"1537791431415","445","-1.296875","0.45214844","0.06933594","-61.59375","-1.21875","-52.84375"
"1537791431612","446","-1.2275391","0.65625","0.15625","-15.375","36.09375","-27.8125"
"1537791431811","447","-1.3740234","0.8261719","0.1484375","49.0625","48.34375","19.53125"
"1537791432007","448","-1.1630859","0.4736328","-0.29882812","58.28125","128.375","109.375"
"1537791432007","449","-1.3125","-0.4033203","0.75","60.0625","71.25","142.53125"
"1537791432207","450","-1.5361328","-0.19921875","0.15429688","-3.65625","81.8125","136.65625"
"1537791432207","451","-1.3037109","-0.078125","0.27148438","-1.65625","28.625","158.34375"
"1537791432207","452","-1.0673828","-0.12109375","0.09082031","34.25","13.625","151.125"
"1537791432207","453","-0.87109375","0.051757812","0.09472656","106.375","5.6875","126.53125"
"1537791432210","454","-0.70214844","-0.17089844","0.27148438","172.1875","-4.0","98.59375"
"1537791432210","455","-0.60058594","-0.5595703","0.27929688","186.78125","-9.03125","55.4375"
"1537791432210","456","-0.30371094","-0.68066406","0.25878906","75.25","-27.28125","8.84375"
"1537791432212","457","-1.7548828","0.4970703","-1.2412109","53.96875","14.53125","-69.8125"
"1537791432212","458","-0.6201172","-1.4111328","1.1503906","-102.28125","9.71875","16.4375"
"1537791432405","459","-0.9589844","0.005859375","0.5498047","-153.4375","-45.59375","-72.375"
"1537791432405","460","-0.81347656","0.016601562","0.22949219","-53.84375","-49.375","-86.90625"
"1537791432406","461","-0.9355469","0.12890625","0.16015625","-103.46875","-30.75","-76.96875"
"1537791432406","462","-0.87109375","0.19726562","0.2626953","-94.59375","-30.625","-72.5625"
"1537791432407","463","-0.9169922","0.11035156","0.0625","-56.15625","-35.625","-80.75"
"1537791432408","464","-1.0703125","0.15234375","0.15234375","12.09375","-45.09375","-78.46875"
"1537791432604","465","-1.1103516","0.123046875","0.044921875","-29.3125","-35.21875","-60.59375"
"1537791432604","466","-1.2353516","0.4140625","0.15722656","-70.625","5.75","-46.4375"
"1537791432605","467","-1.2382812","0.5097656","0.099609375","-3.25","25.15625","-19.40625"
"1537791432605","468","-1.4746094","0.8564453","0.0068359375","-13.0","58.1875","34.5"
"1537791432606","469","-1.1494141","0.57714844","-0.34960938","21.90625","126.1875","131.0"
"1537791433004","470","-1.4775391","-0.44921875","0.6435547","39.375","64.28125","158.21875"
"1537791433005","471","-1.3798828","-0.044921875","0.21191406","-15.6875","93.6875","144.0625"
"1537791433005","472","-1.2587891","0.028320312","0.35351562","-38.09375","34.1875","157.53125"
"1537791433005","473","-1.0126953","-0.0546875","0.10058594","26.625","27.0","142.90625"
"1537791433005","474","-0.78515625","0.037109375","0.037109375","100.03125","19.3125","113.84375"
"1537791433005","475","-0.5917969","-0.15917969","0.18847656","165.15625","20.40625","87.34375"
"1537791433006","476","-0.515625","-0.4638672","0.34570312","169.96875","3.25","34.625"
"1537791433006","477","-0.28320312","-0.56152344","0.26367188","54.75","-18.125","-13.46875"
"1537791433200","478","-0.546875","-0.11816406","-0.051757812","-8.0","-44.0","-49.0625"
"1537791433200","479","-1.4287109","0.51660156","-0.5546875","85.375","-32.875","11.59375"
"1537791433201","480","-0.7558594","-0.7910156","0.37109375","-82.8125","-43.5","31.8125"
"1537791433201","481","-1.6552734","0.9511719","-0.84277344","18.5","7.75","-25.125"
"1537791433202","482","-0.51464844","-1.2314453","1.0898438","-111.34375","-10.1875","-13.34375"
"1537791433203","483","-1.1601562","0.31640625","0.6435547","-117.8125","-59.875","-64.5"
"1537791433398","484","-1.1503906","-0.05078125","0.2578125","-31.875","-54.625","-79.40625"
"1537791433598","485","-0.86816406","-0.0068359375","0.2607422","-25.28125","-49.25","-93.625"
"1537791433598","486","-0.8330078","-0.099609375","0.2109375","-59.875","-51.75","-92.03125"
"1537791433598","487","-0.9511719","0.13183594","0.19433594","-102.1875","-39.15625","-76.03125"
"1537791433598","488","-0.8300781","0.15039062","0.22363281","-91.625","-33.1875","-79.46875"
"1537791433599","489","-0.953125","0.23730469","0.05078125","-62.5","-33.625","-79.9375"
"1537791433600","490","-1.0771484","0.1171875","0.21972656","-25.625","-30.1875","-69.03125"
"1537791433601","491","-1.1630859","0.22167969","0.14355469","-63.40625","-27.40625","-59.5"
"1537791433601","492","-1.2431641","0.54296875","0.07128906","-63.28125","17.71875","-37.21875"
"1537791433602","493","-1.3769531","0.55371094","-0.07910156","-27.78125","48.65625","-1.8125"
"1537791433799","494","-1.4375","0.92871094","-0.3125","-35.21875","82.34375","61.21875"
"1537791433800","495","-0.99316406","0.40722656","0.27246094","-3.96875","121.15625","154.6875"
"1537791433800","496","-1.9931641","-0.7910156","0.4189453","80.5","38.21875","147.46875"
"1537791433800","497","-1.2900391","0.061523438","0.3232422","-10.125","59.03125","168.03125"
"1537791433800","498","-1.2753906","-0.140625","0.18164062","0.71875","12.71875","164.6875"
"1537791433997","499","-0.9238281","-0.12792969","0.017578125","61.28125","9.21875","130.6875"
"1537791433997","500","-0.63964844","-0.12890625","0.12792969","124.5","1.59375","99.25"
"1537791434193","501","-0.53808594","-0.28710938","0.30078125","193.3125","-1.8125","72.53125"
"1537791434194","502","-0.43652344","-0.6777344","0.36035156","158.15625","-5.0","14.46875"
"1537791434394","503","-0.3388672","-0.7246094","0.3046875","4.6875","-36.375","-17.75"
"1537791434591","504","-0.97753906","0.49902344","-0.53027344","21.84375","-54.25","-62.78125"
"1537791434592","505","-1.9580078","1.9179688","-0.6796875","-30.9375","-81.28125","36.375"
"1537791434592","506","-0.89160156","0.5253906","-0.10253906","47.53125","-27.6875","19.28125"
"1537791434593","507","-1.7851562","0.25097656","-0.49121094","-123.28125","-76.84375","-34.21875"
"1537791434593","508","-0.8652344","-1.0019531","1.2636719","-35.9375","19.59375","34.0"
"1537791434594","509","-0.69433594","-0.32421875","0.76464844","-206.71875","-11.15625","-62.625"
"1537791434594","510","-1.3515625","0.5732422","0.31445312","-59.6875","-63.53125","-73.65625"
"1537791434595","511","-0.9824219","-0.10839844","0.26953125","-7.875","-42.21875","-95.5"
"1537791434596","512","-0.8828125","0.13769531","0.18847656","-106.8125","-31.1875","-77.625"
"1537791434790","513","-1.3574219","0.54296875","-0.018554688","-20.4375","37.125","-9.34375"
"1537791434791","514","-1.4335938","1.0136719","-0.09472656","-31.0","66.96875","48.84375"
"1537791434792","515","-0.93847656","0.3095703","-0.083984375","8.0625","125.0625","146.1875"
"1537791434792","516","-1.9931641","-0.6611328","0.5644531","91.5625","46.71875","153.5"
"1537791434793","517","-1.2988281","0.10839844","0.30859375","-13.78125","77.46875","156.5625"
"1537791434990","518","-1.2763672","-0.1484375","0.24414062","-0.78125","22.71875","161.15625"
"1537791434991","519","-0.9160156","-0.13183594","0.068359375","55.96875","23.21875","139.65625"
"1537791434991","520","-0.70703125","-0.07128906","0.09472656","96.8125","5.5","99.25"
"1537791434992","521","-0.52734375","-0.21289062","0.24804688","171.375","-0.59375","73.1875"
"1537791434992","522","-0.43945312","-0.64453125","0.3486328","152.78125","-11.09375","14.96875"
"1537791435188","523","-0.2578125","-0.6640625","0.3046875","26.3125","-29.21875","-20.75"
"1537791435188","524","-0.9345703","0.29785156","-0.40820312","2.3125","-48.9375","-62.90625"
"1537791435189","525","-1.9931641","2.0048828","-0.6699219","-18.625","-72.9375","48.84375"
"1537791435189","526","-1.1259766","0.5703125","-0.25","89.96875","-20.1875","17.78125"
"1537791435189","527","-1.7070312","-0.16113281","0.17675781","-98.09375","-100.8125","-27.15625"
"1537791435387","528","-1.0039062","-1.1347656","0.23339844","9.53125","4.59375","18.875"
"1537791435389","529","-0.59765625","-0.27929688","0.69921875","-187.5625","-33.5","-65.84375"
"1537791435389","530","-1.4101562","0.7841797","0.29492188","-79.28125","-63.09375","-71.65625"
"1537791435389","531","-1.0097656","-0.022460938","0.23046875","30.59375","-41.84375","-98.5"
"1537791435389","532","-0.7558594","-0.0546875","0.26953125","-10.8125","-55.09375","-99.21875"
"1537791435585","533","-0.9970703","-0.08691406","0.1484375","-65.5625","-43.875","-88.6875"
"1537791435585","534","-0.92089844","0.103515625","0.22167969","-95.53125","-33.3125","-77.6875"
"1537791435585","535","-0.9316406","0.107421875","0.060546875","-85.21875","-34.84375","-78.71875"
"1537791435587","536","-0.9550781","0.19042969","0.1875","-47.96875","-35.4375","-76.96875"
"1537791435587","537","-1.1162109","0.44335938","0.07519531","-39.5","-32.09375","-63.59375"
"1537791435785","538","-1.234375","0.41210938","0.076171875","-70.5625","9.28125","-42.09375"
"1537791435785","539","-1.3300781","0.6894531","-0.0087890625","-35.71875","44.875","-7.4375"
"1537791435785","540","-1.3115234","1.0175781","-0.06347656","-21.1875","64.84375","52.9375"
"1537791435787","541","-1.0576172","0.15234375","-0.030273438","20.5625","114.8125","145.5625"
"1537791435787","542","-1.9931641","-0.8857422","0.41015625","78.5625","54.59375","145.46875"
"1537791435983","543","-1.2783203","0.14941406","0.3857422","-39.0625","71.53125","152.15625"
"1537791435983","544","-1.2255859","-0.1484375","0.16210938","-17.15625","11.0625","153.8125"
"1537791435983","545","-0.99609375","-0.119140625","-0.13867188","67.375","28.15625","140.03125"
"1537791435985","546","-0.7421875","-0.13867188","0.12988281","101.5","14.59375","96.75"
"1537791436180","547","-0.51464844","-0.26367188","0.23730469","127.75","-0.21875","73.1875"
"1537791436182","548","-0.43554688","-0.5097656","0.28320312","118.53125","-18.65625","21.375"
"1537791436182","549","-0.35058594","-0.6777344","0.26464844","8.59375","-33.25","-22.4375"
"1537791436182","550","-1.0341797","0.9453125","-0.78222656","110.96875","-40.5","-81.65625"
"1537791436183","551","-1.6777344","1.4638672","-0.8496094","-1.59375","-47.34375","8.3125"
"1537791436183","552","-1.0488281","0.22851562","-0.12597656","61.65625","-15.0625","31.625"
"1537791436380","553","-1.6533203","0.2421875","-0.625","-259.9375","-88.1875","0.9375"
"1537791436381","554","-0.9277344","-0.36621094","1.0683594","-28.75","6.3125","0.875"
"1537791436381","555","-0.8564453","-0.35742188","0.3935547","-91.0625","-30.25","-76.84375"
"1537791436579","556","-1.1621094","0.20996094","0.28710938","-52.5625","-54.0625","-76.34375"
"1537791436579","557","-1.0224609","0.09863281","0.25976562","-43.53125","-34.96875","-94.78125"
"1537791436580","558","-0.8232422","0.060546875","0.28027344","-42.34375","-44.46875","-90.6875"
"1537791436580","559","-0.9482422","-0.051757812","0.1328125","-81.40625","-26.40625","-82.15625"
"1537791436580","560","-0.90234375","0.09277344","0.23339844","-93.3125","-24.71875","-74.46875"
"1537791436581","561","-0.8720703","0.14648438","0.12109375","-100.90625","-25.125","-75.3125"
"1537791436780","562","-1.0029297","0.09667969","0.265625","-34.78125","-37.65625","-80.0625"
"1537791436781","563","-1.1904297","0.2734375","0.033203125","-30.59375","-26.46875","-71.65625"
"1537791436781","564","-1.2275391","0.51953125","0.060546875","-72.15625","0.5","-51.0625"
"1537791436781","565","-1.2490234","0.6386719","0.030273438","-13.90625","33.09375","-26.125"
"1537791436781","566","-1.3583984","0.7841797","-0.061523438","-1.90625","64.15625","14.84375"
"1537791437176","567","-1.1259766","0.80371094","-0.3623047","-10.6875","144.125","93.40625"
"1537791437176","568","-1.2109375","0.061523438","0.7763672","51.40625","68.375","154.5625"
"1537791437176","569","-1.65625","-0.0048828125","0.53808594","98.09375","73.8125","121.34375"
"1537791437177","570","-1.4023438","-0.10546875","0.4765625","43.9375","16.4375","149.1875"
"1537791437177","571","-1.0800781","-0.12890625","0.13671875","83.8125","-1.5","144.53125"
"1537791437376","572","-0.90722656","0.009765625","0.25","110.84375","-22.5625","118.40625"
"1537791437376","573","-0.7265625","-0.08496094","0.30371094","175.84375","-23.4375","100.84375"
"1537791437377","574","-0.5917969","-0.43164062","0.22265625","230.28125","-12.375","62.8125"
"1537791437377","575","-0.44726562","-0.69921875","0.29492188","129.28125","-30.375","12.46875"
"1537791437377","576","-1.1259766","0.71972656","-0.6308594","60.71875","-44.53125","-56.4375"
"1537791437573","577","-1.7802734","2.0048828","-0.28710938","-17.15625","-91.125","53.21875"
"1537791437573","578","-0.74609375","0.42578125","-0.1328125","68.40625","-22.625","29.84375"
"1537791437573","579","-1.6855469","-0.2265625","0.025390625","-108.40625","-96.3125","-54.1875"
"1537791437575","580","-1.2285156","-0.75097656","0.41308594","34.5","-12.25","39.625"
"1537791437575","581","-0.5107422","-0.65625","0.6269531","-151.5","-21.65625","-51.75"
"1537791437577","582","-1.4345703","0.6582031","0.42773438","-91.0625","-69.375","-71.28125"
"1537791437577","583","-1.0556641","-0.203125","0.21777344","-9.15625","-47.15625","-85.75"
"1537791437577","584","-0.8183594","0.030273438","0.31640625","-55.25","-48.5625","-95.5625"
"1537791437577","585","-0.92578125","0.0048828125","0.17675781","-68.59375","-41.125","-88.375"
"1537791437773","586","-0.91796875","0.115234375","0.23632812","-86.65625","-32.8125","-81.21875"
"1537791437774","587","-0.9326172","0.09667969","0.049804688","-91.125","-31.90625","-79.75"
"1537791437774","588","-0.9892578","0.21484375","0.28125","-50.90625","-38.0625","-78.46875"
"1537791437774","589","-1.1337891","0.36816406","-0.0029296875","-46.9375","-31.53125","-68.21875"
"1537791437774","590","-1.1855469","0.5390625","0.19140625","-73.1875","11.625","-42.59375"
"1537791438171","591","-1.3417969","0.7050781","0.0","-28.0625","36.875","-2.375"
"1537791438171","592","-1.5351562","0.87109375","-0.2841797","0.90625","58.1875","71.1875"
"1537791438171","593","-1.0263672","-0.03125","0.0107421875","4.875","101.46875","154.5625"
"1537791438172","594","-1.9931641","-0.76171875","0.328125","24.28125","69.28125","142.46875"
"1537791438172","595","-1.2753906","0.06542969","0.21191406","-68.375","67.875","155.28125"
"1537791438173","596","-1.2275391","-0.29882812","0.0146484375","-16.34375","22.90625","163.28125"
"1537791438174","597","-0.96191406","-0.2919922","-0.15332031","29.53125","41.5625","141.5"
"1537791438174","598","-0.5878906","-0.024414062","0.1875","32.21875","4.21875","92.65625"
"1537791438174","599","-0.5029297","-0.09375","0.19824219","98.375","3.90625","62.6875"
"1537791438368","600","-0.33984375","-0.48632812","0.32910156","112.375","-13.34375","13.8125"
"1537791438370","601","-0.3564453","-0.42871094","0.24804688","16.71875","-30.03125","-31.71875"
"1537791438370","602","-1.2412109","1.28125","-1.0820312","221.5625","-50.53125","-82.375"
"1537791438370","603","-1.5869141","0.74902344","-1.0107422","38.34375","-26.90625","2.09375"
"1537791438370","604","-0.5859375","-0.24023438","0.2734375","-9.9375","-26.28125","36.625"
"1537791438370","605","-1.8662109","0.13769531","-1.109375","-156.5625","-66.625","-58.875"
"1537791438566","606","-0.89160156","-1.2070312","1.2558594","-154.65625","74.21875","46.03125"
"1537791438566","607","-0.40722656","-0.13964844","0.7441406","-159.90625","-12.1875","-74.15625"
"1537791438566","608","-1.4912109","0.2939453","0.2529297","-59.09375","-65.28125","-82.625"
"1537791438567","609","-0.9736328","0.036132812","0.14941406","-3.0625","-38.375","-95.3125"
"1537791438568","610","-0.86621094","-0.055664062","0.20605469","-24.46875","-48.6875","-97.34375"
"1537791438765","611","-0.93359375","-0.099609375","0.08496094","-61.15625","-34.03125","-82.3125"
"1537791438766","612","-0.94921875","0.1640625","0.18261719","-89.90625","-29.09375","-76.40625"
"1537791438767","613","-0.9453125","0.17773438","0.13671875","-79.46875","-26.90625","-70.3125"
"1537791438768","614","-1.0556641","0.20800781","0.1953125","-28.5625","-26.40625","-64.4375"
"1537791438768","615","-1.1591797","0.3310547","0.016601562","-64.9375","-17.9375","-55.15625"
"1537791438964","616","-1.1640625","0.6464844","0.17089844","-63.90625","23.5625","-36.25"
"1537791438964","617","-1.2460938","0.734375","-0.16210938","-15.0625","51.59375","9.03125"
"1537791438966","618","-1.3662109","1.0234375","-0.23046875","-6.96875","76.90625","69.59375"
"1537791438966","619","-1.0273438","0.26660156","0.21582031","34.0625","87.34375","158.8125"
"1537791438966","620","-1.9931641","-0.828125","0.095703125","79.34375","61.53125","140.15625"
"1537791439164","621","-1.2636719","-0.19140625","0.5488281","-92.90625","63.90625","163.21875"
"1537791439165","622","-1.2158203","0.19238281","-0.115234375","-30.09375","11.5625","154.375"
"1537791439165","623","-1.0039062","0.028320312","0.08105469","91.0","-6.625","141.5625"
"1537791439165","624","-0.78515625","-0.09082031","0.16503906","130.5625","-12.75","88.5625"
"1537791439165","625","-0.47460938","-0.22753906","0.20117188","176.03125","2.5","75.625"
"1537791439361","626","-0.5126953","-0.48046875","0.16894531","202.28125","-7.0625","13.0"
"1537791439362","627","-0.34960938","-0.44628906","0.17675781","74.875","-23.0","-26.78125"
"1537791439362","628","-0.7451172","0.024414062","-0.16601562","25.9375","-46.96875","-76.78125"
"1537791439363","629","-1.7607422","2.0048828","-1.7646484","182.0625","10.5","-91.25"
"1537791439363","630","-1.4121094","0.24023438","-0.3935547","94.96875","-24.78125","41.03125"
"1537791439562","631","-0.82421875","-0.7451172","0.27539062","-242.6875","-23.125","76.71875"
"1537791439562","632","-1.6425781","1.1738281","0.23925781","-41.4375","63.125","-44.59375"
"1537791439562","633","-0.62597656","-0.53515625","0.9765625","-67.5625","49.625","-49.125"
"1537791439562","634","-1.0322266","0.57910156","0.6347656","-4.6875","-59.3125","-64.8125"
"1537791439562","635","-1.0908203","0.0107421875","0.26464844","51.9375","-40.8125","-73.1875"
"1537791439759","636","-0.8535156","-0.040039062","0.17480469","60.0625","-49.96875","-98.6875"
"1537791439760","637","-0.93359375","-0.06542969","-0.001953125","38.21875","-74.5625","-115.53125"
"1537791439760","638","-0.96191406","0.2109375","-0.13476562","32.40625","-56.3125","-105.46875"
"1537791439761","639","-0.7783203","0.17382812","0.0234375","34.25","-48.625","-86.59375"
"1537791439958","640","-0.95410156","0.0029296875","0.09277344","41.125","-37.53125","-77.9375"
"1537791439959","641","-1.2246094","-0.19921875","0.22753906","-2.1875","-42.09375","-67.375"
"1537791439960","642","-1.0664062","0.56347656","0.15136719","-59.5625","-5.34375","-53.53125"
"1537791439961","643","-1.28125","0.55078125","0.19628906","21.84375","21.6875","-32.46875"
"1537791439961","644","-1.2626953","0.4892578","-0.13183594","74.875","52.625","-23.71875"
"1537791439961","645","-1.2783203","1.0136719","0.03515625","57.25","87.96875","31.0"
"1537791440156","646","-0.8808594","0.7705078","0.40820312","72.09375","114.03125","99.125"
"1537791440355","647","-1.4794922","-0.026367188","0.95703125","248.21875","16.0","130.0"
"1537791440753","648","-1.296875","0.11328125","0.98535156","196.71875","73.125","129.53125"
"1537791440753","649","-1.328125","-0.43652344","0.546875","110.21875","-4.25","144.125"
"1537791440753","650","-1.0849609","-0.2783203","0.2578125","67.625","-26.59375","123.53125"
"1537791440754","651","-0.87890625","0.068359375","0.37890625","111.6875","-53.875","107.375"
"1537791440755","652","-0.76464844","-0.17382812","0.18359375","224.78125","-54.1875","71.96875"
"1537791440755","653","-0.671875","-0.5410156","0.16992188","221.3125","-36.84375","32.90625"
"1537791440755","654","-0.59277344","-0.46679688","0.18652344","79.96875","-35.15625","12.40625"
"1537791440756","655","-0.9042969","-0.09863281","-0.25585938","36.875","-46.375","3.125"
"1537791440757","656","-1.0351562","0.8183594","-0.36914062","99.5","-49.0625","17.84375"
"1537791440951","657","-1.2216797","0.0029296875","0.48242188","-248.09375","-52.84375","-29.90625"
"1537791441351","658","-0.7597656","0.24707031","0.49121094","-174.3125","-14.21875","-21.53125"
"1537791441352","659","-1.0117188","0.21679688","0.37109375","-126.46875","-18.78125","-25.4375"
"1537791441352","660","-1.0117188","0.41992188","0.16015625","-104.1875","-22.25","-30.8125"
"1537791441352","661","-1.0673828","0.51464844","0.17382812","-70.875","-18.3125","-10.1875"
"1537791441352","662","-1.1044922","0.40722656","-0.24316406","-109.5","21.5","23.75"
"1537791441353","663","-1.3642578","0.19042969","-0.85058594","-126.03125","107.1875","67.03125"
"1537791441354","664","-1.2666016","-0.45117188","-0.359375","-169.96875","172.0","122.5625"
"1537791441354","665","-1.7138672","-0.7714844","0.8935547","-273.6875","124.15625","144.96875"
"1537791441355","666","-1.7675781","0.5185547","0.103515625","-224.3125","115.4375","144.46875"
"1537791441547","667","-0.48535156","0.38183594","0.052734375","51.625","20.21875","-34.0"
"1537791441547","668","-0.7705078","0.8535156","-0.92089844","52.25","-15.84375","-68.65625"
"1537791441549","669","-1.1201172","0.83203125","-1.1523438","53.71875","-10.71875","-37.90625"
"1537791441549","670","-1.7558594","-0.00390625","-0.37597656","31.0","-49.90625","27.21875"
"1537791441549","671","-0.55371094","-0.33203125","0.27441406","-198.5625","-20.0625","35.84375"
"1537791441947","672","-0.8339844","0.24902344","0.47460938","-79.90625","-63.84375","-48.8125"
"1537791441948","673","-1.1923828","0.16699219","0.2529297","-4.53125","-44.53125","-36.4375"
"1537791441949","674","-0.9091797","-0.18945312","0.22460938","-56.46875","-55.96875","-56.09375"
"1537791441949","675","-1.0947266","0.20214844","0.18847656","-80.75","-56.125","-80.625"
"1537791441949","676","-0.8642578","0.032226562","0.13378906","-51.5625","-52.21875","-92.71875"
"1537791441949","677","-0.95214844","0.2705078","0.203125","-70.8125","-43.625","-94.09375"
"1537791441950","678","-0.87109375","0.171875","0.21191406","-37.15625","-42.84375","-76.15625"
"1537791441950","679","-0.8574219","-0.01953125","0.2685547","-66.34375","-41.0625","-69.09375"
"1537791441950","680","-0.90722656","0.0029296875","0.234375","-102.65625","-43.0625","-74.5625"
"1537791442345","681","-1.296875","0.32421875","-0.15625","-32.84375","-34.96875","-58.03125"
"1537791442345","682","-1.2880859","0.3125","0.05859375","-54.3125","2.9375","-29.28125"
"1537791442345","683","-1.4414062","0.58203125","-0.14355469","-41.03125","42.5","7.34375"
"1537791442345","684","-1.3652344","0.89160156","9.765625E-4","-46.4375","89.3125","69.90625"
"1537791442348","685","-0.8847656","0.46777344","0.36328125","-14.09375","124.09375","146.5"
"1537791442348","686","-1.9931641","-0.56640625","0.54003906","102.65625","36.875","138.4375"
"1537791442348","687","-1.234375","0.07519531","0.32226562","38.875","68.3125","151.3125"
"1537791442348","688","-1.2851562","-0.18945312","0.33007812","39.125","22.78125","152.65625"
"1537791442348","689","-0.8808594","-0.15820312","0.13867188","36.625","20.875","131.125"
"1537791442543","690","-0.7158203","-0.06933594","0.11035156","88.4375","-2.78125","102.5"
"1537791442543","691","-0.67285156","-0.19042969","0.22949219","168.46875","-10.5","73.0625"
"1537791442740","692","-0.54589844","-0.609375","0.26953125","148.4375","-1.9375","18.8125"
"1537791442941","693","-0.3154297","-0.58691406","0.21386719","31.0625","-21.84375","-9.375"
"1537791442941","694","-0.78515625","0.16015625","-0.328125","-6.71875","-44.96875","-39.84375"
"1537791442941","695","-1.6054688","2.0048828","-0.6123047","88.8125","-35.4375","-1.34375"
"1537791442942","696","-1.2607422","0.5957031","-0.42578125","43.15625","-19.53125","28.21875"
"1537791442943","697","-1.3125","-0.5986328","0.48339844","-104.0625","-75.90625","-5.78125"
"1537791442944","698","-1.4023438","-0.23242188","-0.017578125","55.1875","4.59375","1.71875"
"1537791442944","699","-0.1640625","-0.7705078","0.7158203","-146.90625","-36.90625","-48.5625"
"1537791442944","700","-1.5556641","0.66308594","0.5205078","-138.0","-74.75","-80.0625"
"1537791442945","701","-1.0605469","0.045898438","0.23046875","0.71875","-41.0625","-94.15625"
"1537791443138","702","-0.9375","0.18164062","0.22460938","-30.9375","-41.5","-77.375"
"1537791443138","703","-1.2363281","0.08105469","0.08496094","-15.875","-27.28125","-74.75"
"1537791443138","704","-1.2021484","0.4892578","0.099609375","-58.40625","-16.90625","-61.6875"
"1537791443138","705","-1.1328125","0.7236328","0.140625","-44.3125","31.25","-28.5"
"1537791443139","706","-1.4609375","0.83496094","-0.056640625","-8.46875","59.65625","27.09375"
"1537791443336","707","-1.3095703","0.74316406","-0.24316406","52.25","82.15625","116.53125"
"1537791443338","708","-1.2353516","-0.15625","0.47753906","30.75","75.4375","166.5"
"1537791443338","709","-1.7119141","-0.3564453","0.39257812","10.4375","105.71875","141.625"
"1537791443339","710","-1.3525391","-0.037109375","0.29296875","-26.0625","38.09375","170.125"
"1537791443339","711","-1.1425781","-0.18164062","0.051757812","21.78125","22.15625","163.28125"
"1537791443535","712","-0.8857422","-0.083984375","0.0859375","86.125","13.25","115.125"
"1537791443535","713","-0.53222656","-0.18066406","0.17871094","129.15625","8.1875","97.25"
"1537791443535","714","-0.40625","-0.5419922","0.375","163.875","-0.34375","45.25"
"1537791443536","715","-0.2265625","-0.7246094","0.359375","74.875","-19.15625","-13.1875"
"1537791443537","716","-0.71191406","-0.17871094","-0.11816406","-9.21875","-36.90625","-49.3125"
"1537791443734","717","-1.7294922","2.0048828","-0.9873047","108.28125","-31.78125","-13.96875"
"1537791443735","718","-1.4130859","0.49023438","-0.51660156","80.5","-24.40625","19.25"
"1537791443735","719","-0.7207031","-0.93847656","0.7373047","-143.0","-68.78125","29.0"
"1537791443735","720","-1.9931641","1.4287109","-0.25976562","123.96875","14.84375","-48.4375"
"1537791443735","721","-0.24316406","-1.5371094","0.8408203","-36.75","-36.1875","-27.59375"
"1537791443932","722","-1.1259766","0.53125","0.73828125","-142.46875","-65.21875","-77.03125"
"1537791443933","723","-1.1640625","0.057617188","0.15625","-17.59375","-50.03125","-81.03125"
"1537791443933","724","-0.78808594","-0.005859375","0.28320312","-25.40625","-45.21875","-98.25"
"1537791443934","725","-0.8935547","-0.06933594","0.19042969","-59.9375","-55.09375","-91.46875"
"1537791443934","726","-0.9453125","0.09277344","0.20898438","-116.40625","-30.5625","-75.78125"
"1537791444132","727","-0.86035156","0.22265625","0.18554688","-102.125","-23.71875","-78.0625"
"1537791444132","728","-0.8964844","0.26660156","0.08105469","-51.09375","-31.78125","-78.40625"
"1537791444132","729","-1.0390625","0.19238281","0.28027344","-11.40625","-29.21875","-66.53125"
"1537791444133","730","-1.2373047","0.30566406","0.10644531","-51.4375","-30.8125","-62.4375"
"1537791444133","731","-1.1992188","0.47460938","0.09082031","-44.75","17.28125","-41.8125"
"1537791444332","732","-1.4335938","0.51953125","0.009765625","-20.9375","41.03125","-0.28125"
"1537791444333","733","-1.2548828","1.0478516","-0.20800781","-29.25","78.4375","62.25"
"1537791444333","734","-0.88964844","0.29101562","0.17480469","-10.5","126.46875","152.21875"
"1537791444333","735","-1.9931641","-0.68359375","0.54003906","109.25","37.0625","139.96875"
"1537791444334","736","-1.2939453","0.025390625","0.27539062","-12.9375","72.46875","160.46875"
"1537791444528","737","-1.2822266","-0.20019531","0.18847656","16.28125","22.21875","157.53125"
"1537791444529","738","-0.94921875","-0.17089844","0.057617188","59.75","26.75","126.65625"
"1537791444531","739","-0.6845703","-0.059570312","0.087890625","94.25","6.59375","93.15625"
"1537791444531","740","-0.50683594","-0.33984375","0.25878906","157.53125","4.15625","62.09375"
"1537791444531","741","-0.3935547","-0.6533203","0.3095703","112.90625","-6.28125","8.0625"
"1537791444728","742","-0.39160156","-0.640625","0.28808594","-13.0625","-37.59375","-18.375"
"1537791444728","743","-1.0087891","1.1035156","-0.6376953","55.25","-32.65625","-55.84375"
"1537791444729","744","-1.8466797","1.6367188","-0.6826172","-0.125","-71.09375","20.46875"
"1537791444730","745","-1.0205078","0.3408203","-0.1015625","62.4375","-21.21875","18.8125"
"1537791444730","746","-1.9931641","0.053710938","-0.73339844","-59.8125","-78.1875","-38.6875"
"1537791445326","747","-0.60839844","-1.2050781","0.95703125","-69.8125","11.5","35.78125"
"1537791445327","748","-0.6142578","0.00390625","0.7207031","-202.34375","-35.15625","-63.59375"
"1537791445327","749","-1.4326172","0.55566406","0.19335938","-47.71875","-63.15625","-67.875"
"1537791445327","750","-0.97753906","-0.10449219","0.24414062","15.4375","-42.65625","-94.96875"
"1537791445327","751","-0.79589844","-0.15234375","0.2841797","-29.1875","-56.3125","-94.53125"
"1537791445327","752","-0.98046875","-0.03125","0.20898438","-80.375","-40.625","-77.625"
"1537791445327","753","-0.8964844","0.064453125","0.26171875","-102.90625","-35.3125","-72.5625"
"1537791445328","754","-0.9404297","0.17871094","0.08300781","-90.75","-36.0625","-77.25"
"1537791445328","755","-0.9560547","0.23632812","0.2607422","-34.3125","-39.71875","-69.5625"
"1537791445525","756","-1.1376953","0.16992188","0.109375","-34.59375","-27.6875","-58.78125"
"1537791445526","757","-1.9365234","-0.21484375","0.13964844","-4.46875","78.375","127.8125"
"1537791445527","758","-1.2724609","0.049804688","0.35253906","-26.90625","36.625","155.46875"
"1537791445527","759","-1.1308594","-0.24414062","0.08105469","13.25","19.71875","150.8125"
"1537791445527","760","-0.75683594","-0.018554688","-0.043945312","65.5625","14.96875","115.625"
"1537791445527","761","-0.6015625","-0.099609375","0.11816406","91.90625","0.75","91.0625"
"1537791445722","762","-0.5917969","-0.32226562","0.18261719","138.84375","6.65625","48.28125"
"1537791445723","763","-0.421875","-0.6113281","0.171875","64.8125","11.0625","2.28125"
"1537791445723","764","-0.62597656","-0.12792969","-0.10839844","16.78125","1.46875","-36.5"
"1537791445723","765","-1.1210938","1.0585938","-0.75390625","84.34375","-22.09375","-60.71875"
"1537791445723","766","-1.5058594","0.8798828","-0.65234375","-31.8125","-40.625","-1.15625"
"1537791445922","767","-0.890625","0.01953125","0.12695312","-50.0625","-26.78125","27.71875"
"1537791445922","768","-1.9931641","0.63183594","-1.7646484","-157.46875","-14.625","-32.40625"
"1537791446119","769","-0.546875","-1.2294922","0.88671875","-76.46875","11.3125","35.65625"
"1537791446119","770","-0.72558594","-0.08691406","0.7597656","-204.46875","-14.5","-62.5"
"1537791446120","771","-1.3447266","0.2578125","0.16015625","-62.375","-61.875","-67.0625"
"1537791446120","772","-0.9921875","-0.0546875","0.2578125","-56.75","-33.8125","-87.21875"
"1537791446121","773","-0.7763672","0.103515625","0.375","-105.96875","-38.875","-86.40625"
"1537791446122","774","-0.91796875","0.13574219","0.2578125","-126.15625","-27.09375","-68.09375"
"1537791446122","775","-0.9013672","0.22070312","0.2607422","-110.28125","-23.59375","-67.3125"
"1537791446123","776","-0.9609375","0.22851562","-0.021484375","-81.0625","-28.6875","-73.65625"
"1537791446517","777","-0.96777344","0.16796875","0.29589844","-44.4375","-29.71875","-63.15625"
"1537791446517","778","-1.1259766","0.14648438","0.15136719","-57.9375","-24.03125","-60.40625"
"1537791446517","779","-1.2597656","0.4951172","0.19726562","-70.6875","10.09375","-51.0625"
"1537791446518","780","-1.2832031","0.4716797","0.00390625","-35.65625","29.1875","-9.6875"
"1537791446520","781","-1.3798828","1.0380859","-0.16210938","-36.125","60.3125","32.53125"
"1537791446521","782","-1.0458984","0.52441406","-0.109375","-18.0","137.34375","123.96875"
"1537791446521","783","-1.6630859","-0.39941406","0.7089844","48.28125","56.84375","152.15625"
"1537791446521","784","-1.40625","0.109375","0.24316406","3.28125","93.46875","144.34375"
"1537791446521","785","-1.40625","-0.14648438","0.2548828","9.28125","32.59375","149.4375"
"1537791446715","786","-1.0078125","-0.1796875","-0.0048828125","54.25","40.40625","138.25"
"1537791446716","787","-0.77246094","-0.08203125","0.12597656","88.25","25.9375","99.75"
"1537791446716","788","-0.5839844","-0.1875","0.22363281","141.65625","13.3125","76.0"
"1537791446716","789","-0.47753906","-0.5732422","0.28710938","155.6875","9.0","22.59375"
"1537791446717","790","-0.30078125","-0.51660156","0.3017578","48.59375","-10.84375","-16.96875"
"1537791446915","791","-0.7480469","0.095703125","-0.19238281","-15.75","-35.3125","-59.0625"
"1537791447112","792","-1.6103516","2.0048828","-1.2070312","158.625","-7.8125","-34.65625"
"1537791447314","793","-1.3662109","0.28710938","-0.2841797","62.9375","-32.40625","36.625"
"1537791447314","794","-0.30664062","-0.8066406","0.8408203","-123.34375","-78.90625","43.03125"
"1537791447314","795","-1.9931641","1.2216797","-1.6347656","150.875","-18.90625","-115.15625"
"1537791447315","796","-0.26660156","-1.53125","1.3017578","-61.84375","21.875","-2.875"
"1537791447315","797","-0.6376953","0.45410156","0.8857422","-164.375","-33.96875","-71.78125"
"1537791447315","798","-1.4414062","0.13964844","0.1328125","-34.125","-48.9375","-85.125"
"1537791447315","799","-0.79589844","0.0234375","0.24707031","6.71875","-37.21875","-100.28125"
"1537791447315","800","-0.8613281","-0.060546875","0.1953125","3.96875","-55.71875","-106.875"
"1537791447316","801","-0.8857422","-0.03125","0.14453125","-44.75","-46.0","-88.1875"
"1537791447510","802","-1.1767578","0.58203125","0.1015625","-33.9375","24.5","-36.90625"
"1537791447510","803","-1.3544922","0.7392578","-0.091796875","-3.1875","62.5625","11.96875"
"1537791447510","804","-1.4599609","0.86035156","-0.22753906","15.875","96.09375","91.1875"
"1537791447513","805","-0.99316406","0.265625","0.73046875","24.90625","89.625","160.28125"
"1537791447709","806","-1.9931641","-0.34375","0.390625","79.15625","67.03125","129.59375"
"1537791447711","807","-1.3769531","-0.0126953125","0.36816406","30.9375","38.09375","163.65625"
"1537791447712","808","-1.2402344","-0.25683594","0.123046875","41.5625","20.21875","154.0625"
"1537791447712","809","-0.8886719","-0.109375","0.072265625","89.84375","19.25","118.34375"
"1537791447712","810","-0.63183594","-0.12597656","0.19042969","120.65625","1.84375","95.71875"
"1537791447712","811","-0.52246094","-0.45703125","0.32226562","168.75","-2.4375","58.96875"
"1537791447908","812","-0.38378906","-0.67871094","0.359375","108.59375","-18.59375","0.0"
"1537791447909","813","-0.44433594","-0.7011719","0.18164062","-21.3125","-36.71875","-27.9375"
"1537791447909","814","-1.2851562","1.2041016","-1.2373047","204.40625","-45.09375","-83.0"
"1537791447909","815","-1.7822266","1.1953125","-0.75683594","-11.34375","-72.3125","38.875"
"1537791447909","816","-0.80859375","0.001953125","0.12988281","28.0","-18.90625","40.0"
"1537791448106","817","-1.9931641","0.3330078","-1.7646484","-113.84375","-26.59375","-25.5"
"1537791448107","818","-0.42382812","-1.3144531","1.4912109","-59.15625","24.0","15.09375"
"1537791448107","819","-0.7832031","0.064453125","0.74902344","-195.375","-32.40625","-69.375"
"1537791448108","820","-1.3447266","0.29589844","0.140625","-25.5","-59.9375","-74.03125"
"1537791448108","821","-0.94921875","-0.06738281","0.23339844","3.59375","-40.8125","-98.5625"
"1537791448309","822","-0.828125","-0.07324219","0.22558594","-17.875","-55.71875","-95.15625"
"1537791448309","823","-0.93359375","-0.0126953125","0.10839844","-76.34375","-36.0","-80.4375"
"1537791448309","824","-0.8574219","0.15820312","0.21972656","-94.84375","-36.3125","-78.3125"
"1537791448309","825","-0.92871094","0.22265625","0.022460938","-74.84375","-33.3125","-79.53125"
"1537791448309","826","-1.0273438","0.22070312","0.22949219","1.53125","-40.28125","-73.90625"
"1537791448506","827","-1.1621094","0.14257812","0.08984375","-21.59375","-32.8125","-64.75"
"1537791448506","828","-1.3154297","0.40722656","0.03515625","-54.375","-0.0625","-51.875"
"1537791448506","829","-1.2333984","0.5654297","0.119140625","-15.75","35.09375","-23.90625"
"1537791448507","830","-1.3652344","0.8779297","0.0390625","-0.5","64.15625","24.96875"
"1537791448507","831","-1.2685547","0.84375","-0.42382812","51.9375","110.0625","113.96875"
"1537791448702","832","-1.1757812","-0.123046875","0.81347656","44.1875","61.53125","156.75"
"1537791448702","833","-1.6953125","-0.043945312","0.35839844","47.90625","84.375","131.59375"
"1537791448704","834","-1.3798828","-0.060546875","0.390625","13.90625","26.5","158.40625"
"1537791448704","835","-1.1113281","-0.16699219","0.12890625","49.375","19.78125","149.96875"
"1537791448704","836","-0.8613281","-0.030273438","0.09082031","104.96875","5.1875","110.25"
"1537791448903","837","-0.61621094","-0.103515625","0.16503906","179.5","1.59375","89.0"
"1537791448904","838","-0.5800781","-0.50683594","0.25976562","183.28125","-5.96875","36.1875"
"1537791448904","839","-0.3388672","-0.6269531","0.17675781","68.90625","-9.09375","-5.25"
"1537791448904","840","-0.5498047","-0.38085938","0.0625","-70.5","-37.78125","-25.8125"
"1537791448904","841","-1.3222656","1.4189453","-1.0097656","133.65625","-27.09375","-60.125"
"1537791449100","842","-1.5302734","1.0703125","-0.546875","13.5","-43.9375","22.40625"
"1537791449100","843","-0.63671875","-0.0029296875","0.21972656","36.3125","-25.0625","22.34375"
"1537791449100","844","-1.9765625","0.05859375","-1.0898438","-136.53125","-71.9375","-63.15625"
"1537791449101","845","-1.1064453","-0.93066406","0.68652344","-141.1875","16.90625","65.75"
"1537791449102","846","-0.22070312","-0.17089844","0.7548828","-171.875","-1.34375","-67.3125"
"1537791449301","847","-1.8798828","0.55371094","0.28027344","-61.21875","-94.15625","-69.375"
"1537791449302","848","-0.9814453","-0.04296875","0.21972656","4.75","-39.28125","-88.625"
"1537791449302","849","-0.8017578","-0.12988281","0.2861328","-28.375","-49.96875","-92.8125"
"1537791449302","850","-0.9169922","-0.05078125","0.16015625","-70.6875","-39.59375","-78.125"
"1537791449497","851","-0.9326172","0.0703125","0.19921875","-97.15625","-33.9375","-73.53125"
"1537791449498","852","-0.8779297","0.15136719","0.06347656","-91.96875","-30.9375","-78.375"
"1537791449499","853","-0.99121094","0.23730469","0.18652344","-27.78125","-39.84375","-75.125"
"1537791449500","854","-1.1074219","0.21289062","0.18652344","-22.40625","-30.75","-64.75"
"1537791449500","855","-1.3417969","0.27148438","-0.001953125","-44.25","-11.03125","-52.46875"
"1537791449500","856","-1.1757812","0.4921875","0.1328125","-39.1875","31.1875","-21.53125"
"1537791449696","857","-1.3691406","0.80566406","0.034179688","-19.78125","55.25","16.0"
"1537791449697","858","-1.4072266","0.91503906","-0.43554688","58.09375","83.875","90.21875"
"1537791449697","859","-0.9296875","0.06542969","0.6435547","4.03125","94.6875","148.9375"
"1537791449698","860","-1.9931641","-0.23632812","0.31445312","65.3125","61.34375","126.90625"
"1537791449698","861","-1.3007812","0.018554688","0.36035156","18.5625","44.1875","152.90625"
"1537791449895","862","-1.203125","-0.24414062","0.18261719","27.03125","21.8125","146.0"
"1537791449897","863","-0.88378906","-0.015625","0.0234375","65.375","18.625","109.09375"
"1537791449897","864","-0.6699219","-0.068359375","0.04296875","133.125","14.0","83.6875"
"1537791449898","865","-0.53027344","-0.38378906","0.2607422","170.34375","5.03125","46.46875"
"1537791449898","866","-0.37402344","-0.5234375","0.26953125","101.25","-4.6875","-5.125"
"1537791450093","867","-0.51660156","-0.5029297","0.1953125","-4.34375","-33.1875","-30.25"
"1537791450094","868","-1.2041016","1.0195312","-0.8671875","86.59375","-41.0625","-73.0625"
"1537791450095","869","-1.6669922","1.4736328","-0.67285156","26.4375","-41.6875","30.46875"
"1537791450295","870","-0.89941406","0.060546875","-0.07714844","31.1875","-14.625","39.875"
"1537791450295","871","-1.6845703","0.07421875","-0.47460938","-158.875","-80.96875","-20.0625"
"1537791450295","872","-1.0771484","-0.63378906","0.7001953","-21.65625","20.15625","13.5625"
"1537791450295","873","-0.45214844","-0.13183594","0.5673828","-121.03125","-27.625","-61.15625"
"1537791450296","874","-1.4570312","0.40039062","0.28320312","-46.3125","-71.65625","-69.15625"
"1537791450297","875","-1.0625","0.08203125","0.21582031","1.90625","-38.3125","-94.84375"
"1537791450297","876","-0.796875","-0.07128906","0.25976562","12.21875","-57.0","-98.8125"
"1537791450494","877","-0.9951172","-0.13378906","0.052734375","-37.34375","-46.4375","-92.65625"
"1537791450494","878","-0.83496094","0.1953125","0.18945312","-80.375","-34.59375","-79.28125"
"1537791450494","879","-0.8779297","0.22265625","0.12695312","-62.25","-27.5","-77.25"
"1537791450494","880","-0.9921875","0.20214844","0.09765625","-3.59375","-40.34375","-76.34375"
"1537791450494","881","-1.0683594","0.025390625","0.203125","-7.1875","-27.15625","-64.4375"
"1537791450690","882","-1.2451172","0.25683594","-0.005859375","-52.90625","-22.3125","-52.53125"
"1537791450692","883","-1.1464844","0.41992188","0.06347656","-39.0625","30.53125","-36.6875"
"1537791450693","884","-1.3984375","0.6123047","0.13867188","3.78125","46.40625","-4.875"
"1537791450693","885","-1.5439453","1.0244141","-0.25878906","72.375","51.71875","58.0625"
"1537791450693","886","-0.91015625","0.19628906","0.37597656","35.65625","110.3125","132.6875"
"1537791450889","887","-1.96875","-0.48535156","0.51171875","60.59375","51.40625","137.8125"
"1537791450890","888","-1.2822266","0.15625","0.28027344","34.84375","59.28125","152.46875"
"1537791450891","889","-1.3066406","-0.18652344","0.30371094","39.71875","16.6875","147.15625"
"1537791450892","890","-0.9111328","-0.13085938","0.18457031","67.03125","13.4375","125.5"
"1537791450892","891","-0.7441406","-0.06347656","0.12890625","111.4375","-10.0625","96.5"
"1537791451088","892","-0.63183594","-0.2109375","0.234375","185.84375","-10.4375","67.09375"
"1537791451088","893","-0.5761719","-0.5839844","0.26757812","153.75","-16.71875","16.375"
"1537791451088","894","-0.43554688","-0.59375","0.22070312","28.4375","-28.625","-9.8125"
"1537791451088","895","-0.7753906","-0.044921875","-0.21777344","-49.0625","-41.90625","-40.03125"
"1537791451089","896","-1.6044922","2.0048828","-0.7421875","127.75","-6.6875","-5.3125"
"1537791451485","897","-1.2109375","0.6542969","-0.4248047","19.96875","-15.96875","39.5"
"1537791451683","898","-0.38867188","-0.43066406","0.87109375","-44.125","-60.90625","20.34375"
"1537791451884","899","-1.9931641","0.7734375","-1.6982422","131.46875","23.09375","-88.75"
"1537791451885","900","-0.29003906","-1.7089844","1.3623047","-54.8125","20.15625","8.5"
"1537791451886","901","-0.74316406","0.22851562","0.71777344","-192.6875","-33.875","-65.84375"
"1537791451887","902","-1.3789062","0.30859375","0.09082031","-22.34375","-58.875","-70.125"
"1537791451887","903","-0.8857422","-0.045898438","0.20605469","-3.96875","-41.625","-84.78125"
"1537791451887","904","-0.8300781","-0.0234375","0.21875","-44.5","-52.1875","-87.8125"
"1537791451887","905","-0.92578125","-0.017578125","0.095703125","-72.625","-41.25","-73.21875"
"1537791451887","906","-0.9296875","0.16796875","0.22070312","-89.125","-28.375","-71.09375"
"1537791451888","907","-1.1806641","0.74609375","0.22265625","-6.53125","18.09375","-10.375"
"1537791452082","908","-1.2236328","-0.23632812","0.17480469","-30.59375","18.625","159.25"
"1537791452083","909","-1.0712891","-0.38183594","0.041015625","-1.59375","33.34375","134.46875"
"1537791452083","910","-0.6357422","-0.01171875","-0.06542969","10.9375","11.84375","94.0"
"1537791452083","911","-0.51171875","-0.072265625","0.140625","67.3125","10.625","69.53125"
"1537791452084","912","-0.44433594","-0.4345703","0.2734375","77.15625","-0.96875","17.40625"
"1537791452280","913","-0.39746094","-0.4189453","0.21386719","-26.6875","-12.125","-8.53125"
"1537791452280","914","-0.921875","0.5078125","-0.17382812","29.125","-28.0625","-52.3125"
"1537791452280","915","-1.4130859","1.3798828","-0.48632812","-75.5625","-47.09375","-15.3125"
"1537791452281","916","-1.2724609","0.67871094","-0.43066406","32.96875","-25.375","11.1875"
"1537791452282","917","-0.6904297","-0.17675781","0.36132812","-50.28125","-30.5","17.53125"
"1537791452480","918","-1.9931641","1.0712891","-1.7529297","14.53125","-28.96875","-58.09375"
"1537791452481","919","-0.3544922","-1.7705078","1.2529297","17.21875","43.96875","38.53125"
"1537791452481","920","-0.84472656","-0.21484375","0.6982422","-159.125","-8.21875","0.125"
"1537791452481","921","-1.2802734","0.12207031","0.32421875","-124.9375","-30.75","-23.5625"
"1537791452481","922","-0.9716797","0.08984375","0.36132812","-94.65625","-18.40625","-32.59375"
"1537791452677","923","-0.8544922","0.015625","0.34375","-128.59375","-13.15625","-24.34375"
"1537791452677","924","-0.8300781","0.18164062","0.41796875","-161.75","-3.40625","-21.0"
"1537791452678","925","-0.9267578","0.32421875","0.41796875","-161.1875","-1.8125","-6.34375"
"1537791452878","926","-0.921875","0.203125","0.20703125","-117.1875","-1.21875","-17.5625"
"1537791452879","927","-0.9238281","0.12207031","0.111328125","-114.0625","-2.84375","-14.8125"
"1537791452879","928","-1.0048828","0.66015625","0.265625","-142.625","0.375","-14.34375"
"1537791452879","929","-0.9892578","0.40234375","0.099609375","-108.15625","21.0","21.8125"
"1537791452879","930","-1.2773438","0.359375","-0.1171875","-132.25","60.4375","39.0625"
"1537791452880","931","-1.4755859","-0.05859375","-0.5917969","-145.75","115.84375","107.0625"
"1537791452880","932","-1.2519531","-1.1298828","0.43945312","-205.4375","128.1875","123.46875"
"1537791453077","933","-1.6865234","-0.13378906","0.21289062","-240.0","103.84375","94.6875"
"1537791453274","934","-1.296875","-0.25097656","0.17578125","-164.25","93.40625","100.09375"
"1537791453274","935","-1.1035156","-0.10449219","0.12890625","-131.59375","94.125","70.9375"
"1537791453274","936","-0.78222656","0.033203125","0.15625","-114.0","81.5","52.3125"
"1537791453276","937","-0.546875","-0.0048828125","0.16796875","-76.59375","61.78125","39.3125"
"1537791453276","938","-0.4873047","0.12597656","0.22460938","-62.625","36.625","26.4375"
"1537791453276","939","-0.55566406","0.36328125","0.24804688","-71.71875","31.4375","16.4375"
"1537791453278","940","-0.7451172","0.828125","-0.034179688","-67.0625","2.46875","14.78125"
"1537791453278","941","-0.98828125","0.7832031","-0.59277344","-26.5625","1.1875","9.40625"
"1537791453278","942","-1.0146484","0.6953125","-0.61621094","-20.375","24.125","13.1875"
"1537791453475","943","-1.0263672","0.34375","-0.29101562","20.875","8.4375","9.96875"
"1537791453475","944","-1.3134766","0.14746094","-0.22070312","-71.90625","-23.0625","12.21875"
"1537791453475","945","-1.0371094","0.0146484375","0.08886719","-108.65625","-27.15625","-22.5"
"1537791453475","946","-0.6123047","-0.4482422","0.47851562","-7.25","-51.9375","-38.0625"
"1537791453475","947","-1.4160156","0.296875","0.29003906","-138.125","-25.5625","2.375"
"1537791453672","948","-0.9033203","-0.12597656","0.26171875","-125.25","-11.71875","7.46875"
"1537791453672","949","-0.8964844","0.24609375","0.4814453","-165.09375","-8.71875","-19.28125"
"1537791453672","950","-0.93652344","0.4267578","0.2998047","-146.25","-14.8125","-25.75"
"1537791453673","951","-0.8808594","0.31347656","0.2685547","-129.5625","-11.71875","-21.09375"
"1537791453674","952","-0.8076172","0.29296875","0.35253906","-130.8125","-2.5625","-22.875"
"1537791453873","953","-1.0273438","0.25195312","0.27441406","-113.71875","-11.59375","-19.875"
"1537791453873","954","-1.0048828","0.072265625","0.2734375","-110.0","-13.96875","-29.21875"
"1537791453873","955","-0.9580078","0.26367188","0.24414062","-80.8125","-12.0625","-50.90625"
"1537791453873","956","-0.9238281","0.3359375","0.27441406","-47.3125","-19.6875","-49.375"
"1537791453873","957","-1.0507812","0.14453125","0.12402344","-77.46875","-31.53125","-16.65625"
"1537791454069","958","-1.2285156","0.2578125","-0.046875","-128.34375","5.5","-5.125"
"1537791454070","959","-1.2382812","0.72753906","0.12597656","-123.78125","32.3125","9.71875"
"1537791454070","960","-1.4658203","0.71972656","-0.42773438","-41.25","64.40625","64.40625"
"1537791454071","961","-1.1582031","-0.037109375","-0.2685547","-12.34375","131.46875","112.1875"
"1537791454071","962","-1.4970703","-0.65722656","0.578125","-102.78125","97.96875","131.84375"
"1537791454267","963","-1.3544922","0.18066406","0.02734375","-123.0625","90.84375","132.6875"
"1537791454268","964","-1.2080078","0.08984375","0.25195312","-32.09375","60.25","128.84375"
"1537791454268","965","-0.9013672","-0.17773438","0.10839844","-17.875","62.9375","106.03125"
"1537791454269","966","-0.58496094","0.11035156","-0.021484375","15.625","53.53125","79.40625"
"1537791454269","967","-0.53222656","0.15820312","0.20507812","99.4375","38.53125","53.28125"
"1537791454467","968","-0.55566406","-0.25585938","0.25683594","109.5","28.34375","13.5"
"1537791454467","969","-0.4375","-0.11035156","0.12011719","69.03125","10.375","-0.65625"
"1537791454467","970","-0.5878906","0.46484375","-0.060546875","13.65625","-37.21875","-22.8125"
"1537791454468","971","-1.5859375","1.2314453","-1.3564453","7.09375","-16.15625","-41.25"
"1537791454469","972","-1.4179688","0.67285156","-0.3984375","84.90625","-13.78125","4.90625"
"1537791454665","973","-0.6982422","-0.38476562","0.34179688","-24.46875","-36.96875","25.28125"
"1537791454665","974","-1.4716797","0.2705078","-1.0449219","-58.21875","-2.0","-50.09375"
"1537791454666","975","-0.56347656","-0.7128906","0.9423828","-131.65625","-14.03125","-20.0"
"1537791454666","976","-1.0566406","0.390625","0.45214844","-119.15625","-49.25","-57.65625"
"1537791454667","977","-1.0585938","-0.10253906","0.2685547","-18.4375","-53.625","-66.75"
"1537791454866","978","-0.88378906","0.0859375","0.2109375","-34.0625","-41.25","-92.8125"
"1537791454866","979","-0.88378906","-0.0087890625","0.2685547","-34.1875","-53.5625","-97.15625"
"1537791454867","980","-0.9111328","0.01953125","0.16601562","-64.875","-43.4375","-79.34375"
"1537791454867","981","-0.8876953","0.18554688","0.25","-61.34375","-36.59375","-80.0"
"1537791454867","982","-0.9580078","0.13769531","0.0078125","-60.5625","-43.8125","-77.1875"
"1537791455062","983","-0.97753906","0.13964844","0.15722656","-21.84375","-36.59375","-67.75"
"1537791455063","984","-1.0761719","0.083984375","0.22753906","-64.46875","-21.96875","-49.25"
"1537791455064","985","-1.2568359","0.42578125","0.099609375","-87.40625","4.46875","-38.375"
"1537791455065","986","-1.2412109","0.625","0.053710938","-30.28125","35.71875","-16.09375"
"1537791455065","987","-1.3935547","0.8720703","-0.04296875","-11.65625","58.78125","30.03125"
"1537791455261","988","-1.140625","0.67285156","-0.20996094","-2.875","124.53125","127.28125"
"1537791455261","989","-1.5078125","-0.5205078","0.67089844","61.46875","63.78125","160.46875"
"1537791455262","990","-1.4238281","0.07324219","0.4248047","-13.96875","94.4375","139.0625"
"1537791455462","991","-1.2792969","-0.020507812","0.30859375","-0.90625","22.21875","157.0"
"1537791455463","992","-1.046875","-0.16503906","0.01953125","66.53125","16.375","148.75"
"1537791455463","993","-0.7675781","-0.10644531","0.036132812","104.25","19.46875","113.03125"
"1537791455463","994","-0.5703125","-0.16113281","0.18554688","128.25","3.3125","82.53125"
"1537791455463","995","-0.49121094","-0.5546875","0.27148438","129.46875","0.875","39.5625"
"1537791455659","996","-0.38183594","-0.6376953","0.1796875","50.15625","-15.3125","-10.375"
"1537791455659","997","-0.65234375","-0.12988281","0.001953125","-22.21875","-35.09375","-40.46875"
"1537791455660","998","-1.4785156","1.5673828","-1.0507812","114.125","-24.84375","-51.5"
"1537791455660","999","-1.4414062","0.828125","-0.63183594","53.71875","-25.5625","22.65625"
"1537791455661","1000","-0.47851562","-0.4736328","0.51171875","-29.59375","-32.65625","33.21875"
"1537791455662","1001","-1.7753906","0.3388672","-1.6103516","-30.875","3.0625","-83.1875"
"1537791455662","1002","-0.8564453","-1.3359375","1.0","-165.53125","54.59375","41.15625"
"1537791455858","1003","-0.38964844","-0.005859375","0.7578125","-166.25","-22.6875","-71.15625"
"1537791455859","1004","-1.6220703","0.17480469","0.13574219","-43.59375","-76.09375","-80.6875"
"1537791455860","1005","-0.9550781","-0.04296875","0.17675781","-25.21875","-39.15625","-91.71875"
"1537791455861","1006","-0.7988281","0.0146484375","0.2939453","-67.8125","-44.25","-91.25"
"1537791455861","1007","-0.91796875","0.05078125","0.16894531","-103.03125","-33.625","-72.125"
"1537791456058","1008","-0.8779297","0.17578125","0.29589844","-100.15625","-22.875","-69.375"
"1537791456255","1009","-0.88378906","0.17480469","0.036132812","-94.375","-30.625","-76.71875"
"1537791456456","1010","-1.0595703","0.15917969","0.29296875","-3.25","-38.5625","-76.84375"
"1537791456456","1011","-1.1826172","0.13769531","0.12011719","-24.21875","-32.28125","-71.21875"
"1537791456457","1012","-1.296875","0.48242188","0.030273438","-55.34375","-7.4375","-55.28125"
"1537791456458","1013","-1.1835938","0.5908203","-9.765625E-4","-27.78125","38.40625","-18.0625"
"1537791456458","1014","-1.4335938","0.8828125","0.0126953125","-30.46875","73.4375","36.8125"
"1537791456458","1015","-1.1689453","0.72265625","-0.24511719","34.65625","129.84375","131.96875"
"1537791456458","1016","-1.5273438","-0.4453125","0.7109375","52.5625","49.6875","159.0"
"1537791456458","1017","-1.4238281","9.765625E-4","0.34765625","-5.75","95.78125","146.25"
"1537791456459","1018","-1.3525391","-0.07128906","0.27539062","-12.375","32.96875","161.4375"
"1537791456653","1019","-0.2626953","-0.57128906","0.3154297","33.9375","-22.15625","-15.375"
"1537791456654","1020","-0.7392578","0.11621094","-0.3154297","-9.71875","-42.65625","-51.3125"
"1537791456654","1021","-1.7529297","2.0048828","-0.57128906","106.25","-47.65625","-14.09375"
"1537791456654","1022","-1.1982422","0.5957031","-0.43164062","96.0","-7.5625","21.75"
"1537791456654","1023","-0.2783203","-0.76660156","1.2773438","-71.78125","-96.90625","25.40625"
"1537791456852","1024","-1.9931641","1.1923828","-1.7646484","278.5","0.375","-147.28125"
"1537791456852","1025","-0.10253906","-1.9921875","1.5595703","-52.4375","49.4375","4.90625"
"1537791457051","1026","-0.56152344","0.36523438","0.98046875","-201.59375","-25.25","-76.53125"
"1537791457052","1027","-1.578125","0.15527344","0.041015625","-19.15625","-62.84375","-85.625"
"1537791457052","1028","-0.8955078","-0.14550781","0.19824219","-3.28125","-39.59375","-92.9375"
"1537791457052","1029","-0.8857422","-0.07519531","0.27246094","-59.15625","-43.5625","-92.8125"
"1537791457054","1030","-0.8339844","0.033203125","0.23339844","-100.53125","-34.21875","-80.3125"
"1537791457054","1031","-0.90625","0.08300781","0.27734375","-96.6875","-33.5","-82.75"
"1537791457054","1032","-0.87109375","0.18359375","0.1015625","-69.40625","-36.25","-84.34375"
"1537791457055","1033","-1.2333984","0.15039062","0.19335938","-19.59375","-39.46875","-79.65625"
"1537791457249","1034","-1.1982422","0.54296875","-0.123046875","-45.78125","-18.84375","-67.8125"
"1537791457249","1035","-1.1230469","0.5917969","0.06347656","-51.15625","30.03125","-29.59375"
"1537791457250","1036","-1.4980469","0.7763672","-0.017578125","-20.3125","61.90625","21.4375"
"1537791457250","1037","-1.5703125","0.8642578","-0.28320312","61.09375","86.6875","105.21875"
"1537791457450","1038","-1.0566406","0.03125","0.61035156","9.40625","94.3125","165.65625"
"1537791457647","1039","-1.9931641","-0.4189453","0.36328125","66.03125","76.375","138.25"
"1537791457647","1040","-1.3251953","-0.0107421875","0.30078125","1.90625","46.65625","167.96875"
"1537791457647","1041","-1.2089844","-0.28027344","0.20117188","8.125","30.34375","156.25"
"1537791457647","1042","-0.78125","0.07324219","0.123046875","61.46875","17.28125","113.15625"
"1537791457649","1043","-0.6464844","-0.13769531","0.18261719","146.96875","-2.375","90.84375"
"1537791457649","1044","-0.51660156","-0.50097656","0.4091797","181.9375","-13.15625","44.8125"
"1537791457650","1045","-0.27148438","-0.67089844","0.39648438","88.5","-31.25","-6.875"
"1537791457650","1046","-0.48828125","-0.5576172","0.0546875","-37.21875","-53.9375","-37.84375"
"1537791457651","1047","-1.5146484","1.5966797","-1.4667969","239.25","-25.75","-81.34375"
"1537791457845","1048","-1.4990234","1.1464844","-0.734375","43.875","-35.09375","33.9375"
"1537791457845","1049","-0.35742188","-0.37402344","0.9580078","-3.1875","-43.1875","24.4375"
"1537791457846","1050","-1.9931641","0.8769531","-1.7646484","153.125","39.25","-103.03125"
"1537791458048","1051","-0.26367188","-1.8271484","1.7001953","-61.21875","41.75","7.46875"
"1537791458048","1052","-0.6748047","0.23242188","0.828125","-194.09375","-30.1875","-65.25"
"1537791458048","1053","-1.4433594","0.18652344","0.14257812","-11.96875","-56.8125","-85.8125"
"1537791458048","1054","-0.8798828","-0.17773438","0.21191406","17.15625","-39.0","-101.125"
"1537791458048","1055","-0.8701172","-0.057617188","0.22949219","-32.84375","-44.25","-97.21875"
"1537791458048","1056","-0.8203125","0.025390625","0.171875","-86.25","-35.09375","-79.53125"
"1537791458049","1057","-0.97558594","0.09765625","0.18066406","-105.15625","-34.03125","-78.40625"
"1537791458243","1058","-0.8925781","0.13378906","0.060546875","-79.09375","-36.0","-77.09375"
"1537791458244","1059","-1.0878906","0.3017578","0.125","-8.84375","-37.84375","-71.15625"
"1537791458244","1060","-1.2705078","0.3017578","-0.072265625","-53.46875","-10.96875","-55.46875"
"1537791458244","1061","-1.1542969","0.44140625","0.026367188","-39.3125","29.84375","-37.09375"
"1537791458244","1062","-1.3798828","0.71875","9.765625E-4","-13.5625","67.28125","-3.46875"
"1537791458444","1063","-1.4257812","1.0771484","-0.35351562","43.875","97.5","61.71875"
"1537791458444","1064","-0.90234375","0.5595703","0.7451172","28.8125","109.6875","155.71875"
"1537791458444","1065","-1.9931641","-0.4951172","0.5263672","128.34375","39.8125","128.625"
"1537791458444","1066","-1.2939453","-0.09472656","0.58691406","52.0","51.34375","173.34375"
"1537791458444","1067","-1.2714844","0.049804688","0.29882812","56.09375","0.6875","160.28125"
"1537791458640","1068","-0.9873047","0.037109375","0.3876953","144.40625","-21.65625","124.46875"
"1537791458641","1069","-0.86816406","-0.045898438","0.4716797","204.40625","-33.0625","105.28125"
"1537791458641","1070","-0.6738281","-0.53027344","0.3466797","281.6875","-15.25","56.78125"
"1537791458641","1071","-0.4609375","-0.71875","0.23925781","173.46875","-33.125","14.46875"
"1537791458642","1072","-0.39453125","-0.8144531","0.08203125","-20.03125","-59.25","-11.78125"
"1537791458841","1073","-0.92089844","0.0234375","-0.58496094","75.5","-25.4375","-82.21875"
"1537791458841","1074","-1.4101562","1.6679688","0.033203125","125.96875","-32.875","15.6875"
"1537791458841","1075","-1.1191406","1.1103516","-0.5644531","30.875","-40.21875","62.375"
"1537791458841","1076","-0.84277344","0.001953125","0.8027344","-19.34375","-77.125","-11.53125"
"1537791458841","1077","-1.9931641","1.1845703","-1.4082031","266.90625","73.0625","-36.625"
"1537791459038","1078","-0.032226562","-1.6552734","1.0166016","18.1875","-57.71875","-34.53125"
"1537791459039","1079","-0.95996094","0.40820312","0.5234375","-161.1875","-52.59375","-60.90625"
"1537791459039","1080","-1.3925781","0.076171875","0.022460938","12.28125","-30.03125","-84.90625"
"1537791459039","1081","-0.75683594","-0.04296875","0.3017578","38.875","-33.5","-99.71875"
"1537791459040","1082","-0.9189453","-0.09667969","0.16699219","33.09375","-50.46875","-100.15625"
"1537791459237","1083","-0.8642578","-0.02734375","0.08984375","-38.34375","-43.5625","-87.09375"
"1537791459237","1084","-0.9560547","0.17578125","0.15625","-40.15625","-30.5","-80.875"
"1537791459437","1085","-0.90625","-0.037109375","0.095703125","-64.21875","-26.53125","-76.09375"
"1537791459437","1086","-1.1552734","0.26367188","0.23144531","38.15625","-30.125","-77.5"
"1537791459634","1087","-1.3378906","0.16601562","-0.14257812","1.71875","-16.90625","-56.09375"
"1537791459634","1088","-1.2353516","0.3876953","-0.018554688","-43.03125","27.96875","-34.71875"
"1537791459634","1089","-1.3505859","0.6855469","-0.0546875","17.46875","71.3125","-10.96875"
"1537791459636","1090","-1.1640625","1.0224609","0.001953125","2.1875","107.625","59.59375"
"1537791459636","1091","-0.9560547","0.68066406","0.44335938","66.15625","131.65625","141.375"
"1537791459636","1092","-1.9931641","-0.15625","0.6816406","169.90625","10.21875","147.15625"
"1537791459637","1093","-1.3261719","-0.3154297","0.85058594","117.6875","68.75","164.5625"
"1537791459637","1094","-1.3564453","-0.10546875","0.47558594","57.4375","4.09375","169.5625"
"1537791459638","1095","-1.0214844","0.13085938","0.14746094","95.875","-14.5625","138.0"
"1537791459833","1096","-0.6298828","-0.7392578","0.25585938","209.09375","-37.46875","23.6875"
"1537791459833","1097","-0.421875","-0.7783203","0.23632812","27.15625","-61.15625","10.15625"
"1537791459833","1098","-0.8671875","-0.3125","-0.2783203","-12.28125","-53.5","-41.5"
"1537791459833","1099","-1.4931641","2.0048828","-1.0742188","243.46875","16.96875","-12.1875"
"1537791459834","1100","-1.2285156","1.1425781","-0.44921875","18.90625","-53.75","79.59375"
"1537791460030","1101","-0.7871094","0.13769531","1.1914062","-12.21875","-65.65625","6.25"
"1537791460031","1102","-1.9931641","0.16113281","-0.9267578","277.15625","33.09375","-40.15625"
"1537791460032","1103","-0.25097656","-1.4384766","0.5625","-40.65625","-67.96875","-37.78125"
"1537791460032","1104","-1.2939453","0.5888672","0.42089844","-136.96875","-64.75","-74.9375"
"1537791460033","1105","-1.2519531","0.018554688","0.18457031","42.71875","-40.8125","-89.59375"
"1537791460230","1106","-0.80859375","-0.21289062","0.23730469","47.4375","-51.8125","-109.0625"
"1537791460230","1107","-0.8847656","-0.018554688","0.14453125","17.40625","-64.0625","-100.09375"
"1537791460231","1108","-0.890625","0.055664062","0.052734375","-5.75","-52.21875","-88.4375"
"1537791460232","1109","-0.9667969","0.049804688","0.23144531","-57.5625","-39.28125","-82.5"
"1537791460232","1110","-0.9863281","0.14453125","-0.041015625","-70.375","-31.59375","-83.90625"
"1537791460431","1111","-1.1875","0.26464844","0.23730469","34.84375","-34.40625","-71.21875"
"1537791460431","1112","-1.2861328","0.34277344","0.00390625","-9.15625","-20.75","-48.5"
"1537791460431","1113","-1.2060547","0.31152344","-0.046875","-9.875","21.375","-43.9375"
"1537791460431","1114","-1.3857422","0.69140625","0.038085938","18.0","62.8125","-14.875"
"1537791460432","1115","-1.1357422","1.1142578","0.20996094","22.15625","84.375","62.21875"
"1537791460627","1116","-0.8984375","0.5488281","0.3857422","99.71875","109.09375","137.03125"
"1537791460628","1117","-1.9931641","-0.375","0.49316406","195.6875","18.375","139.59375"
"1537791460628","1118","-1.2802734","-0.16992188","0.7734375","99.1875","71.59375","160.28125"
"1537791460629","1119","-1.3183594","-0.20019531","0.43554688","16.78125","13.9375","164.4375"
"1537791460629","1120","-1.0742188","0.041015625","0.049804688","55.84375","-5.125","140.375"
"1537791460826","1121","-0.83691406","-0.036132812","0.21679688","146.53125","-14.75","126.15625"
"1537791460827","1122","-0.5810547","-0.41796875","0.17871094","214.59375","-5.0","75.03125"
"1537791460827","1123","-0.4423828","-0.6201172","0.15625","124.5","-18.90625","17.28125"
"1537791460827","1124","-0.40625","-0.5966797","0.20214844","-9.28125","-44.59375","-3.96875"
"1537791460828","1125","-0.7714844","-0.16601562","-0.01171875","-53.40625","-46.1875","-21.15625"
"1537791461027","1126","-1.3173828","1.2880859","-0.70996094","98.5","-27.40625","-18.59375"
"1537791461027","1127","-1.3681641","1.1523438","-0.5292969","-122.0","-57.53125","36.09375"
"1537791461028","1128","-1.1035156","0.15039062","0.03125","67.1875","-45.65625","-17.1875"
"1537791461029","1129","-1.9931641","1.2285156","-1.1630859","44.5","-7.25","-1.875"
"1537791461029","1130","-0.07324219","-1.9951172","1.4228516","11.78125","-7.75","6.53125"
"1537791461424","1131","-0.75878906","0.359375","0.72265625","-232.46875","-63.34375","-60.34375"
"1537791461425","1132","-1.5908203","0.42089844","0.028320312","-3.84375","-62.59375","-63.71875"
"1537791461622","1133","-0.78125","-0.12792969","0.40234375","0.71875","-49.5625","-63.03125"
"1537791461622","1134","-0.8378906","-0.29785156","0.40722656","-115.59375","-51.6875","-56.625"
"1537791461622","1135","-0.9199219","0.12207031","0.40625","-209.84375","-26.46875","-42.40625"
"1537791461623","1136","-0.87890625","0.41015625","0.52441406","-157.59375","-16.09375","-32.53125"
"1537791461624","1137","-0.9121094","0.10839844","0.2734375","-74.59375","-38.3125","-30.8125"
"1537791461625","1138","-1.0332031","-0.046875","0.27539062","-93.125","-28.78125","-45.875"
"1537791461625","1139","-1.1044922","0.27929688","-0.0029296875","-104.1875","-33.0","-53.8125"
"1537791461630","1140","-1.1533203","0.63378906","-0.109375","-53.90625","16.375","34.8125"
"1537791461631","1141","-1.8173828","0.59375","-0.69921875","-92.28125","90.15625","103.90625"
"1537791461823","1142","-1.0419922","-0.34179688","-0.20996094","-125.0","130.4375","166.5625"
"1537791461823","1143","-1.2167969","-0.14257812","0.049804688","-51.21875","47.375","160.46875"
"1537791461823","1144","-0.88378906","-0.09765625","0.044921875","-53.78125","46.15625","114.21875"
"1537791461824","1145","-0.50878906","0.10058594","0.08691406","10.75","36.21875","82.28125"
"1537791461824","1146","-0.45996094","-0.23242188","0.22460938","88.25","26.0625","48.96875"
"1537791461824","1147","-0.3515625","-0.41601562","0.24707031","45.59375","19.84375","5.125"
"1537791462019","1148","-0.3408203","0.10449219","0.3486328","23.0625","-22.6875","-5.53125"
"1537791462020","1149","-1.0371094","0.81640625","-0.375","-3.78125","-48.09375","-36.4375"
"1537791462020","1150","-1.7646484","1.5361328","-1.4130859","-103.625","-13.96875","3.0"
"1537791462021","1151","-1.1083984","0.390625","-0.068359375","85.15625","-10.3125","-1.75"
"1537791462218","1152","-1.0644531","-0.45703125","0.20507812","-289.625","-70.46875","27.0625"
"1537791462219","1153","-1.5048828","0.39746094","0.81933594","-143.0","-19.75","0.5"
"1537791462219","1154","-0.6201172","-0.16992188","0.58691406","-117.25","-3.84375","-38.3125"
"1537791462222","1155","-1.1933594","0.29003906","0.54589844","-97.78125","-49.375","-49.75"
"1537791462222","1156","-1.0830078","0.08886719","0.30078125","-77.28125","-34.78125","-61.21875"
"1537791462417","1157","-0.6982422","0.05078125","0.41601562","-116.8125","-30.625","-68.34375"
"1537791462417","1158","-0.89453125","0.06640625","0.3330078","-142.34375","-27.03125","-55.46875"
"1537791462417","1159","-0.9033203","0.33398438","0.34765625","-142.8125","-17.625","-52.125"
"1537791462417","1160","-0.8935547","0.17382812","0.16015625","-74.34375","-35.75","-52.71875"
"1537791462418","1161","-1.0224609","-0.01953125","0.1796875","-78.78125","-24.71875","-57.84375"
"1537791462615","1162","-1.0263672","0.24414062","0.32421875","-103.21875","-20.625","-55.53125"
"1537791462814","1163","-1.1669922","0.5917969","0.19140625","-109.5625","-15.1875","-38.9375"
"1537791462814","1164","-1.0527344","0.7324219","0.013671875","-85.875","21.8125","4.78125"
"1537791462816","1165","-1.6494141","0.6972656","-0.16113281","-65.0","49.8125","70.75"
"1537791462817","1166","-1.2402344","0.3310547","-0.3828125","-73.65625","138.25","160.46875"
"1537791462817","1167","-1.8447266","-0.9658203","0.5136719","-63.96875","97.65625","184.59375"
"1537791463015","1168","-1.6123047","0.12207031","0.07910156","-183.90625","109.875","160.03125"
"1537791463015","1169","-1.2626953","0.06542969","0.19238281","-93.6875","39.0","170.84375"
"1537791463015","1170","-1.0166016","-0.16894531","-0.0087890625","1.59375","52.375","149.71875"
"1537791463015","1171","-0.63183594","-0.0068359375","0.041015625","41.5625","35.71875","93.75"
"1537791463016","1172","-0.5078125","-0.033203125","0.2626953","115.125","23.5625","73.0"
"1537791463016","1173","-0.40625","-0.4716797","0.3359375","132.25","19.3125","20.09375"
"1537791463017","1174","-0.27929688","-0.2841797","0.234375","42.0","-10.90625","2.75"
"1537791463018","1175","-0.59375","0.21777344","0.0546875","2.625","-55.90625","-35.4375"
"1537791463019","1176","-1.6308594","1.8339844","-1.4746094","-27.21875","-0.40625","-36.5"
"1537791463211","1177","-1.4648438","0.8066406","-0.43554688","111.5","-23.3125","-10.0"
"1537791463211","1178","-1.1621094","-0.3955078","0.49414062","-60.375","-61.6875","3.0"
"1537791463213","1179","-1.1757812","0.20410156","-0.31835938","12.6875","23.21875","-13.90625"
"1537791463213","1180","-0.5078125","-0.9667969","0.6533203","-129.875","-29.59375","-60.46875"
"1537791463213","1181","-1.2539062","0.5917969","0.6826172","-210.5","-47.71875","-46.625"
"1537791463412","1182","-1.0185547","0.265625","0.3564453","-63.78125","-41.375","-68.03125"
"1537791463413","1183","-0.75878906","0.15332031","0.28027344","-55.25","-37.9375","-91.25"
"1537791463413","1184","-0.8925781","0.041015625","0.21289062","-86.125","-43.125","-87.34375"
"1537791463413","1185","-0.9707031","0.15429688","0.2607422","-126.46875","-26.96875","-71.46875"
"1537791463413","1186","-0.82421875","0.19726562","0.23046875","-96.625","-25.125","-70.125"
"1537791463611","1187","-0.94628906","0.109375","0.11328125","-70.125","-25.625","-71.71875"
"1537791463807","1188","-1.0498047","0.07421875","0.19628906","-71.46875","-19.46875","-64.125"
"1537791463807","1189","-1.0800781","0.36328125","0.27539062","-98.625","-21.15625","-54.125"
"1537791463808","1190","-1.1455078","0.5957031","0.17675781","-70.4375","15.34375","-36.25"
"1537791463812","1191","-1.4082031","0.4814453","0.0859375","-25.09375","36.875","-8.34375"
"1537791463812","1192","-1.4609375","0.9970703","-0.28515625","-21.90625","71.96875","53.84375"
"1537791463812","1193","-0.9345703","0.203125","0.052734375","1.21875","125.25","148.03125"
"1537791463812","1194","-1.9931641","-0.6640625","0.42871094","45.15625","46.78125","148.75"
"1537791463812","1195","-1.3007812","0.09375","0.2919922","-33.875","83.75","152.0"
"1537791464009","1196","-1.2744141","-0.034179688","0.27734375","-10.3125","25.03125","159.375"
"1537791464009","1197","-0.9560547","-0.10644531","0.12109375","48.71875","21.8125","142.71875"
"1537791464009","1198","-0.7207031","-0.052734375","0.08203125","95.40625","1.78125","99.875"
"1537791464009","1199","-0.56152344","-0.18847656","0.26464844","169.5625","0.5","74.71875"
"1537791464010","1200","-0.45703125","-0.55371094","0.30664062","151.125","-2.375","20.75"
"1537791464010","1201","-0.27539062","-0.5449219","0.17480469","48.65625","-20.375","-11.84375"
"1537791464206","1202","-0.68652344","-0.03125","-0.11816406","-26.375","-47.34375","-46.75"
"1537791464206","1203","-1.7392578","2.0048828","-1.1181641","101.4375","-17.125","-43.6875"
"1537791464206","1204","-1.4921875","0.71191406","-0.40820312","54.3125","-24.65625","18.375"
"1537791464207","1205","-1.4384766","-0.234375","0.5058594","-95.03125","-49.5625","2.5"
"1537791464210","1206","-1.0576172","-1.0292969","0.057617188","43.34375","0.375","-4.09375"
"1537791464406","1207","-0.91308594","-0.4296875","0.51464844","-150.625","-56.03125","-59.75"
"1537791464406","1208","-1.15625","0.4638672","0.43359375","-69.03125","-60.78125","-74.875"
"1537791464406","1209","-1.0322266","0.00390625","0.2529297","-7.6875","-54.0","-104.125"
"1537791464406","1210","-0.7919922","-0.0087890625","0.26367188","-24.0625","-59.3125","-102.65625"
"1537791464407","1211","-0.9609375","-0.07324219","0.17480469","-83.25","-47.40625","-89.34375"
"1537791464604","1212","-0.9013672","0.103515625","0.22851562","-115.96875","-32.875","-73.40625"
"1537791464605","1213","-0.9189453","0.20800781","0.16894531","-107.0625","-27.4375","-79.15625"
"1537791464803","1214","-0.94921875","0.22949219","0.17773438","-40.71875","-36.78125","-76.03125"
"1537791464804","1215","-1.1074219","0.2998047","0.15820312","-33.8125","-26.28125","-65.125"
"1537791464805","1216","-1.2753906","0.4345703","0.064453125","-65.90625","-10.65625","-56.15625"
"1537791464805","1217","-1.2353516","0.6191406","0.0625","-13.96875","37.375","-31.125"
"1537791464805","1218","-1.5458984","0.81152344","0.051757812","2.0625","65.5625","20.5625"
"1537791464805","1219","-1.3476562","0.734375","-0.43554688","51.9375","123.0","119.03125"
"1537791464805","1220","-1.3515625","-0.36914062","0.7089844","41.125","62.75","152.40625"
"1537791464805","1221","-1.3857422","0.033203125","0.3642578","-4.5625","108.65625","134.65625"
"1537791465003","1222","-1.2568359","-0.041015625","0.32421875","-2.9375","35.84375","161.5"
"1537791465003","1223","-1.0332031","-0.16113281","0.12890625","45.40625","24.84375","151.5"
"1537791465003","1224","-0.7763672","-0.07421875","0.1015625","78.3125","18.5625","118.96875"
"1537791465004","1225","-0.57714844","-0.18164062","0.14355469","126.15625","5.25","89.125"
"1537791465005","1226","-0.52734375","-0.4765625","0.2841797","150.375","-3.71875","43.15625"
"1537791465199","1227","-0.30371094","-0.6347656","0.30859375","60.59375","-21.09375","-5.65625"
"1537791465199","1228","-0.5498047","-0.31347656","0.052734375","-38.75","-45.03125","-39.53125"
"1537791465199","1229","-1.5527344","1.7099609","-1.2255859","140.625","-39.28125","-58.875"
"1537791465200","1230","-1.5361328","0.9472656","-0.8359375","46.21875","-27.28125","21.1875"
"1537791465200","1231","-0.6220703","-0.5966797","0.90234375","-56.15625","-46.25","29.375"
"1537791465400","1232","-1.9931641","1.2832031","-0.8564453","141.0","29.375","-54.1875"
"1537791465400","1233","-0.3388672","-1.7050781","0.875","-58.65625","-36.78125","-12.9375"
"1537791465400","1234","-1.1865234","0.40722656","0.61621094","-147.78125","-53.5625","-80.5"
"1537791465795","1235","-1.1337891","0.017578125","0.2626953","-8.53125","-49.5625","-83.90625"
"1537791465795","1236","-0.828125","-0.024414062","0.28125","-27.15625","-49.375","-95.8125"
"1537791465796","1237","-0.87890625","-0.017578125","0.17773438","-76.46875","-45.53125","-86.0"
"1537791465994","1238","-0.8769531","0.14257812","0.22949219","-113.84375","-29.21875","-74.46875"
"1537791465994","1239","-0.875","0.16308594","0.16503906","-98.625","-31.125","-75.125"
"1537791465995","1240","-0.8574219","0.19335938","0.1171875","-69.03125","-30.875","-78.96875"
"1537791465996","1241","-1.0957031","0.12890625","0.23144531","-15.8125","-37.34375","-74.15625"
"1537791465996","1242","-1.2148438","0.42578125","0.056640625","-63.96875","-30.125","-69.4375"
"1537791465998","1243","-1.1669922","0.7470703","0.111328125","-45.53125","21.875","-38.625"
"1537791465998","1244","-1.9931641","-0.48632812","0.39941406","53.03125","97.5","125.0"
"1537791465999","1245","-1.3105469","0.01171875","0.4013672","-29.90625","51.40625","163.65625"
"1537791465999","1246","-1.1660156","-0.17480469","0.119140625","29.96875","22.0","163.34375"
"1537791466193","1247","-0.46777344","-0.43066406","0.32617188","158.8125","-0.15625","53.40625"
"1537791466193","1248","-0.29882812","-0.74902344","0.3701172","91.5625","-21.40625","-8.96875"
"1537791466195","1249","-0.484375","-0.7001953","0.16894531","-51.625","-45.53125","-39.84375"
"1537791466195","1250","-1.4599609","1.6943359","-1.53125","238.9375","-32.21875","-86.90625"
"1537791466195","1251","-1.5927734","0.8623047","-0.9121094","10.3125","-27.8125","25.875"
"1537791466394","1252","-0.54589844","-0.4091797","0.609375","-38.6875","-20.4375","37.375"
"1537791466394","1253","-1.8105469","0.2998047","-1.59375","1.84375","30.53125","-70.65625"
"1537791466394","1254","-0.8642578","-1.4306641","1.2119141","-164.84375","37.4375","38.28125"
"1537791466394","1255","-0.5986328","0.030273438","0.6777344","-166.6875","-23.65625","-70.4375"
"1537791466394","1256","-1.5205078","0.09667969","0.15722656","-41.1875","-60.65625","-78.71875"
"1537791466590","1257","-0.9326172","-0.038085938","0.2607422","-37.15625","-38.5625","-87.46875"
"1537791466590","1258","-0.87402344","-0.026367188","0.2685547","-88.1875","-41.0625","-86.40625"
"1537791466592","1259","-0.84277344","0.20800781","0.25097656","-126.65625","-26.125","-69.9375"
"1537791466592","1260","-0.8828125","0.30371094","0.3076172","-112.5","-30.1875","-64.875"
"1537791466593","1261","-0.89160156","0.25585938","0.009765625","-70.0625","-35.9375","-72.5"
"1537791466788","1262","-1.1230469","0.17382812","0.15820312","-4.75","-38.875","-71.78125"
"1537791466789","1263","-1.0498047","0.37304688","0.11230469","-45.90625","-34.53125","-65.375"
"1537791466789","1264","-1.2421875","0.515625","0.12988281","-41.3125","5.6875","-43.75"
"1537791466791","1265","-1.4072266","0.48046875","0.01171875","-15.3125","32.65625","-7.625"
"1537791466791","1266","-1.4658203","1.0361328","-0.22558594","-9.03125","63.0625","48.84375"
"1537791466990","1267","-0.98535156","0.22460938","0.025390625","-8.25","137.34375","146.1875"
"1537791466990","1268","-1.9931641","-0.70703125","0.5722656","54.5","64.21875","153.9375"
"1537791466990","1269","-1.2685547","0.12988281","0.2109375","-34.71875","87.59375","155.28125"
"1537791466990","1270","-1.3369141","-0.18457031","0.20703125","-10.625","32.59375","153.21875"
"1537791467186","1271","-0.92285156","-0.15917969","0.06640625","40.28125","44.1875","132.5625"
"1537791467187","1272","-0.6699219","-0.06542969","0.08203125","74.21875","15.34375","87.15625"
"1537791467188","1273","-0.49316406","-0.265625","0.23925781","153.1875","8.6875","62.09375"
"1537791467188","1274","-0.3720703","-0.5810547","0.36035156","117.84375","-11.09375","8.125"
"1537791467188","1275","-0.33203125","-0.5410156","0.3095703","10.0625","-33.3125","-24.78125"
"1537791467387","1276","-0.95410156","0.6513672","-0.59375","83.0","-46.8125","-80.4375"
"1537791467387","1277","-1.8994141","1.9277344","-0.8105469","-8.0625","-65.46875","15.09375"
"1537791467388","1278","-1.0654297","0.37402344","-0.19042969","78.0","-13.59375","26.125"
"1537791467388","1279","-1.8398438","0.24609375","-0.34765625","-139.28125","-82.375","-12.375"
