"# PDIoT walking data"
"# Start time: 20180925T191037"
"# Group: D"
"# Subject: Alex Walking 100"
"# Activity type: Walking (level ground)"
"# Sensor position: Upper arm"
"# Side of body: Left"
"# Sensor mounting: Pocket"
"# Number of steps: 100"
"# Notes: Along Nicholson Street"
""
"timestamp","seq","accel_x","accel_y","accel_z","gyro_x","gyro_y","gyro_z"
"1537899037179","0","0.12109375","-0.9892578","0.20410156","-6.9375","5.6875","0.84375"
"1537899037181","1","0.12402344","-0.953125","0.21972656","-4.1875","3.59375","-1.0625"
"1537899037181","2","0.13867188","-0.9765625","0.22167969","-4.53125","4.53125","-0.75"
"1537899037181","3","0.14550781","-0.9794922","0.18652344","-4.0625","0.4375","-2.03125"
"1537899037182","4","0.13378906","-0.9716797","0.22265625","-1.1875","5.25","-1.25"
"1537899037378","5","0.12988281","-0.9970703","0.18164062","-4.1875","-0.34375","-0.5"
"1537899037380","6","0.13964844","-0.9609375","0.22460938","-1.5625","3.96875","-0.875"
"1537899037380","7","0.12011719","-0.98046875","0.20214844","-4.1875","1.59375","1.15625"
"1537899037381","8","0.14648438","-0.9658203","0.21679688","0.59375","2.625","-0.8125"
"1537899037381","9","0.11035156","-0.9785156","0.21972656","-1.84375","3.71875","0.21875"
"1537899037577","10","0.14941406","-0.9667969","0.19433594","-0.15625","0.125","-0.625"
"1537899037578","11","0.125","-0.9814453","0.22167969","-1.0625","5.5","0.71875"
"1537899037578","12","0.13671875","-0.98339844","0.18457031","-2.53125","-0.34375","2.0625"
"1537899037579","13","0.14648438","-0.953125","0.23242188","1.125","5.875","1.4375"
"1537899037580","14","0.10449219","-0.98535156","0.20605469","-1.84375","3.5625","3.71875"
"1537899037775","15","0.15234375","-0.9453125","0.20898438","3.625","5.875","2.4375"
"1537899037776","16","0.13378906","-0.98828125","0.23925781","4.0625","10.0625","2.90625"
"1537899037777","17","0.09277344","-0.9902344","0.15722656","1.0","3.4375","2.96875"
"1537899037778","18","0.1328125","-0.9921875","0.20019531","4.625","8.90625","2.125"
"1537899037778","19","0.12109375","-1.0019531","0.17089844","-0.875","3.90625","2.71875"
"1537899037975","20","0.12109375","-0.9951172","0.14550781","-2.90625","-2.375","3.28125"
"1537899037975","21","0.15136719","-0.98535156","0.171875","-0.9375","-3.96875","3.28125"
"1537899037976","22","0.107421875","-1.0175781","0.1484375","-4.125","-7.5625","3.71875"
"1537899037977","23","0.119140625","-1.015625","0.087890625","-10.40625","-16.34375","5.125"
"1537899037977","24","0.119140625","-1.0244141","0.053710938","-18.8125","-21.40625","4.6875"
"1537899038174","25","0.11816406","-1.0302734","0.07324219","-30.46875","-29.28125","2.71875"
"1537899038175","26","0.09082031","-0.9814453","0.036132812","-54.90625","-55.46875","2.5625"
"1537899038175","27","0.109375","-0.9667969","0.0078125","-70.9375","-74.03125","9.375"
"1537899038175","28","0.080078125","-1.1796875","0.083984375","-96.53125","-76.65625","25.5625"
"1537899038175","29","-0.030273438","-1.1376953","-0.12890625","-101.78125","-93.6875","36.1875"
"1537899038372","30","0.08691406","-0.9550781","-0.140625","-117.15625","-56.8125","50.78125"
"1537899038373","31","-0.021484375","-1.0410156","-0.1796875","-83.59375","-54.1875","41.78125"
"1537899038373","32","-0.07519531","-0.9824219","-0.26757812","-81.375","-109.5","33.0"
"1537899038574","33","-0.06640625","-0.84472656","-0.29296875","-64.59375","-114.75","22.5"
"1537899038574","34","-0.1796875","-0.9140625","-0.296875","-52.03125","-114.375","20.96875"
"1537899038574","35","-0.31640625","-0.8417969","-0.3779297","-41.90625","-60.84375","22.875"
"1537899038574","36","-0.35839844","-0.8017578","-0.43164062","-38.78125","-41.75","19.46875"
"1537899038575","37","-0.30273438","-0.7207031","-0.45507812","-26.5625","-18.25","12.1875"
"1537899038575","38","-0.27929688","-0.7314453","-0.41992188","-9.25","1.78125","9.125"
"1537899038575","39","-0.3125","-0.71191406","-0.45214844","-11.6875","6.65625","8.46875"
"1537899038770","40","-0.31640625","-0.7597656","-0.5419922","3.8125","-3.78125","-3.90625"
"1537899038771","41","-0.46191406","-0.7421875","-0.71777344","17.0625","26.9375","-24.75"
"1537899038771","42","-0.47265625","-0.8925781","-0.484375","-10.65625","20.9375","-22.53125"
"1537899038771","43","-0.3642578","-0.6123047","-0.53125","59.84375","9.59375","-20.28125"
"1537899038771","44","-0.18945312","-1.9433594","-0.66503906","76.75","15.5","-20.65625"
"1537899038969","45","0.11328125","-1.0136719","0.13671875","19.0625","-47.0625","-22.65625"
"1537899038969","46","-0.064453125","-0.45996094","0.22265625","87.3125","192.5625","-56.59375"
"1537899038970","47","0.73535156","-1.4394531","-0.15136719","115.875","57.625","-59.65625"
"1537899038971","48","-0.22851562","-0.7324219","0.125","162.09375","92.84375","-44.03125"
"1537899038971","49","0.057617188","-0.9707031","0.11230469","96.09375","65.6875","-40.40625"
"1537899039169","50","0.26464844","-0.95703125","-0.029296875","103.625","46.46875","-49.46875"
"1537899039169","51","0.059570312","-0.9091797","-0.10644531","63.5625","66.15625","-32.125"
"1537899039169","52","0.19140625","-0.9267578","-0.057617188","62.09375","98.875","-41.65625"
"1537899039169","53","0.16503906","-0.8642578","0.07421875","58.875","92.28125","-37.625"
"1537899039170","54","0.06933594","-0.94433594","0.064453125","49.78125","30.40625","-34.25"
"1537899039366","55","0.16015625","-0.98046875","-0.18066406","48.1875","52.0","-28.6875"
"1537899039367","56","0.3125","-1.1484375","0.35253906","-1.6875","55.78125","-20.09375"
"1537899039367","57","0.21582031","-1.2626953","-0.15527344","-5.75","38.53125","-25.34375"
"1537899039367","58","0.3984375","-1.6669922","0.024414062","-33.78125","48.78125","11.03125"
"1537899039368","59","0.22265625","-1.5039062","-0.06933594","-140.96875","-13.0","32.09375"
"1537899039566","60","-0.26171875","-0.6611328","0.4423828","-210.28125","-22.46875","98.96875"
"1537899039566","61","0.08203125","-1.875","-0.46289062","-173.125","-53.46875","107.84375"
"1537899039567","62","0.390625","-0.84765625","0.018554688","-219.875","-215.09375","-20.9375"
"1537899039567","63","0.1015625","-1.0478516","-0.056640625","-178.5","-203.96875","70.40625"
"1537899039567","64","0.0029296875","-0.48242188","0.0029296875","-129.0625","-139.03125","45.46875"
"1537899039765","65","-0.05078125","-0.26757812","-0.0625","-93.65625","-75.25","31.53125"
"1537899039766","66","0.08203125","-0.37402344","0.09472656","-44.59375","-83.625","2.4375"
"1537899039766","67","-0.02734375","-0.35253906","-0.07910156","17.6875","-17.8125","-40.25"
"1537899039766","68","-0.3251953","-0.23925781","-0.8642578","104.53125","108.40625","-77.96875"
"1537899039766","69","-0.47851562","-1.6132812","-0.3798828","87.3125","147.28125","-39.375"
"1537899039963","70","-0.390625","-1.4941406","-0.77734375","4.6875","-148.375","32.15625"
"1537899039963","71","-0.3935547","-1.3427734","-0.6308594","-43.84375","-39.65625","5.28125"
"1537899039963","72","0.234375","-1.9960938","-0.87890625","8.03125","-10.78125","11.40625"
"1537899039963","73","-0.18457031","1.1943359","1.2363281","98.53125","10.125","-93.9375"
"1537899039964","74","0.15820312","-0.8886719","-0.028320312","105.8125","302.25","-40.78125"
"1537899040161","75","1.1289062","-1.3486328","0.25","137.71875","115.78125","-41.75"
"1537899040162","76","0.06542969","-0.6435547","0.0859375","187.78125","45.71875","-79.78125"
"1537899040162","77","0.15820312","-1.1201172","-0.14746094","83.03125","32.65625","-32.0"
"1537899040162","78","-0.041992188","-0.90527344","-0.021484375","34.34375","73.875","-47.9375"
"1537899040163","79","0.18164062","-0.8613281","0.28222656","53.375","106.21875","-37.375"
"1537899040360","80","0.359375","-0.9355469","0.103515625","54.0","71.0625","-33.65625"
"1537899040360","81","-0.047851562","-0.75390625","-0.20507812","63.875","42.5","-54.09375"
"1537899040360","82","0.06933594","-1.1572266","-0.15917969","41.90625","56.15625","-8.875"
"1537899040361","83","0.65625","-1.3720703","0.20898438","6.6875","32.40625","-6.3125"
"1537899040362","84","-0.10644531","-1.1132812","-0.24316406","-10.34375","37.46875","-24.75"
"1537899040559","85","0.3173828","-1.8349609","-0.21191406","-69.65625","36.4375","62.25"
"1537899040559","86","-0.05078125","-1.2148438","0.053710938","-225.96875","-14.75","67.78125"
"1537899040559","87","0.033203125","-1.1552734","0.16992188","-184.78125","-111.8125","80.625"
"1537899040560","88","0.4736328","-1.9960938","1.0146484","-91.65625","-109.90625","39.0"
"1537899040560","89","0.24804688","-1.2734375","0.30664062","-171.90625","-228.5625","35.03125"
"1537899040757","90","0.020507812","-0.6347656","0.022460938","-153.21875","-201.59375","41.65625"
"1537899040758","91","-9.765625E-4","-0.18164062","0.026367188","-123.0625","-164.0","43.4375"
"1537899040758","92","0.0068359375","-0.24804688","0.046875","-56.4375","-103.5625","43.0625"
"1537899040759","93","-0.0068359375","-0.359375","-0.064453125","6.0","-64.75","-9.0625"
"1537899040760","94","-0.22753906","-0.35351562","-0.38476562","78.21875","36.375","-67.21875"
"1537899040957","95","-0.70703125","-0.7363281","-1.1787109","115.625","188.65625","-69.03125"
"1537899040957","96","-0.19824219","-1.9960938","-0.56933594","71.5","-133.90625","42.78125"
"1537899040958","97","-0.8564453","-0.84277344","-0.44140625","-93.84375","-74.03125","-6.375"
"1537899040958","98","-0.17578125","-1.9960938","-0.84765625","-26.8125","21.625","42.21875"
"1537899040958","99","0.62597656","-0.38378906","0.5107422","45.5","-121.09375","-100.96875"
"1537899041157","100","-0.5878906","-0.2763672","0.34960938","109.03125","341.25","-28.28125"
"1537899041157","101","1.6835938","-1.9912109","0.1875","156.21875","153.28125","-78.625"
"1537899041157","102","-0.25195312","-0.64941406","-0.001953125","204.6875","19.125","-64.90625"
"1537899041157","103","0.06738281","-0.9921875","0.43652344","164.9375","25.09375","-45.4375"
"1537899041158","104","-0.0146484375","-1.0351562","-0.17285156","127.59375","83.375","-73.8125"
"1537899041354","105","9.765625E-4","-0.74121094","0.0078125","44.09375","147.15625","-46.9375"
"1537899041354","106","0.2734375","-0.86035156","0.41015625","63.6875","101.15625","-48.59375"
"1537899041355","107","0.06542969","-0.9111328","-0.41503906","77.0625","40.53125","-44.875"
"1537899041355","108","0.03125","-1.0263672","-0.08691406","46.84375","71.53125","-22.34375"
"1537899041355","109","0.6767578","-1.2744141","0.12890625","6.0","31.75","-6.0"
"1537899041552","110","0.15722656","-1.2373047","-0.24609375","-7.71875","18.75","-18.03125"
"1537899041553","111","0.3125","-1.7041016","-0.025390625","-87.4375","16.1875","49.1875"
"1537899041553","112","-0.328125","-1.3066406","0.27441406","-195.875","-27.875","61.3125"
"1537899041554","113","-0.0048828125","-1.6357422","-0.17382812","-199.71875","-31.3125","81.71875"
"1537899041554","114","0.43554688","-1.9121094","2.2626953","-22.90625","-75.8125","19.21875"
"1537899041752","115","0.48242188","-1.1640625","0.056640625","-190.8125","-216.4375","10.65625"
"1537899041753","116","-0.03125","-0.6142578","0.06640625","-168.90625","-186.53125","37.09375"
"1537899041950","117","0.046875","-0.12109375","0.068359375","-125.5625","-188.09375","36.90625"
"1537899041950","118","0.048828125","-0.16210938","-9.765625E-4","-53.375","-113.8125","41.96875"
"1537899041951","119","-0.078125","-0.34960938","-0.030273438","25.84375","-76.03125","-14.34375"
"1537899041951","120","-0.20019531","-0.34179688","-0.4560547","110.15625","50.59375","-81.3125"
"1537899041952","121","-0.5292969","-1.0585938","-0.78222656","123.9375","197.75","-104.25"
"1537899041952","122","0.07128906","-1.9960938","-0.69628906","-18.8125","-118.03125","50.03125"
"1537899041953","123","-0.62890625","-0.6699219","-0.62597656","-126.375","-81.65625","25.5625"
"1537899041953","124","-0.17675781","-1.5712891","-1.0732422","-4.53125","-8.28125","11.75"
"1537899042149","125","0.79785156","-1.7675781","0.9277344","-15.03125","-94.0625","-44.21875"
"1537899042149","126","-0.9199219","0.41015625","0.7783203","170.375","355.0","-56.84375"
"1537899042149","127","0.8466797","-1.9960938","-0.50878906","132.96875","28.3125","-48.84375"
"1537899042150","128","0.15917969","-0.5029297","0.6064453","220.625","112.0","-52.25"
"1537899042348","129","-0.17675781","-0.7890625","-0.17089844","125.34375","-4.4375","-53.53125"
"1537899042348","130","0.08105469","-0.98339844","0.013671875","151.34375","138.125","-74.46875"
"1537899042348","131","-0.017578125","-0.76660156","-0.047851562","16.28125","167.5","-34.875"
"1537899042348","132","0.4423828","-0.8222656","0.46679688","61.0625","93.8125","-37.0"
"1537899042350","133","0.19140625","-1.0585938","-0.47558594","81.46875","38.03125","-52.03125"
"1537899042548","134","-0.057617188","-0.94921875","0.13671875","50.15625","62.1875","-34.0"
"1537899042548","135","0.68359375","-1.2910156","0.24121094","-9.5","63.46875","8.65625"
"1537899042549","136","0.09863281","-1.3154297","-0.265625","-7.90625","14.84375","-24.0625"
"1537899042549","137","0.28515625","-1.6591797","-0.119140625","-91.59375","5.75","45.03125"
"1537899042549","138","-0.17285156","-1.2246094","0.29785156","-235.875","-15.875","70.0625"
"1537899042747","139","-0.01171875","-1.3076172","-0.03125","-179.53125","-156.25","100.03125"
"1537899042747","140","0.57910156","-1.9960938","1.6259766","-36.28125","-73.0","37.875"
"1537899042748","141","0.33398438","-1.1748047","0.115234375","-200.28125","-205.8125","35.8125"
"1537899042748","142","-0.009765625","-0.6142578","0.12207031","-162.875","-210.125","26.65625"
"1537899042748","143","0.05078125","-0.10839844","0.015625","-107.3125","-174.8125","34.09375"
"1537899042944","144","-0.051757812","-0.203125","-0.04296875","-33.78125","-99.46875","38.9375"
"1537899042945","145","-0.036132812","-0.30859375","-0.119140625","23.71875","-6.65625","-16.375"
"1537899042945","146","-0.26660156","-0.38867188","-0.27441406","73.46875","75.09375","-66.125"
"1537899042945","147","-0.57714844","-0.9199219","-0.7626953","117.90625","178.65625","-72.09375"
"1537899042946","148","0.10546875","-1.9960938","-1.1132812","60.6875","-142.6875","29.9375"
"1537899043146","149","-1.0126953","-0.6582031","-0.3095703","-119.96875","-88.75","8.96875"
"1537899043146","150","0.1171875","-1.6474609","-0.86621094","-12.28125","36.6875","-5.3125"
"1537899043146","151","0.1484375","-0.22949219","0.8457031","48.5","-80.9375","-86.9375"
"1537899043146","152","-0.24707031","-0.09082031","0.23535156","47.65625","287.90625","-30.34375"
"1537899043146","153","1.2255859","-1.9433594","-0.1015625","196.5625","143.125","-89.625"
"1537899043342","154","-0.14648438","-0.81347656","0.25878906","200.71875","73.3125","-48.53125"
"1537899043342","155","-0.21679688","-0.9404297","-0.3857422","113.9375","-17.75","-47.5625"
"1537899043342","156","0.053710938","-0.9238281","0.0087890625","107.40625","143.875","-68.75"
"1537899043343","157","0.23046875","-0.8183594","0.083984375","47.8125","141.3125","-45.0625"
"1537899043343","158","0.296875","-0.80078125","0.31054688","71.4375","63.53125","-43.40625"
"1537899043540","159","0.15820312","-1.0644531","-0.44628906","77.3125","50.78125","-54.53125"
"1537899043541","160","0.0048828125","-1.1201172","0.022460938","49.53125","48.40625","-21.3125"
"1537899043541","161","0.73046875","-1.328125","0.12402344","-11.75","42.78125","-2.9375"
"1537899043541","162","-0.1015625","-1.234375","-0.36035156","-37.5625","28.6875","-24.3125"
"1537899043542","163","0.043945312","-1.8271484","-0.1875","-122.28125","-0.34375","91.90625"
"1537899043741","164","0.11425781","-1.2294922","0.65722656","-229.75","4.875","90.1875"
"1537899043741","165","0.103515625","-1.84375","-0.4189453","-180.1875","-106.0","111.0625"
"1537899043741","166","0.7373047","-1.9960938","0.9951172","-114.34375","-356.9375","-35.84375"
"1537899043741","167","0.14746094","-1.1816406","0.30566406","-222.3125","-203.375","52.53125"
"1537899043742","168","0.0087890625","-0.453125","0.29785156","-156.9375","-184.3125","18.53125"
"1537899043937","169","0.1484375","-0.0078125","-0.0234375","-111.0625","-125.53125","43.875"
"1537899043939","170","0.1015625","-0.13769531","0.11035156","-37.0","-127.4375","37.65625"
"1537899043939","171","-0.072265625","-0.2685547","-0.047851562","46.0","-10.5625","-33.59375"
"1537899043939","172","-0.41503906","-0.3857422","-0.5996094","81.46875","98.40625","-68.5625"
"1537899043939","173","-0.9472656","-1.5068359","-0.94921875","126.0625","103.21875","-37.78125"
"1537899044136","174","-0.23828125","-1.6259766","-0.84375","-0.09375","-146.40625","25.3125"
"1537899044138","175","-0.60839844","-0.66796875","-0.24902344","-115.1875","-49.90625","26.34375"
"1537899044138","176","0.4140625","-1.9960938","-0.50683594","-13.625","13.96875","38.625"
"1537899044139","177","-0.72753906","0.93066406","0.6972656","134.75","151.375","-96.625"
"1537899044139","178","0.95703125","-1.5898438","-1.1943359","-12.53125","30.34375","-36.03125"
"1537899044335","179","0.68847656","-0.8261719","0.6972656","284.65625","132.15625","-105.53125"
"1537899044335","180","-0.55078125","-0.4111328","-0.23632812","119.65625","-5.84375","-60.8125"
"1537899044336","181","-0.041015625","-1.140625","0.2861328","162.5","27.53125","-54.09375"
"1537899044336","182","-0.017578125","-0.9355469","-0.14355469","94.21875","125.0","-69.84375"
"1537899044337","183","0.087890625","-0.79003906","0.060546875","73.09375","185.5","-47.625"
"1537899044535","184","0.34179688","-0.6738281","0.66308594","73.53125","79.34375","-48.84375"
"1537899044536","185","0.13671875","-0.9941406","-0.6513672","75.53125","35.59375","-34.5"
"1537899044735","186","0.21386719","-1.1835938","0.3046875","29.6875","100.40625","-19.0625"
"1537899044736","187","0.59765625","-1.4296875","-0.22949219","-5.71875","13.8125","-9.59375"
"1537899044736","188","0.12792969","-1.1787109","-0.30273438","-23.34375","31.3125","5.53125"
"1537899044736","189","0.26367188","-1.6201172","-0.17382812","-158.46875","-15.96875","64.6875"
"1537899044736","190","-0.2548828","-1.0283203","0.69628906","-195.40625","-39.0625","62.0"
"1537899044736","191","0.13378906","-1.9736328","-0.4013672","-188.625","-7.0","111.0"
"1537899044736","192","0.6660156","-1.3984375","-0.56152344","-301.125","-345.09375","-52.75"
"1537899044737","193","0.2265625","-1.0419922","0.3017578","-207.1875","-219.09375","41.375"
"1537899044931","194","0.13867188","-0.3017578","0.23046875","-147.0625","-193.96875","13.03125"
"1537899044931","195","0.05859375","-0.048828125","0.04296875","-81.8125","-152.53125","43.875"
"1537899044933","196","-0.046875","-0.2841797","0.048828125","-13.34375","-86.28125","17.1875"
"1537899044933","197","-0.087890625","-0.3388672","-0.12695312","37.875","15.6875","-54.53125"
"1537899044933","198","-0.4560547","-0.34375","-0.9511719","141.8125","128.90625","-97.125"
"1537899045133","199","-0.40039062","-1.9960938","-0.48828125","15.40625","-27.40625","15.78125"
"1537899045133","200","-0.69433594","-0.95410156","-0.6826172","-64.84375","-124.5625","52.15625"
"1537899045133","201","-0.5136719","-1.7822266","-0.9111328","-29.625","-25.1875","20.96875"
"1537899045133","202","0.7685547","-1.5615234","0.5761719","-59.46875","-98.4375","12.625"
"1537899045133","203","-0.5996094","0.4716797","1.1591797","190.28125","376.59375","-60.5"
"1537899045329","204","0.97265625","-1.9960938","-0.67089844","142.4375","21.375","-60.75"
"1537899045329","205","0.08984375","-0.6171875","0.3330078","222.625","137.6875","-56.0"
"1537899045329","206","-0.37109375","-0.48828125","-0.21582031","116.1875","29.59375","-64.90625"
"1537899045330","207","0.25097656","-1.1103516","-0.18652344","138.34375","46.03125","-66.84375"
"1537899045331","208","0.048828125","-0.6826172","0.0029296875","13.03125","171.9375","-62.46875"
"1537899045528","209","0.3388672","-0.82421875","0.8154297","77.90625","129.53125","-47.8125"
"1537899045528","210","0.16699219","-0.9404297","-0.43359375","72.0","22.59375","-35.0"
"1537899045529","211","0.09277344","-0.86816406","0.111328125","65.34375","113.15625","-44.875"
"1537899045529","212","0.39160156","-1.2646484","0.044921875","17.1875","64.65625","-8.5625"
"1537899045529","213","0.42089844","-1.4355469","-0.13769531","2.65625","29.3125","-17.46875"
"1537899045728","214","0.3466797","-1.3378906","-0.20019531","-22.96875","-2.3125","17.125"
"1537899045728","215","0.34277344","-1.4726562","0.06347656","-178.96875","-16.21875","73.84375"
"1537899045728","216","0.08203125","-1.0878906","0.42578125","-218.71875","-94.40625","80.6875"
"1537899045729","217","0.4248047","-1.7304688","-0.22949219","-177.59375","-31.375","109.59375"
"1537899045729","218","0.546875","-1.3300781","-0.29589844","-235.5625","-279.21875","-24.96875"
"1537899045925","219","-0.053710938","-0.9472656","0.07324219","-212.78125","-232.84375","75.4375"
"1537899045925","220","0.017578125","-0.47753906","0.1875","-170.0","-200.25","42.03125"
"1537899045926","221","0.064453125","-0.09472656","-0.11230469","-89.6875","-107.0625","46.4375"
"1537899045926","222","0.052734375","-0.24609375","0.109375","-19.8125","-132.25","9.1875"
"1537899045926","223","-0.06738281","-0.29101562","-0.08203125","34.46875","0.5625","-35.125"
"1537899046126","224","-0.36816406","-0.50097656","-0.5449219","99.9375","81.4375","-68.625"
"1537899046126","225","-0.7578125","-1.7724609","-0.7402344","99.53125","81.90625","-24.90625"
"1537899046126","226","-0.6113281","-1.2490234","-0.74902344","-55.75","-81.46875","20.1875"
"1537899046126","227","-0.4453125","-0.3515625","-0.19140625","-104.03125","10.5","12.5"
"1537899046126","228","0.13085938","-1.9960938","-1.1240234","37.75","-69.5625","24.46875"
"1537899046322","229","-0.087890625","-0.58984375","0.7324219","122.09375","1.59375","-144.90625"
"1537899046322","230","-0.2607422","-0.578125","-0.3466797","-43.84375","168.59375","18.46875"
"1537899046323","231","1.1904297","-1.5185547","0.27148438","223.375","225.90625","-94.0625"
"1537899046324","232","-0.0625","-0.7841797","0.19726562","137.3125","39.6875","-67.46875"
"1537899046324","233","0.2685547","-0.93847656","0.26367188","153.96875","54.9375","-46.78125"
"1537899046522","234","-0.19628906","-0.8251953","-0.5253906","81.8125","90.78125","-90.90625"
"1537899046522","235","-0.1015625","-0.7871094","-0.064453125","69.75","174.25","-32.84375"
"1537899046522","236","0.41503906","-0.7216797","0.40039062","38.84375","139.78125","-47.6875"
"1537899046523","237","0.056640625","-0.8535156","-0.3125","72.375","28.75","-41.40625"
"1537899046524","238","0.20117188","-1.109375","-0.009765625","42.09375","73.4375","-27.46875"
"1537899046722","239","0.52734375","-1.3642578","-0.0048828125","-1.25","55.0625","-11.0"
"1537899046723","240","-0.044921875","-1.1425781","-0.27441406","-3.3125","51.21875","-19.375"
"1537899046723","241","0.46972656","-1.9472656","-0.28222656","-61.0","32.28125","63.46875"
"1537899046723","242","0.0","-1.3330078","0.1484375","-194.90625","-28.3125","71.03125"
"1537899046920","243","-0.22265625","-1.4042969","0.051757812","-212.4375","-55.71875","87.5625"
"1537899046920","244","-0.17382812","-1.4091797","0.8720703","-185.6875","154.59375","66.6875"
"1537899046920","245","0.22753906","-1.1181641","-0.07324219","-208.40625","-190.4375","25.625"
"1537899046920","246","-0.08203125","-0.84375","0.06738281","-183.625","-116.03125","59.6875"
"1537899046920","247","0.1328125","-0.49316406","0.09375","-144.3125","-148.0625","30.1875"
"1537899046922","248","0.13183594","-0.13964844","0.0107421875","-77.71875","-142.9375","27.9375"
"1537899047120","249","-0.028320312","-0.23144531","-0.10449219","-3.5","-75.1875","-6.71875"
"1537899047120","250","-0.16503906","-0.3857422","-0.34765625","47.15625","60.25","-60.6875"
"1537899047120","251","-0.6171875","-0.7890625","-1.0917969","80.90625","224.6875","-111.40625"
"1537899047120","252","-0.35058594","-1.8681641","-0.640625","98.65625","-115.34375","3.34375"
"1537899047317","253","-0.44335938","-1.4433594","-0.87597656","-34.03125","-66.875","20.125"
"1537899047317","254","-0.5830078","-1.3896484","-0.33007812","-47.15625","-54.6875","24.71875"
"1537899047317","255","0.8310547","-1.9960938","0.06347656","-62.34375","-7.1875","14.875"
"1537899047317","256","-0.4482422","0.5175781","1.5673828","187.84375","244.625","-88.625"
"1537899047318","257","0.3095703","-1.6816406","-1.3203125","56.25","14.03125","-40.25"
"1537899047515","258","0.71777344","-0.59472656","0.7128906","246.875","176.28125","-87.96875"
"1537899047516","259","-0.10644531","-0.5576172","-0.3671875","127.84375","31.875","-67.8125"
"1537899047516","260","0.053710938","-1.0400391","-0.15625","134.0","48.90625","-52.03125"
"1537899047516","261","-0.19042969","-0.7792969","-0.2109375","68.03125","164.0625","-54.59375"
"1537899047517","262","0.40722656","-0.85839844","0.36816406","53.8125","175.59375","-47.8125"
"1537899047715","263","0.19433594","-0.8652344","0.017578125","62.78125","55.25","-41.34375"
"1537899047716","264","-0.009765625","-0.94921875","-0.3232422","50.8125","64.34375","-35.96875"
"1537899047716","265","0.37304688","-1.2236328","0.10253906","-0.03125","92.28125","-9.90625"
"1537899047716","266","0.41015625","-1.4619141","-0.265625","-29.875","35.46875","-15.40625"
"1537899047716","267","0.27148438","-1.8076172","-0.28222656","-72.96875","12.65625","54.4375"
"1537899047912","268","0.09472656","-1.4765625","0.17773438","-233.65625","-16.40625","79.5"
"1537899047913","269","-0.34277344","-1.3085938","0.24511719","-188.8125","-67.0625","91.84375"
"1537899047913","270","0.46191406","-1.9960938","1.3066406","-91.09375","-3.96875","74.3125"
"1537899047914","271","0.3779297","-1.1367188","0.23046875","-164.6875","-172.90625","17.5"
"1537899047914","272","-0.052734375","-0.5175781","-0.0078125","-156.8125","-152.46875","49.78125"
"1537899048114","273","0.171875","-0.37695312","0.13085938","-115.875","-154.84375","47.21875"
"1537899048114","274","0.052734375","-0.2578125","-0.037109375","-59.34375","-100.40625","38.5625"
"1537899048114","275","-0.05859375","-0.2919922","-0.18652344","-7.03125","5.4375","-6.25"
"1537899048114","276","-0.07324219","-0.28808594","-0.41503906","81.15625","102.0625","-72.71875"
"1537899048115","277","-0.5253906","-0.8173828","-0.9667969","93.78125","213.625","-93.65625"
"1537899048310","278","-0.029296875","-1.9960938","-0.8964844","55.5625","-217.40625","41.0"
"1537899048311","279","-0.71777344","-0.83203125","-0.49804688","-108.0625","-62.8125","25.9375"
"1537899048311","280","-0.26953125","-1.5253906","-1.0898438","11.75","-120.0","23.53125"
"1537899048311","281","0.578125","-1.5517578","0.8359375","50.625","-63.21875","-50.1875"
"1537899048312","282","-0.9189453","-0.061523438","0.45507812","98.0625","353.875","-6.0625"
"1537899048509","283","1.0253906","-1.9960938","-0.46289062","172.03125","111.03125","-84.1875"
"1537899048509","284","-0.11230469","-0.59472656","0.3251953","190.84375","61.34375","-63.90625"
"1537899048509","285","-0.109375","-0.5996094","-0.2607422","125.09375","50.65625","-44.75"
"1537899048510","286","0.13378906","-1.1503906","-0.14355469","120.75","70.0625","-69.71875"
"1537899048511","287","-0.17089844","-0.67089844","-0.14257812","42.75","140.875","-47.0625"
"1537899048709","288","0.4140625","-0.9111328","0.5371094","56.96875","149.53125","-42.4375"
"1537899048710","289","0.111328125","-0.8173828","-0.24316406","72.59375","17.53125","-28.40625"
"1537899048710","290","0.21582031","-1.0107422","-0.22070312","59.84375","56.09375","-34.25"
"1537899048710","291","0.28222656","-1.2304688","0.22265625","4.0625","52.75","-7.09375"
"1537899048711","292","0.22558594","-1.4160156","-0.22070312","-21.5625","20.6875","-9.53125"
"1537899048906","293","0.22558594","-1.84375","-0.15332031","-61.71875","23.375","49.53125"
"1537899048907","294","0.13671875","-1.4003906","0.109375","-217.625","-47.46875","80.125"
"1537899048907","295","0.23925781","-1.0751953","-0.24121094","-203.34375","-213.5625","94.71875"
"1537899048908","296","0.30664062","-1.9960938","1.1328125","-96.34375","112.96875","89.28125"
"1537899048908","297","0.17773438","-1.0771484","-0.020507812","-163.40625","-249.8125","-11.71875"
"1537899049106","298","-0.00390625","-0.77441406","0.051757812","-169.8125","-194.6875","44.1875"
"1537899049107","299","0.14453125","-0.30664062","0.009765625","-131.3125","-179.875","28.78125"
"1537899049307","300","-0.01171875","-0.18554688","0.087890625","-43.59375","-115.46875","32.53125"
"1537899049307","301","-0.041992188","-0.27148438","-0.01953125","3.875","-55.71875","-7.15625"
"1537899049308","302","-0.23339844","-0.35546875","-0.32910156","74.875","36.8125","-33.71875"
"1537899049308","303","-0.47265625","-0.9423828","-0.68066406","68.5625","99.5","-61.0"
"1537899049308","304","-0.30664062","-1.9960938","-0.9589844","2.09375","-56.9375","17.8125"
"1537899049308","305","-0.55566406","-0.6953125","-0.88671875","-87.25","-129.6875","25.5625"
"1537899049308","306","-0.26757812","-0.9892578","-0.42285156","-0.03125","-15.6875","-24.125"
"1537899049309","307","0.625","-1.9960938","0.68847656","45.9375","-58.9375","-13.75"
"1537899049503","308","-1.2871094","0.22851562","0.7324219","53.5625","310.84375","0.96875"
"1537899049503","309","1.1611328","-1.671875","-0.87597656","117.46875","-41.375","-73.625"
"1537899049503","310","0.3828125","-0.83984375","0.32128906","225.5625","148.375","-77.21875"
"1537899049504","311","-0.47070312","-0.6894531","-0.2578125","123.5","4.28125","-75.46875"
"1537899049505","312","-0.13476562","-0.8808594","0.08105469","87.0625","24.53125","-81.8125"
"1537899049701","313","-0.080078125","-0.62890625","0.171875","66.25","236.9375","-68.9375"
"1537899049702","314","0.37402344","-0.8183594","0.5126953","48.8125","87.59375","-34.8125"
"1537899049703","315","0.32128906","-1.0458984","-0.3232422","73.65625","49.03125","-34.4375"
"1537899049704","316","0.053710938","-0.8457031","0.1328125","68.28125","105.28125","-52.1875"
"1537899049704","317","0.47265625","-1.3378906","0.0068359375","8.09375","78.4375","-1.0625"
"1537899049900","318","0.24511719","-1.4697266","-0.12792969","-9.5625","-1.9375","-14.40625"
"1537899049901","319","0.28320312","-1.6591797","-0.32226562","-40.90625","5.1875","40.09375"
"1537899049901","320","0.21875","-1.4443359","0.34765625","-211.875","-31.125","79.09375"
"1537899049901","321","0.5830078","-1.265625","-0.13378906","-202.84375","-180.40625","75.125"
"1537899049901","322","0.6044922","-1.9960938","2.1728516","-36.46875","-62.4375","56.6875"
"1537899050100","323","0.20214844","-1.2880859","0.56933594","-137.71875","-310.65625","-3.75"
"1537899050101","324","-0.078125","-0.64941406","-0.1484375","-161.28125","-200.375","85.5625"
"1537899050101","325","0.19335938","-0.5908203","0.07910156","-142.90625","-145.125","52.90625"
"1537899050101","326","0.08886719","-0.36816406","0.18652344","-98.46875","-131.09375","13.59375"
"1537899050101","327","0.10839844","-0.16992188","0.123046875","-55.9375","-120.0625","-31.5"
"1537899050297","328","-0.2998047","-0.08984375","-0.2890625","75.40625","-21.40625","-60.6875"
"1537899050298","329","-0.5292969","-0.8798828","-0.68066406","135.65625","74.03125","-86.25"
"1537899050298","330","-0.36328125","-1.9960938","-0.75","95.375","0.3125","25.9375"
"1537899050298","331","-0.84375","-0.37695312","-0.63671875","-159.875","-64.03125","47.15625"
"1537899050299","332","0.25","-1.3574219","-0.54003906","-1.84375","61.71875","5.28125"
"1537899050496","333","1.1689453","-1.9082031","0.7109375","128.21875","-142.6875","-85.53125"
"1537899050497","334","-1.0810547","-0.06542969","0.3017578","8.59375","294.875","-7.65625"
"1537899050498","335","1.1953125","-1.9130859","-0.09667969","194.90625","133.84375","-83.09375"
"1537899050498","336","0.17773438","-0.7636719","0.46972656","169.09375","4.40625","-48.78125"
"1537899050499","337","-0.040039062","-0.8232422","-0.109375","142.0","29.5","-58.375"
"1537899050697","338","-0.076171875","-0.9550781","0.3857422","130.15625","82.59375","-98.84375"
"1537899050697","339","-0.203125","-0.8300781","0.078125","49.59375","198.0","-30.84375"
"1537899050697","340","0.36132812","-0.734375","0.23046875","37.25","80.375","-38.46875"
"1537899050698","341","0.20410156","-1.0986328","-0.3564453","80.21875","46.40625","-41.9375"
"1537899050698","342","0.0859375","-0.84277344","-0.0068359375","48.375","71.28125","-36.15625"
"1537899050894","343","0.5673828","-1.28125","0.28320312","6.6875","54.34375","-3.96875"
"1537899050895","344","0.22265625","-1.3828125","-0.234375","2.09375","4.21875","-36.15625"
"1537899050895","345","0.24609375","-1.8632812","-0.08984375","-39.9375","15.9375","41.5"
"1537899050895","346","-0.030273438","-1.34375","0.09082031","-198.40625","-31.65625","63.03125"
"1537899051094","347","0.1171875","-1.2119141","0.2529297","-199.0","-88.1875","82.0625"
"1537899051095","348","0.13769531","-1.6494141","0.7890625","-174.71875","128.59375","62.4375"
"1537899051095","349","0.37597656","-1.0078125","-0.18359375","-208.71875","-207.875","-31.75"
"1537899051096","350","-0.048828125","-0.7548828","0.040039062","-184.09375","-248.71875","41.625"
"1537899051097","351","0.037109375","-0.28027344","0.07324219","-135.53125","-195.0","20.375"
"1537899051097","352","0.009765625","-0.13769531","-0.029296875","-43.1875","-121.40625","36.46875"
"1537899051291","353","-0.076171875","-0.27539062","-0.029296875","14.1875","-61.21875","6.5"
"1537899051293","354","-0.045898438","-0.3798828","-0.06542969","64.71875","36.875","-48.1875"
"1537899051293","355","-0.40527344","-0.66015625","-0.7910156","151.15625","135.4375","-109.9375"
"1537899051293","356","0.028320312","-1.9960938","-1.0244141","-93.15625","-38.4375","35.9375"
"1537899051293","357","-0.70410156","-0.76953125","-0.59277344","-60.4375","-90.8125","29.59375"
"1537899051490","358","-0.43164062","-0.9580078","-0.640625","1.125","39.3125","-21.25"
"1537899051491","359","1.3310547","-1.9960938","0.64941406","85.375","-52.46875","-11.125"
"1537899051491","360","-0.7158203","0.040039062","0.54296875","4.375","222.40625","-28.03125"
"1537899051492","361","1.109375","-1.7578125","-0.55566406","187.40625","96.5","-75.15625"
"1537899051492","362","-0.0625","-1.0175781","0.5800781","204.125","109.03125","-67.03125"
"1537899051692","363","-0.109375","-0.6796875","-0.0078125","143.59375","36.5","-47.875"
"1537899051692","364","0.16015625","-0.77734375","-0.28027344","102.8125","146.84375","-110.0625"
"1537899051692","365","0.029296875","-0.7529297","0.34472656","56.4375","207.65625","-36.8125"
"1537899051692","366","0.37890625","-0.78125","0.31152344","60.46875","82.90625","-28.75"
"1537899051692","367","0.13964844","-1.1416016","-0.38671875","90.625","56.34375","-38.71875"
"1537899051888","368","0.046875","-1.0703125","-0.07421875","57.15625","50.71875","-28.21875"
"1537899051889","369","0.68652344","-1.2822266","0.119140625","-6.5625","81.375","-3.8125"
"1537899051889","370","0.2607422","-1.2988281","-0.24902344","-21.375","-1.75","-22.78125"
"1537899051889","371","0.49316406","-1.6972656","-0.03515625","-130.65625","-12.03125","51.3125"
"1537899051889","372","-0.36914062","-1.1445312","0.6455078","-217.5","-22.09375","56.0625"
"1537899052087","373","-0.22460938","-1.3964844","0.034179688","-152.375","-87.59375","108.4375"
"1537899052088","374","0.8876953","-1.9960938","0.640625","-281.21875","-222.03125","-47.375"
"1537899052088","375","0.29296875","-1.1904297","0.37597656","-231.71875","-220.625","57.25"
"1537899052088","376","0.11425781","-0.48046875","0.20117188","-168.71875","-184.625","43.125"
"1537899052288","377","0.0859375","-0.016601562","-0.026367188","-113.1875","-133.21875","46.75"
"1537899052288","378","-0.043945312","-0.109375","0.055664062","-38.0","-109.0625","37.15625"
"1537899052288","379","0.0029296875","-0.14550781","-0.11230469","64.78125","-20.4375","-31.21875"
"1537899052288","380","-0.30371094","-0.39453125","-0.42089844","150.5","84.28125","-89.625"
"1537899052288","381","-0.89941406","-1.7675781","-0.8496094","59.0","119.09375","-40.125"
"1537899052484","382","-0.43066406","-1.3720703","-0.6455078","-55.5","-142.8125","54.3125"
"1537899052484","383","-0.81933594","-0.49902344","-0.67578125","-92.4375","-21.34375","-5.9375"
"1537899052484","384","0.89746094","-1.9960938","-0.90722656","-76.9375","-52.46875","87.75"
"1537899052485","385","-0.60839844","1.2958984","1.125","175.03125","137.46875","-133.25"
"1537899052485","386","0.60546875","-1.9570312","-1.5126953","-23.09375","-74.46875","-33.9375"
"1537899052684","387","0.6777344","-0.6699219","0.8730469","277.125","181.28125","-98.28125"
"1537899052684","388","-0.5126953","-0.3642578","-0.4501953","115.28125","-41.9375","-65.8125"
"1537899052684","389","0.22265625","-1.1972656","0.43847656","167.6875","37.375","-30.96875"
"1537899052685","390","-0.2109375","-0.7861328","-0.16503906","66.375","128.65625","-64.21875"
"1537899052686","391","0.2607422","-0.8769531","0.21875","52.59375","198.75","-42.75"
"1537899052881","392","0.30273438","-0.8154297","0.19433594","69.125","26.8125","-32.59375"
"1537899052882","393","0.052734375","-0.91015625","-0.64160156","80.46875","30.78125","-55.5625"
"1537899052882","394","0.056640625","-1.0859375","0.041015625","37.4375","75.5625","-13.625"
"1537899052883","395","0.79296875","-1.4921875","0.05859375","12.78125","22.53125","-26.25"
"1537899052883","396","-0.49414062","-1.015625","-0.4560547","-2.84375","34.125","-19.4375"
"1537899053080","397","0.27148438","-1.9960938","-0.33496094","-83.40625","27.09375","91.84375"
"1537899053080","398","0.48339844","-1.1835938","0.7558594","-219.5625","-25.25","76.09375"
"1537899053081","399","-0.07519531","-1.6376953","-0.25683594","-209.0625","-36.4375","70.96875"
"1537899053082","400","0.078125","-1.9960938","1.8994141","133.8125","-326.09375","-1.53125"
"1537899053082","401","-0.080078125","-1.3515625","-0.0126953125","-234.34375","-182.125","58.75"
"1537899053281","402","0.12109375","-0.4970703","0.032226562","-208.09375","-214.59375","24.8125"
"1537899053282","403","0.31152344","-0.015625","0.15136719","-129.375","-183.84375","58.28125"
"1537899053282","404","0.051757812","-0.24414062","0.09375","-74.96875","-161.96875","54.375"
"1537899053282","405","-0.29003906","-0.2919922","-0.10644531","5.90625","-27.28125","-22.40625"
"1537899053282","406","-0.27734375","-0.43164062","-0.5527344","65.21875","116.34375","-83.6875"
"1537899053477","407","-0.59375","-0.9970703","-0.7246094","47.09375","160.78125","-28.875"
"1537899053478","408","-0.50097656","-1.6015625","-1.1806641","70.96875","-90.1875","19.09375"
"1537899053479","409","-0.59472656","-1.8232422","-0.8095703","-4.125","-72.0","1.28125"
"1537899053479","410","0.4189453","-1.8330078","0.0078125","-113.96875","-98.375","52.53125"
"1537899053479","411","-0.43066406","0.97558594","0.64941406","168.84375","217.59375","-83.03125"
"1537899053677","412","0.87597656","-1.9960938","-0.98828125","55.75","-42.84375","-19.375"
"1537899053677","413","0.3642578","-0.45214844","0.36523438","266.21875","171.09375","-100.0"
"1537899053677","414","-0.6591797","-0.453125","-0.4091797","77.0","17.875","-66.0625"
"1537899053677","415","0.49414062","-1.1269531","0.65722656","163.0625","13.375","-50.3125"
"1537899053678","416","-0.22460938","-0.82128906","-0.109375","64.5625","152.09375","-64.96875"
"1537899053875","417","0.18652344","-0.8691406","0.10546875","69.5625","200.15625","-39.375"
"1537899053875","418","0.30859375","-0.7011719","0.40527344","59.25","75.6875","-33.59375"
"1537899053876","419","0.13769531","-0.8671875","-0.4814453","67.1875","39.875","-47.125"
"1537899053876","420","0.25","-1.0","-0.03125","31.53125","79.34375","-13.4375"
"1537899053877","421","0.5888672","-1.5986328","0.16796875","0.53125","30.90625","-8.8125"
"1537899054076","422","0.2265625","-1.1308594","-0.26660156","5.40625","6.40625","-14.34375"
"1537899054076","423","0.23144531","-1.8261719","0.047851562","-96.71875","5.75","53.15625"
"1537899054076","424","-0.35839844","-0.9970703","0.32617188","-209.375","-15.3125","53.28125"
"1537899054076","425","-0.20214844","-1.4755859","0.033203125","-177.8125","-94.65625","117.21875"
"1537899054076","426","0.640625","-1.9960938","1.5820312","-114.03125","-85.875","26.09375"
"1537899054275","427","0.33789062","-1.0869141","-0.009765625","-192.53125","-187.8125","35.8125"
"1537899054275","428","0.01953125","-0.5732422","0.103515625","-146.8125","-205.125","36.46875"
"1537899054276","429","0.005859375","-0.19238281","0.013671875","-128.9375","-151.40625","36.59375"
"1537899054276","430","0.059570312","-0.22363281","0.037109375","-64.1875","-94.0625","25.125"
"1537899054276","431","-0.015625","-0.4111328","0.046875","0.71875","-88.5625","-28.34375"
"1537899054471","432","-0.26171875","-0.33984375","-0.3310547","74.3125","21.5625","-96.4375"
"1537899054472","433","-0.75","-0.80859375","-1.5292969","158.40625","248.84375","-115.4375"
"1537899054472","434","-0.24121094","-1.9960938","-0.4248047","77.3125","-155.21875","38.8125"
"1537899054473","435","-1.0625","-0.9794922","-0.3984375","-142.46875","-65.71875","9.75"
"1537899054474","436","0.44335938","-1.984375","-0.5341797","-74.84375","58.25","55.46875"
"1537899054672","437","-0.0126953125","0.34960938","0.41601562","137.125","7.6875","-82.21875"
"1537899054672","438","0.5595703","-1.2490234","-0.42871094","4.25","181.53125","-20.15625"
"1537899054672","439","0.9785156","-1.0097656","0.39453125","260.09375","191.59375","-103.34375"
"1537899054672","440","-0.38085938","-0.5126953","-0.07421875","197.96875","58.34375","-64.34375"
"1537899054672","441","0.095703125","-1.1279297","0.50097656","164.34375","5.3125","-31.15625"
"1537899054869","442","0.0078125","-1.0097656","-0.16113281","106.71875","135.125","-63.96875"
"1537899054869","443","0.1875","-0.91308594","0.2783203","38.1875","182.625","-43.78125"
"1537899054869","444","0.1953125","-0.8486328","0.0390625","68.6875","26.1875","-41.8125"
"1537899054870","445","0.10058594","-0.9326172","-0.2890625","63.6875","57.0","-59.46875"
"1537899054870","446","-0.001953125","-1.1083984","-0.18554688","33.40625","40.09375","-6.65625"
"1537899055067","447","0.74609375","-1.3505859","0.30273438","2.40625","50.0","-13.03125"
"1537899055068","448","-0.099609375","-1.1230469","-0.30273438","-11.75","29.25","-22.90625"
"1537899055068","449","0.3046875","-1.8359375","-0.16796875","-91.46875","31.75","73.84375"
"1537899055069","450","0.0126953125","-1.1757812","0.46191406","-240.09375","4.65625","77.1875"
"1537899055070","451","-0.16308594","-1.5410156","-0.28808594","-190.03125","-149.03125","83.84375"
"1537899055269","452","0.4091797","-1.9960938","1.7597656","40.875","-262.25","-29.0"
"1537899055269","453","0.06738281","-1.3076172","0.35351562","-210.15625","-214.34375","63.03125"
"1537899055269","454","-0.015625","-0.55078125","0.12695312","-156.9375","-213.1875","29.28125"
"1537899055269","455","0.15429688","-0.095703125","-0.022460938","-126.0625","-156.5625","51.0"
"1537899055269","456","0.08203125","-0.27734375","0.1328125","-58.125","-118.09375","53.5"
"1537899055468","457","-0.076171875","-0.40039062","-0.078125","42.5","-43.875","-26.4375"
"1537899055468","458","-0.4560547","-0.28125","-0.5048828","127.65625","86.0","-84.71875"
"1537899055468","459","-0.83496094","-1.1962891","-0.71875","63.8125","145.28125","-59.71875"
"1537899055468","460","-0.27246094","-1.9873047","-0.9580078","-27.75","-108.8125","45.8125"
"1537899055468","461","-0.79003906","-0.2919922","-0.58984375","-78.6875","-27.875","-8.8125"
"1537899055665","462","0.36523438","-1.9960938","-0.8232422","72.0","9.21875","17.625"
"1537899055666","463","-0.1796875","0.5214844","1.1484375","99.15625","-15.625","-113.78125"
"1537899055666","464","0.01171875","-0.36621094","-0.75683594","33.46875","121.15625","-59.9375"
"1537899055666","465","1.0273438","-1.4482422","0.69433594","236.375","279.25","-80.03125"
"1537899055666","466","-0.27148438","-0.6269531","-0.059570312","148.71875","-2.8125","-59.21875"
"1537899055862","467","0.12207031","-0.94433594","-0.037109375","96.78125","34.125","-49.46875"
"1537899055862","468","-0.103515625","-0.90234375","-0.08300781","26.84375","162.0","-59.34375"
"1537899055863","469","0.12695312","-0.8847656","0.22460938","60.28125","165.78125","-39.4375"
"1537899055863","470","0.37304688","-0.7939453","-0.0087890625","40.125","45.125","-29.0"
"1537899055864","471","0.19628906","-0.8457031","-0.24023438","71.625","52.875","-43.71875"
"1537899056063","472","0.18359375","-1.2216797","-0.123046875","43.125","50.125","-8.8125"
"1537899056063","473","0.6269531","-1.5117188","-0.017578125","-4.96875","31.25","-5.3125"
"1537899056260","474","-0.09082031","-0.9326172","-0.42089844","-24.8125","12.46875","3.84375"
"1537899056262","475","0.15136719","-1.6884766","-0.0078125","-150.46875","27.40625","85.0625"
"1537899056262","476","-0.2939453","-1.1933594","0.6220703","-208.15625","-85.625","86.34375"
"1537899056262","477","0.23730469","-1.9160156","-0.37597656","-212.84375","125.625","101.65625"
"1537899056263","478","0.4638672","-1.3955078","-0.8095703","-207.3125","-315.4375","-4.21875"
"1537899056263","479","-0.060546875","-1.0585938","0.31933594","-172.9375","-227.40625","36.375"
"1537899056264","480","-0.0087890625","-0.4716797","0.115234375","-127.78125","-194.21875","29.59375"
"1537899056265","481","0.18554688","-0.31640625","0.03125","-104.34375","-116.4375","48.5625"
"1537899056459","482","0.17089844","-0.3701172","0.12402344","-41.15625","-73.53125","8.21875"
"1537899056459","483","-0.06738281","-0.1875","-0.12695312","-5.28125","-44.71875","-59.59375"
"1537899056658","484","-0.31933594","-0.44140625","-0.6044922","64.125","47.25","-109.375"
"1537899056659","485","-0.70703125","-1.3710938","-0.6347656","39.53125","124.75","-70.3125"
"1537899056659","486","-0.6044922","-1.8476562","-0.8769531","44.53125","-111.1875","36.65625"
"1537899056659","487","-0.42285156","-0.4345703","-0.54003906","-88.40625","-35.5","-16.6875"
"1537899056660","488","0.36816406","-1.9960938","-1.2294922","69.125","-47.78125","-9.0"
"1537899056660","489","-0.14257812","0.14257812","1.6005859","-45.625","-101.125","-99.0"
"1537899056661","490","-1.1015625","0.4609375","0.37890625","99.21875","418.15625","22.3125"
"1537899056662","491","1.2636719","-1.9960938","-0.5966797","61.0625","46.40625","-89.0"
"1537899056857","492","-0.051757812","-0.49316406","0.32714844","203.9375","156.5625","-25.21875"
"1537899056858","493","-0.099609375","-0.8886719","-0.0625","121.0","-65.4375","-49.75"
"1537899056860","494","0.26367188","-1.1572266","0.11328125","146.875","167.625","-83.375"
"1537899056860","495","-0.15332031","-0.7783203","0.21875","40.1875","176.21875","-34.875"
"1537899056861","496","0.43945312","-0.7988281","0.5419922","66.9375","104.75","-30.71875"
"1537899057055","497","0.01953125","-0.7060547","-0.6191406","75.34375","39.9375","-42.5625"
"1537899057055","498","0.22851562","-1.2333984","0.19140625","39.21875","105.0625","-17.96875"
"1537899057056","499","0.5292969","-1.4755859","-0.22460938","-3.75","17.65625","-9.28125"
"1537899057057","500","0.048828125","-0.9169922","-0.22167969","-30.84375","35.96875","-2.15625"
"1537899057057","501","0.52246094","-1.5361328","0.12988281","-162.25","18.3125","75.90625"
"1537899057255","502","0.005859375","-1.2382812","0.4296875","-214.4375","-86.34375","78.40625"
"1537899057258","503","0.14453125","-1.9755859","-0.111328125","-197.125","97.65625","98.0625"
"1537899057258","504","0.4970703","-1.7822266","0.6142578","-160.78125","-460.125","-28.53125"
"1537899057258","505","-0.06347656","-1.1005859","0.21679688","-215.0625","-232.15625","49.65625"
"1537899057453","506","-0.025390625","-0.39648438","0.15917969","-148.40625","-194.5","29.53125"
"1537899057454","507","0.10449219","-0.029296875","-0.020507812","-108.71875","-157.40625","41.71875"
"1537899057454","508","0.0703125","-0.22949219","0.11035156","-35.0625","-92.40625","36.3125"
"1537899057455","509","-0.01171875","-0.32421875","0.0234375","44.78125","-43.8125","-29.75"
"1537899057455","510","-0.32714844","-0.33984375","-0.5205078","126.5","55.96875","-88.03125"
"1537899057653","511","-0.89941406","-1.6191406","-1.4296875","81.21875","191.0625","-44.625"
"1537899057654","512","-0.42285156","-1.5761719","-0.51464844","-3.375","-196.03125","54.78125"
"1537899057654","513","-0.77441406","-0.8955078","-0.30859375","-40.90625","-15.4375","3.34375"
"1537899057654","514","0.734375","-1.9960938","-0.73046875","-107.75","-47.34375","80.25"
"1537899057654","515","-0.4638672","1.2861328","1.2128906","160.96875","119.34375","-132.875"
"1537899057852","516","0.66796875","-1.8349609","-1.4882812","-37.4375","-70.90625","-8.0"
"1537899057852","517","0.7919922","-0.67871094","0.65625","264.8125","173.46875","-108.78125"
"1537899057852","518","-0.6308594","-0.5800781","-0.36035156","100.4375","3.4375","-77.03125"
"1537899057853","519","0.057617188","-1.0566406","0.11816406","119.0","35.28125","-52.3125"
"1537899057853","520","-0.1171875","-0.7285156","-0.08203125","79.625","149.375","-68.5625"
"1537899058049","521","0.22558594","-0.81347656","0.19042969","71.5625","188.59375","-41.875"
"1537899058049","522","0.36328125","-0.89160156","0.16699219","69.8125","47.75","-31.21875"
"1537899058049","523","0.12597656","-0.86035156","-0.55566406","77.0","55.1875","-54.15625"
"1537899058050","524","0.140625","-1.0957031","0.10546875","32.375","62.6875","-16.96875"
"1537899058051","525","0.7060547","-1.5898438","-0.01953125","-5.40625","24.0625","-8.875"
"1537899058249","526","0.20214844","-1.2304688","-0.2529297","0.40625","8.0625","-7.78125"
"1537899058249","527","0.40820312","-1.8183594","0.005859375","-129.40625","15.15625","58.46875"
"1537899058250","528","-0.31933594","-0.87597656","0.54589844","-211.4375","-33.625","70.1875"
"1537899058250","529","-0.0703125","-1.5722656","-0.041015625","-152.6875","-71.09375","113.6875"
"1537899058250","530","0.51171875","-1.9960938","1.1582031","-154.8125","-232.125","-0.5"
"1537899058447","531","0.20898438","-1.0205078","0.038085938","-199.1875","-210.875","59.8125"
"1537899058447","532","0.12890625","-0.47753906","0.18554688","-141.875","-179.5","41.0"
"1537899058447","533","0.08300781","-0.19238281","-0.0107421875","-124.0","-103.21875","43.75"
"1537899058447","534","0.083984375","-0.28125","0.060546875","-51.90625","-72.9375","10.53125"
"1537899058448","535","-0.022460938","-0.34960938","0.026367188","28.96875","-82.6875","-55.625"
"1537899058645","536","-0.4140625","-0.265625","-0.73828125","147.0625","68.5","-115.96875"
"1537899058645","537","-0.86328125","-1.6923828","-0.9814453","-24.3125","139.78125","-48.65625"
"1537899058646","538","-0.453125","-1.3916016","-0.5019531","-1.84375","-173.53125","67.375"
"1537899058646","539","-0.78027344","-0.5761719","-0.57421875","-60.5625","12.28125","-31.03125"
"1537899058647","540","0.6142578","-1.9960938","-1.0283203","-19.25","-3.71875","49.25"
"1537899058844","541","-0.26367188","1.1308594","1.3457031","185.6875","-41.0","-130.375"
"1537899058844","542","0.08496094","-1.0507812","-1.1708984","-50.6875","135.9375","-1.65625"
"1537899058845","543","1.5322266","-1.2138672","0.9433594","285.0","274.125","-117.375"
"1537899058845","544","-0.40625","-0.58691406","-0.20703125","140.53125","-8.0625","-61.90625"
"1537899058846","545","0.11621094","-1.0527344","-0.080078125","112.09375","28.9375","-35.0625"
"1537899059042","546","-0.020507812","-0.8730469","0.11328125","81.40625","158.03125","-66.59375"
"1537899059042","547","0.24023438","-0.8613281","0.17480469","41.84375","147.90625","-30.15625"
"1537899059043","548","0.3125","-0.8027344","0.056640625","49.90625","44.1875","-34.0"
"1537899059044","549","0.140625","-0.95214844","-0.39257812","76.8125","47.375","-58.84375"
"1537899059044","550","-0.09472656","-1.0566406","-0.06738281","44.03125","29.96875","-14.59375"
"1537899059243","551","0.8574219","-1.4199219","0.22558594","4.90625","61.78125","-4.65625"
"1537899059243","552","0.044921875","-1.0117188","-0.24707031","0.65625","12.875","-24.96875"
"1537899059243","553","0.3955078","-1.6611328","-0.087890625","-92.1875","25.9375","53.75"
"1537899059245","554","-0.28027344","-1.0839844","0.375","-205.90625","-9.09375","58.53125"
"1537899059245","555","-0.025390625","-1.2705078","0.11328125","-174.71875","-114.875","101.125"
"1537899059440","556","0.296875","-1.9960938","0.9638672","-100.78125","-47.71875","70.46875"
"1537899059441","557","0.36132812","-1.1171875","0.0390625","-194.59375","-229.78125","37.46875"
"1537899059441","558","0.13476562","-0.6611328","0.053710938","-149.4375","-188.96875","38.875"
"1537899059441","559","0.10253906","-0.16015625","0.009765625","-134.375","-147.5625","40.15625"
"1537899059442","560","0.026367188","-0.18652344","0.038085938","-64.71875","-90.625","39.84375"
"1537899059641","561","-0.06347656","-0.41796875","-0.059570312","25.53125","-72.375","-18.875"
"1537899059641","562","-0.38183594","-0.33691406","-0.48535156","88.71875","77.46875","-79.46875"
"1537899059641","563","-0.41992188","-0.86816406","-0.92578125","38.5","179.6875","-99.375"
"1537899059641","564","-0.087890625","-1.9960938","-1.1181641","8.6875","-104.3125","29.40625"
"1537899059642","565","-0.58496094","-0.63964844","-0.9394531","-69.84375","-109.5","7.375"
"1537899059837","566","-0.10546875","-1.1171875","-0.55371094","40.5625","-6.03125","-30.78125"
"1537899059838","567","0.9472656","-1.9960938","0.38476562","34.28125","-27.46875","-41.09375"
"1537899059838","568","-0.8847656","0.5761719","0.62890625","136.5625","225.09375","-24.5"
"1537899059838","569","0.6191406","-1.9433594","-0.82128906","86.34375","67.28125","-63.5"
"1537899059839","570","0.7529297","-0.43164062","0.66796875","211.875","152.71875","-69.03125"
"1537899060035","571","-0.46679688","-0.41308594","-0.30664062","72.25","6.46875","-53.46875"
"1537899060037","572","0.32421875","-1.21875","-0.21386719","142.125","82.15625","-67.75"
"1537899060037","573","-0.16308594","-0.6503906","-0.06347656","-4.40625","136.40625","-51.53125"
"1537899060037","574","0.30078125","-0.828125","0.48828125","45.0625","84.71875","-30.71875"
"1537899060038","575","0.29589844","-0.96484375","-0.16503906","76.8125","55.5","-40.1875"
"1537899060237","576","-0.00390625","-0.7402344","-0.06933594","61.8125","52.8125","-33.46875"
"1537899060239","577","0.35546875","-1.2421875","0.14355469","1.625","95.96875","-4.15625"
"1537899060239","578","0.34765625","-1.4443359","-0.25878906","-3.9375","30.78125","-19.1875"
"1537899060239","579","0.09472656","-1.3144531","-0.32128906","-30.90625","20.75","27.8125"
"1537899060239","580","0.38964844","-1.4746094","0.09863281","-188.9375","9.46875","75.125"
"1537899060434","581","0.048828125","-1.1201172","0.4423828","-221.53125","-70.96875","62.78125"
"1537899060434","582","0.115234375","-1.8515625","-0.16113281","-155.71875","-42.59375","111.375"
"1537899060435","583","0.5878906","-1.2236328","-0.15917969","-216.15625","-232.46875","-8.1875"
"1537899060435","584","0.13964844","-0.84765625","0.03125","-180.5","-229.375","48.5625"
"1537899060435","585","0.041992188","-0.32714844","0.18359375","-137.53125","-187.625","35.375"
"1537899060633","586","0.078125","-0.16308594","-0.021484375","-79.75","-85.875","49.375"
"1537899060633","587","0.06640625","-0.27734375","0.15722656","-24.8125","-81.28125","12.6875"
"1537899060633","588","-0.068359375","-0.20605469","-0.09082031","40.5625","-7.75","-49.6875"
"1537899060634","589","-0.3232422","-0.375","-0.8076172","150.4375","131.28125","-96.21875"
"1537899060635","590","-0.4794922","-1.9960938","-1.0625","18.59375","2.75","10.71875"
"1537899060833","591","-0.79589844","-0.7578125","-0.6074219","-102.8125","-120.46875","35.15625"
"1537899060833","592","-0.36816406","-0.78808594","-0.44433594","-26.21875","15.6875","-12.96875"
"1537899061030","593","0.90234375","-1.9960938","-0.3623047","-35.4375","-38.9375","30.25"
"1537899061030","594","-0.71972656","0.6669922","1.2626953","182.21875","209.84375","-85.15625"
"1537899061031","595","0.7060547","-1.6015625","-1.4238281","42.09375","-106.25","-60.375"
"1537899061031","596","0.57421875","-0.6621094","0.7392578","267.25","201.71875","-91.8125"
"1537899061031","597","-0.43847656","-0.4609375","-0.2109375","64.3125","5.0625","-55.25"
"1537899061033","598","0.10449219","-1.3164062","-0.017578125","93.46875","66.84375","-56.09375"
"1537899061033","599","-0.16796875","-0.6660156","-0.0234375","1.3125","190.625","-55.875"
"1537899061034","600","0.42578125","-0.8300781","0.42089844","43.0625","125.625","-32.84375"
"1537899061229","601","0.35351562","-0.9765625","-0.27246094","70.21875","58.28125","-47.875"
"1537899061229","602","-0.025390625","-0.7294922","0.06347656","67.96875","74.53125","-45.4375"
"1537899061229","603","0.5546875","-1.3085938","0.05078125","8.46875","85.09375","4.25"
"1537899061230","604","0.28710938","-1.5224609","-0.115234375","-4.84375","11.25","-27.96875"
"1537899061230","605","0.27148438","-1.6923828","-0.23632812","-29.1875","12.21875","21.34375"
"1537899061427","606","0.40039062","-1.7070312","0.013671875","-200.59375","-1.9375","68.15625"
"1537899061427","607","-0.23242188","-0.87402344","0.453125","-225.96875","-73.40625","76.71875"
"1537899061427","608","0.16796875","-1.8261719","-0.32910156","-182.21875","-71.59375","129.4375"
"1537899061428","609","0.6894531","-1.2490234","-0.09667969","-249.84375","-237.34375","-7.09375"
"1537899061628","610","0.24023438","-0.83691406","0.119140625","-195.875","-237.96875","43.375"
"1537899061630","611","-0.047851562","-0.25","0.13085938","-156.46875","-186.9375","35.875"
"1537899061630","612","-0.0146484375","-0.005859375","-0.048828125","-89.125","-114.75","41.96875"
"1537899061631","613","-0.038085938","-0.21582031","-0.049804688","-9.65625","-85.375","9.25"
"1537899061631","614","-0.09375","-0.3173828","-0.14941406","57.53125","2.03125","-57.28125"
"1537899061631","615","-0.43652344","-0.57910156","-0.74902344","115.4375","129.71875","-110.3125"
"1537899061824","616","-0.10449219","-1.9960938","-1.0029297","8.28125","-12.03125","36.84375"
"1537899061824","617","-0.71972656","-1.0126953","-0.5595703","-55.625","-50.59375","13.90625"
"1537899061826","618","-0.5185547","-0.84472656","-0.3720703","-9.125","8.625","-13.375"
"1537899061826","619","0.8486328","-1.9960938","-0.17578125","-34.75","-65.0","16.03125"
"1537899061826","620","-0.6357422","0.32421875","1.1953125","170.0625","187.5625","-99.0"
"1537899062024","621","0.5253906","-1.125","-0.9111328","32.625","-23.4375","-47.3125"
"1537899062024","622","0.6738281","-0.97753906","0.46191406","239.78125","216.125","-84.65625"
"1537899062024","623","-0.4873047","-0.6660156","-0.17773438","129.6875","19.90625","-54.09375"
"1537899062025","624","0.13476562","-1.1191406","0.15332031","62.59375","-2.5","-47.6875"
"1537899062026","625","-0.045898438","-0.7753906","-0.037109375","58.375","156.375","-73.5625"
"1537899062223","626","0.31640625","-0.8652344","0.60253906","58.5","160.21875","-40.3125"
"1537899062223","627","0.3310547","-0.9248047","-0.09277344","67.125","43.34375","-34.8125"
"1537899062223","628","0.038085938","-0.93847656","-0.30078125","74.8125","93.28125","-69.0"
"1537899062224","629","-0.09765625","-1.1796875","-0.49316406","44.28125","28.6875","-14.59375"
"1537899062422","630","0.8173828","-1.3037109","0.26757812","-2.78125","46.5625","-7.28125"
"1537899062422","631","0.25878906","-1.2460938","-0.21484375","-4.125","9.84375","-21.375"
"1537899062422","632","0.28808594","-1.7021484","0.0","-105.625","-12.9375","49.3125"
"1537899062422","633","-0.31152344","-0.8417969","0.35058594","-198.21875","-37.90625","68.40625"
"1537899062423","634","0.036132812","-1.3837891","-0.10839844","-170.5","-89.96875","116.1875"
"1537899062622","635","0.46289062","-1.9960938","1.1767578","-94.09375","-145.125","9.5"
"1537899062622","636","0.18945312","-1.1933594","0.19433594","-171.84375","-246.28125","53.28125"
"1537899062622","637","0.13574219","-0.734375","0.0107421875","-150.28125","-165.53125","43.75"
"1537899062622","638","0.12402344","-0.19140625","-0.016601562","-116.375","-128.21875","41.3125"
"1537899062622","639","0.036132812","-0.14648438","0.0087890625","-41.59375","-70.125","21.84375"
"1537899062819","640","0.001953125","-0.19335938","0.044921875","28.0625","-78.1875","-35.59375"
"1537899062819","641","-0.29785156","-0.35058594","-0.30664062","98.0","1.71875","-79.59375"
"1537899062819","642","-0.65234375","-1.4482422","-0.9404297","81.8125","132.34375","-72.09375"
"1537899062820","643","-0.4345703","-1.9257812","-0.66796875","-0.6875","-110.40625","56.0"
"1537899062820","644","-0.6621094","-0.21679688","-0.54785156","-112.09375","-56.4375","-8.4375"
"1537899063017","645","0.16796875","-1.9960938","-0.89453125","31.34375","3.78125","33.375"
"1537899063018","646","0.14746094","-0.22460938","0.79003906","142.25","-81.15625","-118.4375"
"1537899063018","647","-0.47460938","-0.2783203","-0.2705078","22.5","204.0","-21.125"
"1537899063018","648","1.7832031","-1.796875","0.47753906","207.375","200.25","-97.78125"
"1537899063019","649","-0.3388672","-0.6582031","0.041015625","177.09375","30.28125","-58.375"
"1537899063216","650","0.09667969","-1.0234375","0.38964844","149.625","20.21875","-36.625"
"1537899063216","651","0.005859375","-0.9277344","0.0048828125","124.84375","147.90625","-95.90625"
"1537899063217","652","0.0078125","-0.7832031","0.23925781","33.1875","181.84375","-41.03125"
"1537899063217","653","0.44140625","-0.81152344","0.10058594","54.65625","55.84375","-35.96875"
"1537899063218","654","0.28710938","-1.0634766","-0.35546875","81.53125","66.65625","-60.875"
"1537899063416","655","-0.18554688","-0.984375","-0.048828125","47.65625","28.9375","-24.90625"
"1537899063416","656","0.9091797","-1.2929688","0.25390625","-9.84375","75.4375","-1.65625"
"1537899063416","657","-0.034179688","-1.3037109","-0.32617188","-9.84375","11.3125","-26.375"
"1537899063416","658","0.3623047","-1.7626953","-0.2783203","-95.125","13.9375","69.875"
"1537899063417","659","-0.11328125","-1.2001953","0.38964844","-229.34375","-20.8125","65.84375"
"1537899063615","660","-0.048828125","-1.3242188","-0.045898438","-168.59375","-165.71875","100.625"
"1537899063616","661","0.6816406","-1.9960938","1.1914062","-48.125","-124.625","27.34375"
"1537899063616","662","0.37402344","-1.2548828","0.3154297","-175.75","-234.3125","27.21875"
"1537899063616","663","0.055664062","-0.6230469","0.091796875","-150.53125","-208.625","33.90625"
"1537899063814","664","0.09277344","-0.08105469","0.0087890625","-116.25","-172.0625","28.5625"
"1537899063814","665","0.08691406","-0.16015625","0.14257812","-59.46875","-94.78125","36.125"
"1537899063814","666","0.03515625","-0.2763672","0.11035156","17.84375","-83.5","-22.0625"
"1537899063814","667","-0.375","-0.24902344","-0.4892578","127.34375","46.34375","-72.84375"
"1537899063814","668","-0.8417969","-1.2246094","-0.8105469","91.09375","141.375","-97.78125"
"1537899063815","669","-0.103515625","-1.9960938","-0.89941406","-47.6875","-91.4375","53.21875"
"1537899064012","670","-0.68847656","-0.35253906","-0.59375","-115.6875","-44.90625","5.28125"
"1537899064012","671","0.28808594","-1.6523438","-1.1132812","19.125","-5.78125","-5.8125"
"1537899064012","672","0.30664062","-1.8203125","0.8232422","234.15625","-35.15625","-85.34375"
"1537899064014","673","-0.69628906","0.24316406","-0.11328125","-8.28125","211.3125","-58.1875"
"1537899064014","674","1.0380859","-1.7666016","-0.2763672","191.4375","183.53125","-86.6875"
"1537899064210","675","0.022460938","-0.53027344","0.63183594","124.4375","65.625","-37.5"
"1537899064211","676","0.08691406","-0.6582031","-0.13085938","178.5625","24.78125","-58.5"
"1537899064212","677","0.09863281","-1.2089844","0.34765625","92.9375","200.9375","-88.8125"
"1537899064212","678","-0.40234375","-0.7832031","-0.028320312","55.75","203.0","-30.90625"
"1537899064212","679","0.6386719","-0.7626953","0.038085938","40.8125","65.25","-26.875"
"1537899064409","680","0.20996094","-1.1660156","-0.22363281","74.8125","29.0625","-42.125"
"1537899064409","681","-0.020507812","-1.0449219","-0.27148438","57.53125","29.90625","-27.34375"
"1537899064409","682","0.74316406","-1.2949219","0.171875","-9.1875","74.34375","-3.25"
"1537899064410","683","-0.09277344","-1.3076172","-0.33496094","-22.5625","-3.03125","-22.21875"
"1537899064410","684","0.3984375","-1.7255859","-0.06347656","-116.375","33.40625","70.90625"
"1537899064608","685","-0.27148438","-1.2314453","0.4501953","-233.375","-23.5","84.34375"
"1537899064608","686","-0.10644531","-1.59375","-0.4248047","-189.90625","-102.59375","117.34375"
"1537899064608","687","0.7207031","-1.9960938","1.7060547","-89.9375","-211.1875","34.90625"
"1537899064608","688","0.3076172","-0.95703125","0.18554688","-177.21875","-211.1875","18.46875"
"1537899064610","689","0.0068359375","-0.55371094","0.16601562","-157.5","-172.21875","36.53125"
"1537899064808","690","0.16894531","-0.234375","0.017578125","-120.8125","-140.5","37.40625"
"1537899064808","691","0.044921875","-0.12011719","-0.017578125","-36.96875","-99.0","21.03125"
"1537899064808","692","-0.0029296875","-0.19824219","-0.15527344","42.9375","-1.59375","-39.25"
"1537899064809","693","-0.28808594","-0.42871094","-0.5966797","115.9375","106.09375","-92.4375"
"1537899064809","694","-0.9511719","-1.5898438","-0.6875","65.46875","92.28125","-41.65625"
"1537899065005","695","-0.28125","-1.5644531","-0.6386719","-37.125","-142.375","57.84375"
"1537899065006","696","-0.67285156","-0.16601562","-0.4189453","-108.375","8.625","-21.625"
"1537899065006","697","0.4638672","-1.9052734","-1.1796875","58.5","-72.5","2.1875"
"1537899065007","698","-0.12402344","-0.5439453","1.2265625","159.6875","-80.0","-87.125"
"1537899065007","699","-0.484375","-0.053710938","-0.4375","-79.875","205.34375","39.78125"
"1537899065204","700","2.0019531","-1.9960938","0.19433594","236.96875","139.21875","-115.3125"
"1537899065204","701","-0.25976562","-0.72558594","0.15332031","193.6875","22.65625","-33.84375"
"1537899065205","702","-0.20703125","-0.7060547","0.076171875","156.21875","5.5","-51.09375"
"1537899065205","703","0.12695312","-0.94628906","0.0107421875","136.5625","92.65625","-72.59375"
"1537899065205","704","0.051757812","-0.8886719","0.1015625","22.3125","201.1875","-37.78125"
"1537899065402","705","0.27148438","-0.68652344","0.41503906","78.40625","94.5625","-56.21875"
"1537899065403","706","0.12988281","-1.0292969","-0.47070312","75.84375","49.1875","-35.0"
"1537899065403","707","0.26953125","-1.1367188","-0.08203125","26.875","86.96875","-19.78125"
"1537899065403","708","0.6191406","-1.3974609","0.056640625","4.375","20.875","-20.78125"
"1537899065404","709","-0.078125","-1.2314453","-0.28125","-18.75","15.09375","-17.34375"
"1537899065601","710","0.2939453","-1.8046875","-0.0048828125","-87.75","26.0625","69.375"
"1537899065602","711","-0.2734375","-1.1396484","0.3935547","-211.8125","-39.96875","80.4375"
"1537899065602","712","-0.06933594","-1.5117188","-0.2939453","-203.46875","-85.125","102.15625"
"1537899065602","713","0.34277344","-1.9960938","2.2207031","-20.96875","-102.15625","50.59375"
"1537899065603","714","0.359375","-1.1630859","0.01171875","-210.21875","-179.0","23.25"
"1537899065802","715","-0.0107421875","-0.64746094","0.15917969","-185.8125","-193.0","24.9375"
"1537899065802","716","0.12402344","-0.05078125","0.08105469","-138.28125","-175.84375","31.46875"
"1537899065802","717","0.083984375","-0.14160156","0.08886719","-52.40625","-137.3125","37.28125"
"1537899065802","718","-0.10058594","-0.25097656","-0.13574219","33.1875","-59.6875","-23.8125"
"1537899065802","719","-0.40234375","-0.2763672","-0.45117188","153.0625","97.90625","-96.09375"
"1537899065998","720","-0.90234375","-1.3242188","-0.8310547","53.5","178.84375","-78.1875"
"1537899065998","721","-0.06933594","-1.9160156","-0.77246094","-34.75","-152.46875","52.21875"
"1537899066000","722","-0.9433594","-0.5498047","-0.73339844","-112.46875","12.03125","-12.03125"
"1537899066000","723","0.41210938","-1.9960938","-1.2128906","13.53125","-54.9375","16.28125"
"1537899066000","724","0.14746094","0.12792969","1.1630859","107.5625","-104.53125","-119.53125"
"1537899066197","725","-0.73046875","-0.4921875","0.02734375","6.125","360.59375","24.09375"
"1537899066197","726","1.6845703","-1.9960938","0.059570312","161.46875","116.78125","-108.78125"
"1537899066198","727","-0.19433594","-0.5996094","0.15527344","203.78125","70.0","-56.21875"
"1537899066199","728","0.076171875","-0.8613281","0.21679688","145.3125","47.84375","-52.625"
"1537899066200","729","-0.016601562","-0.8671875","-0.23632812","114.28125","81.6875","-81.375"
"1537899066396","730","-0.17578125","-0.6904297","-0.16992188","53.5","151.6875","-36.625"
"1537899066396","731","0.31152344","-0.8388672","0.25195312","42.21875","175.78125","-53.40625"
"1537899066396","732","0.18164062","-0.8173828","-0.001953125","80.96875","39.875","-45.0"
"1537899066397","733","0.265625","-1.1728516","-0.30566406","54.1875","34.75","-28.59375"
"1537899066398","734","0.31445312","-1.3525391","0.26464844","1.75","58.0","-5.8125"
"1537899066595","735","0.18359375","-1.2275391","-0.28515625","-7.90625","32.96875","-28.75"
"1537899066595","736","0.3671875","-1.8564453","-0.095703125","-90.0625","26.3125","58.34375"
"1537899066596","737","-0.12792969","-1.2734375","0.30566406","-237.28125","1.28125","59.4375"
"1537899066597","738","-0.23632812","-1.1103516","0.20800781","-181.65625","-105.34375","82.9375"
"1537899066794","739","0.20800781","-1.9960938","0.059570312","-107.6875","-109.5625","80.25"
"1537899066795","740","0.35546875","-1.1425781","-0.038085938","-195.8125","-202.3125","48.625"
"1537899066796","741","0.10839844","-0.6386719","0.19335938","-147.90625","-189.03125","40.375"
"1537899066796","742","0.08691406","-0.15917969","0.07324219","-131.0625","-140.9375","43.0"
"1537899066797","743","0.052734375","-0.125","0.0625","-54.21875","-95.8125","33.3125"
"1537899066797","744","0.00390625","-0.16503906","-0.17871094","42.40625","-34.40625","-27.84375"
"1537899066993","745","-0.21777344","-0.4375","-0.39257812","133.59375","80.09375","-85.84375"
"1537899066993","746","-1.0048828","-1.3710938","-0.94921875","68.9375","154.4375","-58.96875"
"1537899066993","747","-0.16601562","-1.7529297","-0.67871094","-7.03125","-179.875","47.78125"
"1537899066993","748","-0.89160156","-0.3857422","-0.3251953","-91.28125","-16.78125","-12.28125"
"1537899066994","749","0.09863281","-1.9960938","-1.2304688","12.84375","-14.09375","22.5"
"1537899067194","750","0.12695312","-0.11425781","0.91308594","121.25","-106.75","-117.4375"
"1537899067194","751","-0.40429688","-0.33789062","0.001953125","15.125","298.15625","-26.1875"
"1537899067194","752","1.2832031","-1.7626953","0.3154297","229.59375","211.125","-94.8125"
"1537899067194","753","-0.0703125","-0.70214844","0.16113281","172.03125","9.03125","-59.59375"
"1537899067390","754","0.15820312","-0.92578125","0.16894531","187.96875","39.125","-43.09375"
"1537899067390","755","-0.13378906","-0.8876953","-0.28808594","109.65625","114.4375","-88.6875"
"1537899067391","756","-0.045898438","-0.8564453","0.19726562","55.46875","209.0","-50.6875"
"1537899067392","757","0.39453125","-0.7128906","0.47070312","65.28125","78.9375","-49.5625"
"1537899067392","758","0.10058594","-0.9824219","-0.671875","81.9375","45.0","-42.875"
"1537899067392","759","0.21191406","-1.1572266","0.030273438","57.96875","68.96875","-19.53125"
"1537899067590","760","0.68847656","-1.5","-0.049804688","7.59375","20.875","-8.875"
"1537899067591","761","0.029296875","-1.0332031","-0.36132812","-25.59375","6.34375","-9.0625"
"1537899067789","762","0.29785156","-1.8134766","0.07714844","-192.65625","17.34375","77.625"
"1537899067790","763","-0.15234375","-1.0820312","0.81347656","-224.8125","-48.21875","77.1875"
"1537899067790","764","0.18164062","-1.8857422","-0.32128906","-189.0","2.875","122.59375"
"1537899067790","765","0.75","-1.4121094","-0.8701172","-378.5625","-365.46875","-40.375"
"1537899067791","766","0.18945312","-0.9267578","0.30371094","-207.3125","-189.25","50.71875"
"1537899067791","767","0.0048828125","-0.15917969","0.18164062","-151.15625","-159.46875","34.65625"
"1537899067792","768","0.08984375","0.052734375","-9.765625E-4","-101.90625","-106.125","44.0"
"1537899067986","769","-0.016601562","-0.057617188","0.034179688","-5.65625","-95.03125","2.25"
"1537899067987","770","-0.055664062","-0.18945312","-0.103515625","100.3125","-42.40625","-68.9375"
"1537899067988","771","-0.38183594","-0.86621094","-0.8203125","181.1875","65.625","-127.625"
"1537899067989","772","-0.56640625","-1.9960938","-0.044921875","51.4375","-36.125","81.03125"
"1537899067989","773","-0.7441406","-0.6357422","-0.7734375","-131.875","-100.625","14.5"
"1537899068187","774","-0.28515625","-1.9960938","-0.8642578","9.625","27.59375","47.21875"
"1537899068187","775","0.88183594","-0.90234375","0.32421875","72.0625","-28.6875","-58.96875"
"1537899068187","776","-0.4716797","-0.31835938","0.53222656","104.09375","292.90625","-51.40625"
"1537899068188","777","1.4414062","-1.8886719","-0.055664062","195.59375","187.875","-90.34375"
"1537899068188","778","-0.24707031","-0.6533203","-0.0146484375","202.78125","30.90625","-89.90625"
"1537899068386","779","-0.08984375","-0.77734375","0.2548828","152.0625","35.59375","-51.46875"
"1537899068386","780","0.06933594","-1.0537109","-0.20898438","142.0","130.1875","-80.65625"
"1537899068387","781","0.08691406","-0.6464844","0.057617188","28.65625","180.65625","-52.09375"
"1537899068387","782","0.3125","-0.81347656","0.4033203","56.5","76.1875","-45.125"
"1537899068387","783","0.234375","-1.0703125","-0.5214844","81.21875","37.1875","-46.09375"
"1537899068582","784","0.0390625","-0.92285156","0.16113281","51.0","80.5","-31.6875"
"1537899068583","785","0.7519531","-1.3720703","0.16308594","0.40625","78.3125","-1.78125"
"1537899068583","786","0.06640625","-1.3447266","-0.2421875","-12.28125","6.59375","-25.28125"
"1537899068583","787","0.4267578","-1.7128906","-0.015625","-101.34375","11.53125","59.96875"
"1537899068584","788","-0.25683594","-1.2412109","0.3046875","-253.75","-23.125","70.90625"
"1537899068782","789","-0.14648438","-1.1972656","-0.11328125","-176.125","-148.75","96.78125"
"1537899068783","790","0.7441406","-1.9960938","1.2939453","-38.40625","-185.78125","9.8125"
"1537899068783","791","0.36621094","-1.0507812","0.31347656","-177.59375","-247.0","28.125"
"1537899068783","792","0.033203125","-0.5576172","0.17480469","-151.625","-198.1875","45.46875"
"1537899068783","793","0.12207031","-0.21679688","0.001953125","-102.0625","-135.0","34.46875"
"1537899068980","794","0.013671875","-0.2685547","0.001953125","-22.625","-90.5625","11.8125"
"1537899068981","795","-0.059570312","-0.2705078","0.060546875","7.125","-11.40625","-27.65625"
"1537899068981","796","-0.26953125","-0.24609375","-0.7089844","104.96875","92.96875","-67.53125"
"1537899068981","797","-0.5292969","-1.4736328","-0.6220703","43.75","74.09375","-34.25"
"1537899068981","798","-0.515625","-1.7460938","-0.7138672","-25.28125","-152.75","45.21875"
"1537899069181","799","-0.6455078","-0.76953125","-0.40039062","-105.0","-25.125","-0.5"
"1537899069181","800","1.0722656","-1.9960938","-0.3720703","-25.125","-6.28125","18.53125"
"1537899069181","801","-0.8486328","0.8173828","0.984375","171.375","185.75","-85.46875"
"1537899069182","802","0.5341797","-1.375","-1.53125","-19.875","-71.84375","-23.625"
"1537899069380","803","0.7861328","-0.68847656","0.9765625","318.34375","196.96875","-114.6875"
"1537899069381","804","-0.34960938","-0.6386719","-0.140625","68.6875","-38.9375","-70.5625"
"1537899069381","805","-0.12890625","-0.8457031","-0.08300781","141.28125","53.59375","-73.1875"
"1537899069381","806","-0.018554688","-0.88183594","0.0703125","46.84375","194.90625","-47.9375"
"1537899069381","807","0.26464844","-0.75","0.29296875","47.875","115.65625","-45.84375"
"1537899069381","808","0.2109375","-0.94140625","-0.20410156","74.0","32.90625","-42.125"
"1537899069576","809","0.09082031","-0.9550781","-0.016601562","67.46875","106.34375","-53.1875"
"1537899069577","810","0.42871094","-1.2421875","-0.111328125","3.75","62.625","-1.125"
"1537899069577","811","0.4267578","-1.3955078","-0.09082031","-10.9375","20.875","-29.5"
"1537899069578","812","0.48828125","-1.8574219","-0.29296875","-84.6875","-7.75","44.65625"
"1537899069578","813","-0.10449219","-1.3671875","0.6142578","-225.1875","15.4375","46.875"
"1537899069777","814","-0.10546875","-1.2089844","-0.0390625","-164.15625","-182.78125","100.875"
"1537899069777","815","0.1875","-1.9960938","0.4267578","-67.34375","-173.75","55.71875"
"1537899069973","816","0.33007812","-0.90234375","-0.018554688","-221.875","-213.5625","57.25"
"1537899069974","817","0.06738281","-0.45507812","0.26171875","-163.65625","-170.65625","58.40625"
"1537899069974","818","0.059570312","-0.11816406","0.044921875","-121.78125","-121.34375","62.96875"
"1537899069974","819","0.013671875","-0.08496094","-0.047851562","-45.25","-86.84375","44.59375"
"1537899069976","820","0.0078125","-0.28320312","-0.20410156","55.21875","0.5625","-19.59375"
"1537899069976","821","-0.27539062","-0.5722656","-0.40234375","95.25","64.28125","-72.78125"
"1537899069977","822","-0.7128906","-1.5527344","-1.2304688","18.40625","40.09375","12.875"
"1537899069978","823","-0.3076172","-1.3515625","-0.77441406","-15.78125","-137.1875","45.9375"
"1537899070175","824","-1.0693359","-0.4267578","-0.13671875","-43.25","-75.1875","-31.6875"
"1537899070175","825","-0.2841797","-1.9960938","-0.4814453","-61.90625","46.28125","54.71875"
"1537899070176","826","-0.01171875","-0.24316406","0.28125","73.75","58.125","-82.96875"
"1537899070176","827","0.33007812","-0.8730469","-0.11621094","97.875","127.375","-36.5"
"1537899070176","828","1.0751953","-1.2373047","0.36621094","209.125","102.53125","-117.375"
"1537899070372","829","-0.54296875","-0.5205078","-0.2548828","197.1875","63.0625","-95.84375"
"1537899070372","830","-0.051757812","-0.96484375","0.59277344","148.46875","101.8125","-58.65625"
"1537899070373","831","0.16308594","-0.9375","-0.09765625","110.3125","86.0","-61.65625"
"1537899070373","832","0.083984375","-0.7324219","-0.26660156","34.53125","96.625","-53.90625"
"1537899070373","833","0.36328125","-0.8808594","0.36621094","77.78125","189.09375","-74.84375"
"1537899070569","834","-0.0234375","-0.9042969","-0.049804688","68.28125","21.6875","-45.0625"
"1537899070570","835","0.043945312","-0.9316406","-0.3251953","49.21875","66.59375","-28.59375"
"1537899070570","836","0.484375","-1.1240234","0.42871094","17.3125","101.8125","-11.84375"
"1537899070571","837","0.4736328","-1.578125","-0.30664062","2.21875","12.6875","-31.15625"
"1537899070571","838","0.12597656","-1.8398438","-0.6201172","-43.3125","-8.59375","53.875"
"1537899070771","839","0.3408203","-1.4355469","0.14941406","-219.5625","-27.46875","80.3125"
"1537899070772","840","0.0703125","-1.1445312","0.46777344","-220.0625","-97.59375","64.9375"
"1537899070772","841","-0.14453125","-1.8642578","0.1171875","-163.25","-52.3125","81.53125"
"1537899070772","842","0.24316406","-0.9970703","-0.6191406","-296.34375","-181.21875","34.40625"
"1537899070772","843","0.26367188","-0.6308594","-0.029296875","-208.71875","-180.28125","46.0625"
"1537899070967","844","0.1328125","-0.15136719","0.14257812","-140.84375","-192.0","26.65625"
"1537899070968","845","0.0625","-0.034179688","0.08105469","-88.46875","-134.09375","43.75"
"1537899070968","846","0.03125","-0.23535156","0.11230469","-0.875","-115.09375","-1.25"
"1537899070968","847","-0.21289062","-0.1640625","-0.30859375","85.90625","20.5625","-53.71875"
"1537899070970","848","-0.5878906","-0.8935547","-1.2646484","155.125","207.78125","-114.21875"
"1537899071168","849","-0.2626953","-1.9960938","-0.98339844","43.84375","-148.5625","49.78125"
"1537899071168","850","-0.78222656","-0.5888672","-0.5546875","-122.65625","-65.90625","-8.6875"
"1537899071168","851","-0.08886719","-1.9960938","-1.0693359","15.46875","-46.125","34.21875"
"1537899071168","852","0.6201172","-0.8017578","0.44628906","113.0625","-46.875","-76.25"
"1537899071169","853","-0.640625","-0.25390625","0.29589844","32.875","290.46875","-21.75"
"1537899071367","854","1.8027344","-1.9960938","0.41601562","209.5625","220.03125","-94.875"
"1537899071367","855","-0.19335938","-0.7480469","-0.06933594","207.96875","13.125","-74.28125"
"1537899071367","856","-0.11816406","-0.8125","0.3828125","188.8125","64.71875","-53.65625"
"1537899071367","857","0.036132812","-0.88378906","-0.5332031","116.125","93.4375","-97.1875"
"1537899071368","858","0.0546875","-0.5830078","0.39160156","49.21875","243.84375","-56.71875"
"1537899071566","859","0.18261719","-0.7792969","0.26464844","63.5","53.09375","-34.875"
"1537899071566","860","0.22265625","-1.0458984","-0.7158203","75.78125","80.625","-50.5"
"1537899071566","861","0.07519531","-1.1054688","0.021484375","36.53125","87.09375","-19.78125"
"1537899071566","862","0.9042969","-1.3720703","0.048828125","-0.6875","32.71875","-7.03125"
"1537899071566","863","0.18359375","-1.0517578","-0.3466797","-24.3125","-10.0","-5.03125"
"1537899071764","864","0.2763672","-1.6757812","0.08203125","-137.40625","-39.65625","71.15625"
"1537899071765","865","-0.53808594","-1.0048828","0.41503906","-199.0","-42.15625","75.25"
"1537899071765","866","0.18164062","-1.7558594","-0.30664062","-213.34375","43.28125","116.0"
"1537899071961","867","0.5214844","-1.7128906","2.0859375","-59.84375","-363.625","13.21875"
"1537899071961","868","0.33789062","-1.0341797","0.047851562","-208.71875","-233.03125","22.1875"
"1537899071961","869","0.052734375","-0.6591797","0.10253906","-158.40625","-189.6875","33.0"
"1537899071962","870","0.15429688","-0.22363281","0.0146484375","-106.78125","-163.5625","32.5625"
"1537899071963","871","-0.040039062","-0.19140625","0.020507812","-46.71875","-86.40625","16.46875"
"1537899071963","872","0.043945312","-0.23144531","0.0","-5.21875","-21.78125","-37.5625"
"1537899071964","873","-0.2841797","-0.22167969","-0.18457031","57.21875","33.6875","-88.53125"
"1537899072162","874","-0.78808594","-0.8935547","-1.2089844","109.21875","168.71875","-72.84375"
"1537899072162","875","-0.46289062","-1.9960938","-1.0712891","68.8125","-98.875","37.46875"
"1537899072162","876","-0.9609375","-0.5888672","-0.7216797","-110.0625","-45.15625","1.09375"
"1537899072163","877","0.35546875","-1.9960938","-0.76953125","6.9375","31.8125","43.0625"
"1537899072163","878","0.123046875","1.0458984","0.9609375","63.09375","-69.15625","-125.5"
"1537899072359","879","-0.08886719","-0.88671875","-0.30664062","39.09375","344.84375","-5.875"
"1537899072359","880","1.5722656","-1.5830078","0.95214844","272.9375","284.4375","-130.375"
"1537899072360","881","-0.3779297","-0.49316406","-0.2890625","156.28125","27.03125","-71.96875"
"1537899072360","882","0.3955078","-1.0859375","0.50097656","150.0","100.90625","-39.6875"
"1537899072360","883","0.087890625","-0.97265625","-0.16113281","106.96875","133.75","-69.65625"
"1537899072558","884","0.0390625","-0.65722656","-0.15820312","86.71875","143.5","-41.46875"
"1537899072558","885","0.3154297","-0.8691406","0.58984375","55.9375","111.15625","-35.84375"
"1537899072558","886","0.028320312","-1.0009766","-0.36328125","75.46875","27.15625","-46.53125"
"1537899072558","887","0.25097656","-1.1533203","-0.21191406","33.84375","99.625","-27.53125"
"1537899072559","888","0.5878906","-1.3769531","0.09082031","-9.0","38.8125","-16.3125"
"1537899072756","889","0.34570312","-1.3242188","-0.22070312","-30.78125","39.5","-4.53125"
"1537899072756","890","0.4501953","-1.7724609","-0.037109375","-137.28125","-4.5","51.625"
"1537899072757","891","-0.25195312","-0.9189453","0.5449219","-226.28125","11.84375","60.59375"
"1537899072757","892","-0.23730469","-1.5791016","0.15820312","-86.40625","-74.09375","109.84375"
"1537899072955","893","0.8310547","-1.5507812","-0.24609375","-307.46875","-271.1875","-31.375"
"1537899072956","894","0.23339844","-0.9716797","-0.022460938","-207.78125","-215.6875","79.9375"
"1537899072956","895","0.09375","-0.31347656","0.18359375","-153.09375","-195.65625","57.84375"
"1537899072956","896","0.017578125","-0.029296875","9.765625E-4","-106.15625","-116.375","72.4375"
"1537899072956","897","0.015625","-0.29589844","0.061523438","-42.09375","-86.96875","33.0"
"1537899073154","898","-0.046875","-0.37402344","-0.16015625","46.40625","-26.40625","-40.0625"
"1537899073155","899","-0.44628906","-0.2685547","-0.84375","127.40625","93.5","-103.96875"
"1537899073156","900","-0.6933594","-1.9960938","-0.49902344","72.3125","109.4375","-14.84375"
"1537899073157","901","-0.47753906","-1.2548828","-0.7626953","-40.6875","-103.15625","42.90625"
"1537899073157","902","-0.76464844","-0.15722656","-0.32910156","-41.71875","-16.90625","-35.53125"
"1537899073353","903","0.35253906","-1.9960938","-1.1630859","17.6875","37.125","8.15625"
"1537899073353","904","-0.30566406","0.6542969","1.3408203","142.84375","-10.96875","-108.34375"
"1537899073353","905","0.28027344","-0.51953125","-1.203125","-12.90625","115.1875","-32.71875"
"1537899073353","906","1.2910156","-1.4287109","0.8828125","259.4375","266.1875","-92.59375"
"1537899073354","907","-0.33984375","-0.6064453","-0.12988281","148.78125","-21.21875","-59.28125"
"1537899073551","908","0.044921875","-1.0","-0.10449219","105.9375","28.875","-47.25"
"1537899073552","909","-0.028320312","-0.8203125","0.12890625","50.15625","203.625","-67.53125"
"1537899073552","910","0.16210938","-0.8310547","0.36621094","53.3125","103.9375","-43.90625"
"1537899073553","911","0.3359375","-0.93847656","-0.25390625","71.5","64.46875","-42.5"
"1537899073553","912","0.080078125","-0.8154297","-0.0048828125","58.8125","79.96875","-43.46875"
"1537899073750","913","0.5058594","-1.3203125","-0.005859375","12.53125","81.90625","-1.65625"
"1537899073750","914","0.34472656","-1.4433594","-0.20898438","-13.21875","25.03125","-27.3125"
"1537899073751","915","0.3310547","-1.8330078","-0.33789062","-60.09375","1.40625","44.96875"
"1537899073751","916","-0.022460938","-1.5273438","0.2421875","-248.875","0.4375","86.34375"
"1537899073751","917","-0.109375","-1.1982422","0.13867188","-220.78125","-113.15625","90.25"
"1537899073949","918","0.1640625","-1.9960938","0.58691406","-128.5625","26.5625","90.625"
"1537899073949","919","0.40429688","-1.140625","-0.2529297","-224.46875","-204.8125","37.71875"
"1537899073949","920","0.13085938","-0.5185547","0.1484375","-166.53125","-217.09375","25.3125"
"1537899073950","921","0.0078125","-0.060546875","0.1015625","-140.78125","-190.0","32.09375"
"1537899073950","922","0.05078125","-0.049804688","0.06347656","-58.5625","-114.5625","39.90625"
"1537899074150","923","0.044921875","-0.21289062","-0.015625","17.6875","-74.875","-23.28125"
"1537899074150","924","-0.27929688","-0.21386719","-0.42871094","139.6875","35.96875","-92.71875"
"1537899074151","925","-0.99902344","-1.3515625","-1.1933594","104.40625","185.0625","-65.375"
"1537899074151","926","-0.26464844","-1.9960938","-0.5371094","26.09375","-185.59375","69.5625"
"1537899074151","927","-1.1005859","-0.17773438","-0.3798828","-145.65625","-50.96875","-1.34375"
"1537899074348","928","0.4638672","-1.9960938","-1.1708984","24.75","44.0625","6.75"
"1537899074348","929","-0.0048828125","0.2548828","0.9824219","153.15625","-80.5","-138.0625"
"1537899074349","930","-0.2626953","-0.5175781","-0.3798828","-37.25","234.9375","18.34375"
"1537899074545","931","1.9433594","-1.9345703","0.3251953","214.5625","180.71875","-121.90625"
"1537899074546","932","-0.31933594","-0.7109375","0.017578125","210.0625","33.34375","-65.5625"
"1537899074546","933","-0.13769531","-0.8798828","0.18066406","155.0625","30.59375","-41.59375"
"1537899074547","934","0.17675781","-1.0078125","-0.11816406","149.9375","116.46875","-90.71875"
"1537899074547","935","0.01953125","-0.62890625","0.091796875","26.84375","188.1875","-54.40625"
"1537899074547","936","0.1796875","-0.7626953","0.3623047","58.75","71.0","-48.65625"
"1537899074549","937","0.21191406","-0.9892578","-0.65625","78.03125","75.25","-53.90625"
"1537899074746","938","0.16796875","-1.0097656","0.1328125","47.28125","69.78125","-27.25"
"1537899074746","939","0.8144531","-1.4365234","0.043945312","18.21875","31.875","-9.125"
"1537899074746","940","0.35839844","-1.3154297","-0.14648438","-11.75","12.875","-20.71875"
"1537899074746","941","0.6621094","-1.9833984","0.07714844","-150.53125","-10.0","52.46875"
"1537899074746","942","-0.39453125","-0.8095703","0.5810547","-245.28125","-42.0","59.6875"
"1537899074943","943","-0.23730469","-1.4277344","0.18359375","-100.75","-44.5625","108.6875"
"1537899074943","944","0.984375","-1.1845703","-0.4140625","-378.125","-283.6875","-43.21875"
"1537899074943","945","0.26171875","-0.81640625","-0.048828125","-207.90625","-244.75","61.9375"
"1537899074944","946","0.17773438","-0.42382812","0.18457031","-158.84375","-187.125","53.21875"
"1537899074944","947","0.06640625","-0.0107421875","-0.09863281","-116.125","-84.40625","63.8125"
"1537899075143","948","0.10449219","-0.24023438","0.15039062","-49.59375","-103.6875","32.6875"
"1537899075144","949","-0.09472656","-0.3017578","-0.125","57.46875","-53.03125","-44.03125"
"1537899075340","950","-0.4580078","-0.28320312","-0.8623047","168.0625","114.6875","-103.84375"
"1537899075340","951","-0.8125","-1.9960938","-0.69433594","56.5","26.0625","-39.0625"
"1537899075539","952","-0.6142578","-1.0400391","-0.68847656","-86.15625","-94.21875","40.09375"
"1537899075539","953","-0.5800781","-0.68359375","-0.5332031","-37.8125","17.71875","-21.0"
"1537899075539","954","1.0957031","-1.9960938","-0.56152344","-53.25","-27.59375","15.125"
"1537899075539","955","-0.45117188","0.5058594","1.3134766","202.78125","145.03125","-100.46875"
"1537899075541","956","0.40039062","-1.3632812","-1.3525391","69.96875","-19.84375","-54.28125"
"1537899075541","957","0.5683594","-0.7128906","0.8769531","225.375","201.3125","-87.28125"
"1537899075541","958","-0.1953125","-0.421875","-0.16992188","100.625","-7.9375","-58.375"
"1537899075542","959","0.08886719","-1.1787109","-0.18554688","104.09375","73.5625","-64.28125"
"1537899075543","960","-0.20019531","-0.7324219","-0.034179688","-5.875","194.84375","-52.625"
"1537899075737","961","0.2763672","-0.74316406","0.39648438","44.78125","85.59375","-38.59375"
"1537899075738","962","0.047851562","-0.90527344","0.13671875","59.53125","68.25","-34.5625"
"1537899075738","963","0.7089844","-1.3964844","0.052734375","4.4375","78.125","-0.1875"
"1537899075740","964","0.115234375","-1.3994141","-0.21972656","-6.125","4.34375","-24.0"
"1537899075740","965","0.3876953","-1.8603516","-0.14355469","-78.875","18.6875","64.125"
"1537899075740","966","-0.25195312","-1.3251953","0.35351562","-245.28125","-25.25","80.96875"
"1537899075937","967","-0.15136719","-1.2792969","0.28710938","-172.34375","-92.53125","87.5625"
"1537899075937","968","0.4296875","-1.9960938","0.44726562","-98.0","-145.875","79.9375"
"1537899075937","969","0.09863281","-1.1152344","-0.0390625","-208.28125","-223.0","49.46875"
"1537899075937","970","0.18261719","-0.4765625","0.28808594","-169.59375","-200.5625","33.4375"
"1537899075938","971","0.13867188","-0.09667969","0.1953125","-134.3125","-143.59375","49.375"
"1537899076137","972","0.103515625","-0.06933594","-0.041992188","-58.0","-91.0","43.75"
"1537899076139","973","-0.041015625","-0.2841797","-0.061523438","30.96875","-20.125","-38.09375"
"1537899076139","974","-0.24609375","-0.3388672","-0.51171875","103.1875","64.15625","-117.75"
"1537899076139","975","-0.62597656","-1.7919922","-1.2851562","34.40625","3.78125","24.9375"
"1537899076139","976","-0.7763672","-1.4853516","-0.6972656","-29.09375","-56.5625","12.25"
"1537899076334","977","-0.54589844","-1.1865234","-0.43359375","-31.03125","-16.40625","3.59375"
"1537899076335","978","0.8984375","-1.9960938","-0.22753906","-78.625","-73.65625","71.59375"
"1537899076335","979","-0.42089844","0.59472656","1.1279297","164.34375","224.5625","-139.84375"
"1537899076335","980","0.7626953","-1.7099609","-0.9199219","65.71875","-28.25","-56.15625"
"1537899076335","981","0.2421875","-0.7207031","0.5205078","233.25","188.96875","-80.59375"
"1537899076533","982","-0.24511719","-0.3095703","-0.095703125","118.1875","68.125","-74.0625"
"1537899076533","983","0.36621094","-1.2929688","-0.17871094","93.34375","34.375","-38.28125"
"1537899076533","984","-0.12402344","-0.5527344","-0.13769531","45.8125","150.59375","-88.53125"
"1537899076534","985","0.3408203","-0.88671875","0.6503906","56.625","186.09375","-52.125"
"1537899076534","986","0.27441406","-0.89453125","-0.15332031","64.3125","25.15625","-31.9375"
"1537899076731","987","0.08496094","-0.7841797","-0.16210938","78.9375","107.84375","-56.03125"
"1537899076731","988","0.20117188","-1.1767578","-0.23632812","36.28125","60.0","-9.78125"
"1537899076732","989","0.6308594","-1.5898438","0.033203125","7.46875","29.65625","-21.25"
"1537899076732","990","0.40039062","-1.3486328","-0.38476562","-20.96875","0.4375","0.90625"
"1537899076733","991","0.3857422","-1.7509766","0.17675781","-210.53125","9.71875","68.96875"
"1537899076930","992","0.06640625","-0.9892578","0.4501953","-252.46875","-28.5625","75.5"
"1537899076930","993","0.09863281","-1.8466797","0.4296875","-78.46875","-57.1875","117.59375"
"1537899076931","994","0.68066406","-1.0908203","-0.5029297","-260.65625","-247.125","27.28125"
"1537899077131","995","0.12988281","-0.7910156","-0.13085938","-200.96875","-194.15625","76.09375"
"1537899077132","996","0.19238281","-0.27246094","0.20703125","-141.1875","-157.03125","52.34375"
"1537899077132","997","0.12792969","0.064453125","0.04296875","-106.53125","-92.9375","57.53125"
"1537899077132","998","0.125","0.01953125","0.14257812","3.5","-94.40625","27.75"
"1537899077133","999","-0.0703125","-0.17675781","-0.083984375","90.65625","-36.1875","-41.53125"
"1537899077133","1000","-0.5205078","-0.7685547","-1.1083984","211.46875","128.1875","-136.125"
"1537899077133","1001","0.15820312","-1.9960938","-0.8183594","-53.1875","-114.125","39.90625"
"1537899077526","1002","-0.94433594","-0.123046875","-0.48046875","-149.3125","-94.0625","42.96875"
"1537899077526","1003","-0.27441406","-1.6142578","-1.0361328","47.875","32.21875","-21.4375"
"1537899077527","1004","0.64453125","-1.2001953","0.9873047","35.0","-95.34375","-31.21875"
"1537899077527","1005","-0.8378906","0.31054688","0.9921875","150.78125","379.15625","-19.53125"
"1537899077528","1006","1.1552734","-1.9960938","-1.3789062","84.8125","-39.125","-102.625"
"1537899077528","1007","-0.19238281","-0.51953125","0.5986328","239.0","142.71875","-68.625"
"1537899077529","1008","-0.4609375","-0.40625","-0.23828125","97.375","-0.125","-62.8125"
"1537899077530","1009","0.16308594","-1.1767578","-0.2685547","141.625","36.1875","-66.96875"
"1537899077531","1010","-0.07421875","-0.6152344","0.015625","43.1875","185.5","-66.125"
"1537899077725","1011","0.30371094","-0.77734375","0.54003906","60.8125","174.5625","-56.46875"
"1537899077726","1012","0.13867188","-0.8466797","-0.21582031","88.03125","29.1875","-40.96875"
"1537899077726","1013","0.15820312","-1.046875","-0.265625","53.625","82.53125","-32.5625"
"1537899077726","1014","0.4638672","-1.3408203","0.33496094","8.59375","75.8125","-9.84375"
"1537899077727","1015","0.27539062","-1.3984375","-0.27246094","-18.9375","19.0","-22.53125"
"1537899077924","1016","0.6621094","-1.9394531","-0.111328125","-98.0","12.59375","70.96875"
"1537899077924","1017","-0.50097656","-1.3798828","0.515625","-220.59375","-32.15625","60.90625"
"1537899077925","1018","0.048828125","-1.4072266","-0.21777344","-191.96875","-67.125","95.9375"
"1537899077926","1019","0.3046875","-1.9960938","1.6669922","-73.9375","-95.875","59.0"
"1537899077926","1020","0.49902344","-0.92578125","0.20703125","-175.1875","-237.0","-6.78125"
"1537899078123","1021","0.08496094","-0.6230469","0.11425781","-168.96875","-181.9375","37.28125"
"1537899078123","1022","0.115234375","-0.15820312","0.14550781","-116.90625","-175.65625","34.09375"
"1537899078123","1023","0.06738281","0.00390625","0.083984375","-61.78125","-114.125","28.5625"
"1537899078123","1024","0.06640625","-0.08300781","0.0","21.28125","-66.9375","-11.78125"
"1537899078124","1025","-0.3720703","-0.24902344","-0.25976562","135.03125","53.34375","-71.25"
"1537899078322","1026","-1.2177734","-1.5585938","-1.2285156","64.25","169.4375","-81.8125"
"1537899078322","1027","-0.43066406","-1.5273438","-0.7636719","-81.03125","-135.0","66.4375"
"1537899078322","1028","-0.50878906","-0.06640625","-0.5830078","-108.78125","-34.84375","-22.0625"
"1537899078324","1029","0.5683594","-1.9960938","-1.4033203","44.15625","-72.875","14.21875"
"1537899078324","1030","-0.33398438","0.53515625","1.1972656","133.28125","-25.3125","-133.5625"
"1537899078520","1031","-0.015625","-0.17773438","-1.0380859","-93.34375","109.5625","-0.375"
"1537899078520","1032","2.0019531","-1.9960938","1.1318359","302.9375","311.03125","-130.4375"
"1537899078520","1033","-0.32617188","-0.72558594","-0.18554688","217.75","-46.9375","-83.34375"
"1537899078521","1034","-0.12207031","-1.1025391","0.12109375","183.6875","21.6875","-49.15625"
"1537899078522","1035","-0.10839844","-0.7832031","-0.3779297","109.96875","150.09375","-108.0625"
"1537899078719","1036","0.0703125","-0.64941406","0.6074219","61.5625","231.34375","-53.78125"
"1537899078720","1037","0.25878906","-0.77441406","0.09082031","66.0","55.4375","-30.78125"
"1537899078720","1038","0.21875","-0.87890625","-0.42285156","90.125","73.6875","-59.65625"
"1537899078720","1039","0.20507812","-1.2705078","-0.043945312","41.84375","63.96875","-13.9375"
"1537899078721","1040","0.6191406","-1.5898438","-0.14550781","-6.875","26.5","-10.8125"
"1537899078918","1041","-0.16601562","-0.9580078","-0.2861328","-19.3125","32.90625","-0.125"
"1537899078918","1042","0.6894531","-1.8095703","0.2607422","-173.78125","56.09375","90.3125"
"1537899078918","1043","0.22753906","-1.2246094","0.40234375","-189.65625","-132.0","55.71875"
"1537899078919","1044","0.24316406","-1.6816406","0.036132812","-176.65625","89.4375","86.15625"
"1537899078919","1045","0.35351562","-1.7441406","1.0048828","-170.4375","-389.28125","-0.125"
"1537899079118","1046","0.05859375","-0.9482422","0.14355469","-215.78125","-230.46875","41.25"
"1537899079119","1047","0.08105469","-0.55859375","0.07910156","-177.53125","-191.15625","47.15625"
"1537899079120","1048","0.08886719","-0.14746094","0.06933594","-67.84375","-112.34375","36.71875"
"1537899079120","1049","0.14648438","-0.009765625","0.111328125","-45.0","-86.71875","21.78125"
"1537899079120","1050","0.068359375","-0.034179688","-0.06933594","25.78125","-6.875","5.21875"
"1537899079318","1051","-0.23632812","-0.5527344","-0.64941406","116.6875","75.1875","-65.6875"
"1537899079318","1052","-0.6611328","-1.9960938","-1.203125","3.625","11.84375","-28.8125"
"1537899079318","1053","-0.5029297","-0.7636719","-0.60253906","-115.5625","-194.9375","56.25"
"1537899079318","1054","-0.47460938","-0.8027344","-0.36132812","7.0625","0.625","-30.90625"
"1537899079318","1055","1.0341797","-1.9960938","0.7949219","14.8125","-148.84375","47.65625"
"1537899079514","1056","-1.3154297","1.0927734","1.0380859","128.5625","393.9375","-59.65625"
"1537899079514","1057","1.3779297","-1.9960938","-1.3808594","97.75","-37.71875","-66.65625"
"1537899079514","1058","0.0146484375","-0.5136719","0.3564453","229.84375","92.78125","-79.78125"
"1537899079716","1059","-0.5292969","-0.29589844","-0.19042969","65.46875","59.46875","-64.96875"
"1537899079716","1060","0.009765625","-1.2373047","-0.07910156","170.9375","50.4375","-54.9375"
"1537899079716","1061","-0.080078125","-0.5966797","-0.1171875","28.15625","226.21875","-59.78125"
"1537899079716","1062","0.48046875","-0.78808594","0.828125","40.0625","129.875","-45.375"
"1537899079716","1063","0.26757812","-0.95410156","-0.43164062","91.65625","23.75","-38.21875"
"1537899079716","1064","-0.15820312","-0.7324219","0.06542969","77.78125","101.15625","-42.1875"
"1537899079716","1065","0.53027344","-1.3017578","-0.06933594","18.15625","92.65625","8.15625"
"1537899079911","1066","0.4375","-1.5742188","-0.12597656","-13.8125","23.5","-17.53125"
"1537899079912","1067","0.40722656","-1.4013672","-0.56347656","-60.15625","4.28125","41.65625"
"1537899079912","1068","-0.022460938","-1.5859375","0.171875","-231.78125","-47.90625","85.5625"
"1537899079914","1069","-0.080078125","-1.4023438","-0.19921875","-184.15625","-124.5","54.71875"
"1537899079914","1070","0.40527344","-1.9003906","0.8261719","-199.84375","138.75","46.5"
"1537899080110","1071","0.13378906","-1.2783203","-0.84765625","-241.84375","-332.875","-52.9375"
"1537899080111","1072","-0.17089844","-0.67871094","0.34277344","-196.125","-229.65625","15.1875"
"1537899080111","1073","0.10839844","-0.24023438","0.27929688","-137.34375","-236.8125","11.40625"
"1537899080112","1074","0.10058594","0.0625","0.2529297","-71.0","-161.84375","35.15625"
"1537899080112","1075","0.0546875","-0.14746094","0.19726562","-31.03125","-132.3125","15.375"
"1537899080311","1076","-0.21679688","-0.26757812","-0.45117188","43.125","-9.6875","-25.15625"
"1537899080311","1077","-1.53125","-0.7988281","-1.7373047","70.53125","165.84375","-3.875"
"1537899080312","1078","-0.09375","-1.8916016","-0.29589844","69.4375","-162.53125","46.5625"
"1537899080312","1079","-0.578125","-0.5019531","-0.6826172","-172.15625","22.15625","27.875"
"1537899080312","1080","-1.6035156","-0.8935547","-0.3232422","-5.28125","-75.75","-4.96875"
"1537899080507","1081","0.0146484375","-1.9960938","-0.6044922","97.25","-77.8125","70.59375"
"1537899080507","1082","-0.71875","0.8701172","0.6035156","-47.15625","295.125","-9.28125"
"1537899080509","1083","1.1083984","-1.9960938","-1.4179688","224.53125","37.59375","-59.09375"
"1537899080509","1084","0.25","-1.4150391","-0.15234375","204.4375","-22.8125","-109.875"
"1537899080509","1085","-1.0449219","-0.2890625","-0.5205078","307.65625","171.03125","-140.09375"
"1537899080706","1086","0.15429688","-0.6328125","1.0878906","226.0","-1.28125","-60.125"
"1537899080905","1087","0.4345703","-1.0595703","-0.5292969","121.625","144.71875","-115.875"
"1537899080906","1088","-0.4873047","-0.2421875","-0.064453125","69.90625","246.96875","-92.90625"
"1537899080907","1089","0.11328125","-1.0605469","0.6855469","75.40625","107.375","-14.59375"
"1537899080907","1090","0.49414062","-0.90234375","-0.91796875","76.09375","91.9375","-33.53125"
"1537899080907","1091","0.23828125","-1.1972656","0.46289062","24.25","124.40625","-17.90625"
"1537899080908","1092","0.4970703","-1.7011719","-0.34765625","-11.0625","24.65625","-32.0625"
"1537899080908","1093","0.61621094","-1.8476562","0.16503906","-72.78125","17.28125","23.71875"
"1537899080908","1094","-0.36035156","-1.1796875","0.30078125","-237.34375","-41.9375","54.375"
"1537899080909","1095","-0.06933594","-1.4765625","0.4716797","-180.9375","-2.5","99.65625"
"1537899081104","1096","0.25","-1.8662109","0.8544922","-101.15625","-149.65625","76.46875"
"1537899081104","1097","-0.09082031","-1.3378906","-0.07421875","-246.65625","-155.4375","55.21875"
"1537899081106","1098","0.13964844","-0.5410156","0.12695312","-209.25","-183.34375","45.9375"
"1537899081106","1099","0.119140625","0.09765625","-0.0048828125","-174.96875","-161.90625","37.15625"
"1537899081107","1100","-0.025390625","0.038085938","0.041015625","-64.1875","-120.0625","36.96875"
"1537899081305","1101","-0.11621094","-0.17675781","0.01171875","17.6875","-82.15625","-18.21875"
"1537899081305","1102","-0.08203125","-0.2529297","-0.20410156","64.4375","16.71875","-91.5625"
"1537899081305","1103","-0.6748047","-0.7451172","-1.0605469","76.625","191.96875","-97.90625"
"1537899081305","1104","-0.017578125","-1.9960938","-1.1416016","33.40625","-130.78125","58.875"
"1537899081306","1105","-1.1337891","-0.5703125","-0.70996094","-103.84375","-32.59375","-14.78125"
"1537899081501","1106","-0.1015625","-1.5234375","-0.5283203","32.625","-102.78125","0.34375"
"1537899081501","1107","0.8095703","-1.9960938","0.47753906","-1.0","-51.3125","0.78125"
"1537899081501","1108","-1.1445312","0.76464844","0.8984375","176.375","343.09375","-33.53125"
"1537899081503","1109","1.1552734","-1.9960938","-1.1289062","66.75","-65.71875","-66.84375"
"1537899081503","1110","0.12792969","-0.5410156","0.34765625","268.15625","137.75","-85.15625"
"1537899081702","1111","-0.51464844","-0.45214844","-0.20410156","110.875","37.59375","-61.125"
"1537899081702","1112","-0.06933594","-1.0957031","-0.22558594","134.96875","39.375","-58.0625"
"1537899081702","1113","-0.045898438","-0.59472656","-0.19238281","54.28125","188.0","-78.625"
"1537899081702","1114","0.5527344","-0.7939453","0.9238281","71.625","169.125","-50.5625"
"1537899081702","1115","0.16796875","-1.0830078","-0.4091797","82.0","19.1875","-43.21875"
"1537899081899","1116","-0.0126953125","-0.88378906","-0.083984375","59.375","89.4375","-46.15625"
"1537899081900","1117","0.43359375","-1.3212891","0.06542969","-1.125","92.96875","-3.0625"
"1537899081902","1118","0.3076172","-1.4990234","-0.26757812","-18.875","30.46875","-22.28125"
"1537899081903","1119","0.51171875","-1.9355469","-0.061523438","-76.125","16.5","45.53125"
"1537899081903","1120","-0.40429688","-1.2705078","0.20019531","-258.5","-50.65625","50.53125"
"1537899082099","1121","-0.22753906","-1.0693359","0.13769531","-191.125","-121.8125","99.59375"
"1537899082100","1122","0.6894531","-1.9960938","0.5830078","-113.4375","-150.1875","36.65625"
"1537899082100","1123","0.19628906","-1.2246094","0.43554688","-199.90625","-234.6875","32.5625"
"1537899082100","1124","0.14257812","-0.63964844","0.15722656","-168.3125","-197.375","52.65625"
"1537899082100","1125","0.11328125","-0.046875","-0.040039062","-137.0","-169.0","45.21875"
"1537899082298","1126","0.034179688","-0.103515625","0.033203125","-36.78125","-94.84375","41.625"
"1537899082298","1127","0.017578125","-0.23046875","0.08496094","15.84375","-66.09375","-8.1875"
"1537899082298","1128","-0.19824219","-0.19042969","-0.3095703","75.21875","30.46875","-63.5"
"1537899082299","1129","-0.9169922","-0.9785156","-1.0693359","99.53125","177.75","-83.03125"
"1537899082299","1130","-0.28320312","-1.9960938","-0.99609375","31.09375","-114.1875","49.125"
"1537899082495","1131","-0.7373047","-0.42285156","-0.45507812","-130.875","-56.4375","0.34375"
"1537899082495","1132","-0.107421875","-1.9960938","-1.2167969","39.03125","-43.625","13.15625"
"1537899082496","1133","0.4580078","-0.6357422","1.0058594","90.96875","-64.4375","-120.8125"
"1537899082497","1134","-0.7109375","-0.2919922","0.3154297","53.5625","315.375","9.75"
"1537899082497","1135","1.9267578","-1.8935547","0.60253906","253.4375","245.84375","-140.9375"
"1537899082696","1136","-0.40527344","-0.7109375","-0.13183594","165.625","66.71875","-57.09375"
"1537899082696","1137","0.24902344","-0.88183594","0.58984375","165.1875","84.34375","-34.8125"
"1537899082696","1138","-0.0703125","-0.9580078","-0.27148438","162.3125","124.9375","-87.125"
"1537899082697","1139","-0.064453125","-0.6376953","-0.18652344","24.5","136.46875","-47.875"
"1537899082893","1140","0.32128906","-0.7832031","0.6357422","65.28125","144.21875","-57.8125"
"1537899082894","1141","0.203125","-1.0224609","-0.49902344","82.75","5.8125","-43.09375"
"1537899082894","1142","-0.038085938","-0.9267578","0.036132812","45.75","96.0","-25.90625"
"1537899082894","1143","0.5751953","-1.3115234","0.123046875","-10.65625","88.375","2.0625"
"1537899082894","1144","0.23242188","-1.2753906","-0.14648438","-14.625","12.09375","-24.90625"
"1537899083091","1145","0.44335938","-1.7871094","-0.0859375","-88.40625","6.0","65.21875"
"1537899083093","1146","-0.328125","-1.2197266","0.19921875","-220.65625","-35.875","78.0"
"1537899083093","1147","-0.16113281","-1.5976562","-9.765625E-4","-202.59375","-129.03125","110.6875"
"1537899083094","1148","0.8642578","-1.9960938","2.008789","1.5625","-100.46875","31.0"
"1537899083094","1149","0.32226562","-1.1894531","-0.16015625","-232.8125","-198.28125","35.25"
"1537899083292","1150","0.0068359375","-0.6123047","0.14648438","-164.09375","-196.90625","24.28125"
"1537899083292","1151","0.0703125","-0.10546875","0.11328125","-136.25","-173.09375","24.65625"
"1537899083292","1152","0.11425781","-0.10449219","0.06347656","-61.5625","-126.15625","28.5"
"1537899083292","1153","0.0029296875","-0.41308594","0.08496094","7.25","-95.4375","-29.1875"
"1537899083292","1154","-0.34570312","-0.2705078","-0.4091797","57.03125","38.8125","-97.78125"
"1537899083488","1155","-0.8310547","-0.92578125","-1.1640625","74.4375","224.5625","-125.4375"
"1537899083489","1156","-0.21289062","-1.9960938","-0.9785156","53.0","-131.65625","30.0"
"1537899083490","1157","-0.9003906","-0.7636719","-0.44628906","-80.90625","-8.0","6.6875"
"1537899083490","1158","0.091796875","-1.9960938","-1.1923828","-42.5625","-5.1875","-2.59375"
"1537899083490","1159","0.16210938","-0.16894531","1.046875","140.21875","-69.5","-104.5625"
"1537899083690","1160","-0.59375","-0.15625","0.2685547","5.21875","396.25","7.3125"
"1537899083690","1161","1.65625","-1.9960938","-0.22949219","204.75","114.875","-126.3125"
"1537899083888","1162","-0.35546875","-0.8203125","0.3828125","219.625","103.78125","-43.28125"
"1537899083888","1163","-0.16894531","-0.68359375","0.030273438","150.90625","-11.15625","-49.9375"
"1537899083889","1164","0.18847656","-0.96777344","-0.0048828125","139.5","227.25","-111.78125"
"1537899083890","1165","0.07421875","-0.6464844","0.6279297","60.40625","204.96875","-36.46875"
"1537899083891","1166","0.29882812","-0.88378906","0.08203125","79.4375","68.625","-32.78125"
"1537899083891","1167","0.35351562","-0.9111328","-0.4091797","80.90625","93.5625","-52.9375"
"1537899083891","1168","-0.055664062","-1.2119141","-0.0859375","20.40625","64.8125","-14.125"
"1537899083891","1169","0.59765625","-1.4824219","0.032226562","-3.875","48.71875","-12.90625"
"1537899084085","1170","0.38964844","-1.3789062","-0.296875","-29.375","18.75","4.75"
"1537899084085","1171","0.5957031","-1.9511719","0.15234375","-206.4375","-9.75","60.34375"
"1537899084086","1172","-0.4248047","-0.78808594","0.7626953","-212.5","-38.875","77.0625"
"1537899084086","1173","0.21972656","-1.9580078","-0.63378906","-222.1875","-46.125","143.59375"
"1537899084086","1174","1.0849609","-1.2060547","-0.107421875","-319.1875","-303.21875","-75.6875"
"1537899084286","1175","0.15136719","-0.7675781","0.16015625","-211.8125","-262.6875","49.59375"
"1537899084287","1176","0.038085938","-0.23144531","0.17773438","-163.65625","-190.0","45.09375"
"1537899084288","1177","0.12011719","0.08105469","-0.16210938","-109.71875","-84.96875","57.40625"
"1537899084288","1178","0.05859375","-0.24023438","0.17089844","-19.25","-118.15625","19.53125"
"1537899084288","1179","-0.30566406","-0.22363281","-0.21191406","71.4375","-45.71875","-75.6875"
"1537899084484","1180","-0.4189453","-0.6982422","-0.46191406","133.625","97.3125","-133.9375"
"1537899084484","1181","-0.6113281","-1.9960938","-0.9375","-1.0","86.125","-22.53125"
"1537899084484","1182","-0.7060547","-0.6220703","-0.91308594","-78.40625","-98.0625","43.25"
"1537899084484","1183","-0.14648438","-1.1484375","-0.80566406","-9.625","-6.09375","-32.78125"
"1537899084484","1184","1.5205078","-1.9960938","0.111328125","-14.125","-75.625","21.15625"
"1537899084683","1185","-1.0771484","1.0742188","0.7871094","155.78125","301.65625","-44.09375"
"1537899084683","1186","0.7236328","-1.9960938","-1.1162109","89.21875","-18.25","-72.46875"
"1537899084883","1187","0.9638672","-0.53515625","0.9892578","227.8125","160.15625","-50.625"
"1537899084883","1188","-0.38964844","-0.5546875","-0.45410156","90.125","-43.09375","-85.15625"
"1537899084885","1189","-0.10058594","-0.88964844","-0.20898438","148.84375","91.125","-75.9375"
"1537899084885","1190","-0.0048828125","-0.75878906","-0.06542969","30.375","206.125","-47.8125"
"1537899084885","1191","0.36132812","-0.7001953","0.58691406","74.375","112.6875","-41.9375"
"1537899084885","1192","0.10644531","-1.0537109","-0.50097656","92.875","1.90625","-37.96875"
"1537899084886","1193","0.19433594","-1.0869141","-0.06640625","70.65625","73.6875","-33.53125"
"1537899084886","1194","0.5517578","-1.2861328","0.024414062","8.09375","54.21875","-3.5625"
"1537899085079","1195","-9.765625E-4","-1.2402344","-0.051757812","-3.5625","49.9375","-31.875"
"1537899085079","1196","0.61328125","-1.7509766","-0.001953125","-94.8125","36.625","53.75"
"1537899085079","1197","-0.08496094","-1.2978516","0.52441406","-239.65625","-48.15625","64.3125"
"1537899085079","1198","-0.20019531","-1.6328125","0.021484375","-194.59375","-101.4375","95.375"
"1537899085080","1199","0.43066406","-1.9960938","1.6396484","50.375","-308.46875","16.15625"
"1537899085277","1200","0.21484375","-1.2578125","0.51464844","-242.03125","-214.59375","61.1875"
"1537899085279","1201","0.09082031","-0.44628906","0.18847656","-174.40625","-197.4375","50.8125"
"1537899085280","1202","0.20117188","0.0625","-9.765625E-4","-145.78125","-127.75","65.21875"
"1537899085280","1203","0.18847656","-0.18457031","0.11328125","-114.40625","-117.0625","56.75"
"1537899085280","1204","-0.16113281","-0.3623047","0.125","28.0","-100.28125","-24.125"
"1537899085476","1205","-0.37402344","-0.15917969","-0.43164062","121.8125","36.9375","-94.75"
"1537899085477","1206","-0.625","-0.76171875","-0.9169922","133.875","186.15625","-145.34375"
"1537899085477","1207","-0.02734375","-1.9960938","-1.5517578","2.78125","-78.3125","43.5"
"1537899085477","1208","-0.9316406","-0.6816406","-0.3359375","-69.71875","-35.6875","35.75"
"1537899085478","1209","0.80859375","-1.9960938","-0.10644531","44.28125","116.15625","51.375"
"1537899085675","1210","0.16308594","0.82910156","0.6816406","98.0","45.1875","-87.46875"
"1537899085675","1211","0.69140625","-1.1425781","-0.8486328","53.3125","81.90625","-85.21875"
"1537899085677","1212","0.3720703","-0.9296875","0.7001953","262.0","206.125","-86.3125"
"1537899085678","1213","-0.19433594","-0.33789062","-0.18457031","160.6875","-30.4375","-74.34375"
"1537899085678","1214","0.36816406","-1.0996094","0.047851562","115.15625","59.28125","-42.125"
"1537899085874","1215","-0.15039062","-0.9511719","-0.038085938","12.0","210.9375","-63.0"
"1537899085874","1216","0.051757812","-0.7314453","0.66503906","58.03125","121.28125","-55.1875"
"1537899085874","1217","0.44433594","-0.99609375","-0.5253906","77.84375","39.8125","-34.8125"
"1537899085875","1218","0.0126953125","-0.7246094","0.078125","52.40625","69.78125","-39.8125"
"1537899085876","1219","0.61621094","-1.2900391","-0.1171875","6.1875","76.96875","-3.875"
"1537899086072","1220","0.26464844","-1.5292969","-0.07128906","-19.5625","9.53125","-26.25"
"1537899086073","1221","0.44726562","-1.8125","-0.06933594","-67.28125","7.5","39.78125"
"1537899086073","1222","-0.17871094","-1.4052734","0.3330078","-239.71875","3.90625","58.46875"
"1537899086074","1223","-0.39648438","-1.28125","0.32714844","-195.46875","-84.84375","88.59375"
"1537899086074","1224","0.115234375","-1.8447266","0.08886719","-177.53125","-21.90625","100.5"
"1537899086271","1225","0.47265625","-0.9121094","-0.3671875","-279.25","-207.15625","32.40625"
"1537899086272","1226","0.20214844","-0.6347656","0.35253906","-177.6875","-177.0","37.65625"
"1537899086272","1227","0.13183594","-0.16601562","0.16796875","-158.40625","-163.3125","40.03125"
"1537899086272","1228","0.059570312","-0.00390625","0.06542969","-80.65625","-118.65625","51.4375"
"1537899086273","1229","0.032226562","-0.1640625","-0.04296875","20.34375","-78.53125","-14.90625"
"1537899086470","1230","-0.15820312","-0.39746094","-0.34570312","77.78125","27.09375","-88.15625"
"1537899086470","1231","-1.1806641","-0.984375","-1.5996094","65.46875","246.09375","-56.21875"
"1537899086470","1232","-0.27246094","-1.9951172","-0.7080078","60.53125","-192.5","47.71875"
"1537899086471","1233","-0.9638672","-0.2578125","-0.1640625","-86.15625","-31.3125","-23.5"
"1537899086471","1234","-0.2861328","-1.9960938","-0.9980469","48.3125","-8.0","38.1875"
"1537899086671","1235","0.16992188","-0.09863281","0.54785156","70.21875","-50.84375","-86.5"
"1537899086671","1236","-0.20410156","-0.32714844","0.203125","74.75","304.21875","-8.875"
"1537899086672","1237","1.8369141","-1.9765625","0.7558594","238.3125","275.65625","-116.21875"
"1537899086673","1238","-0.40820312","-0.6074219","-0.10253906","207.5","10.9375","-62.875"
"1537899086673","1239","-0.047851562","-0.9560547","0.46972656","211.875","28.28125","-55.25"
"1537899086867","1240","0.07910156","-1.0986328","-0.51660156","157.1875","98.625","-87.28125"
"1537899086868","1241","-0.10253906","-0.65234375","0.08691406","25.78125","209.1875","-57.5"
"1537899086868","1242","0.42285156","-0.7421875","0.55371094","72.90625","95.96875","-48.96875"
"1537899086870","1243","0.2109375","-1.0039062","-0.6425781","83.46875","30.21875","-42.0"
"1537899087066","1244","0.16992188","-1.1367188","0.10839844","56.625","89.84375","-25.03125"
"1537899087067","1245","0.65527344","-1.5068359","0.057617188","0.59375","45.34375","-2.21875"
"1537899087067","1246","0.051757812","-1.0332031","-0.10644531","-12.1875","22.34375","-16.875"
"1537899087068","1247","0.5185547","-1.7167969","0.12597656","-113.84375","11.65625","69.1875"
"1537899087069","1248","-0.41796875","-1.1806641","0.57421875","-220.4375","-7.3125","51.75"
"1537899087069","1249","-0.12988281","-1.4111328","0.032226562","-161.71875","-72.8125","95.625"
"1537899087265","1250","0.5654297","-1.9960938","0.8935547","-117.8125","-173.21875","13.59375"
"1537899087265","1251","0.328125","-1.1816406","0.3251953","-210.78125","-204.21875","46.625"
"1537899087265","1252","0.013671875","-0.5878906","0.140625","-160.0625","-198.125","34.96875"
"1537899087266","1253","0.107421875","-0.06933594","-0.022460938","-125.03125","-142.875","40.5625"
"1537899087266","1254","0.028320312","-0.12792969","0.11035156","-46.53125","-91.53125","33.4375"
"1537899087463","1255","0.041015625","-0.21679688","0.09472656","30.96875","-83.375","-28.34375"
"1537899087463","1256","-0.30273438","-0.3154297","-0.40039062","118.3125","33.875","-73.5"
"1537899087464","1257","-0.8623047","-1.2509766","-0.9277344","79.75","132.6875","-68.375"
"1537899087464","1258","-0.28515625","-1.9960938","-0.99902344","-9.25","-122.75","52.65625"
"1537899087465","1259","-0.78027344","-0.42871094","-0.26464844","-94.5","-65.375","-12.40625"
"1537899087664","1260","0.22753906","-1.9960938","-1.0810547","41.0625","-36.5625","-0.6875"
"1537899087666","1261","-0.20019531","-0.06738281","1.2080078","163.0625","-34.21875","-129.78125"
"1537899087666","1262","-0.049804688","-0.49023438","-0.3330078","-37.375","150.875","0.21875"
"1537899087861","1263","1.7949219","-1.5039062","0.7558594","290.6875","266.84375","-129.28125"
"1537899087862","1264","-0.40625","-0.75683594","-0.00390625","159.9375","37.125","-43.65625"
"1537899087863","1265","0.059570312","-0.86035156","0.5986328","135.96875","20.28125","-36.40625"
"1537899087863","1266","0.051757812","-0.9941406","-0.21386719","106.71875","163.9375","-90.40625"
"1537899087863","1267","0.1640625","-0.8261719","0.26953125","22.3125","171.53125","-50.375"
"1537899087864","1268","0.2685547","-0.81640625","0.16601562","67.71875","43.90625","-46.21875"
"1537899087865","1269","0.17382812","-1.1142578","-0.2578125","83.09375","49.9375","-57.28125"
"1537899088060","1270","-0.15625","-1.0488281","-0.23242188","58.4375","28.21875","-22.71875"
"1537899088060","1271","0.83984375","-1.3583984","0.18945312","-0.875","85.75","-0.875"
"1537899088061","1272","0.31054688","-1.2460938","-0.25","-24.375","-5.375","-19.78125"
"1537899088061","1273","0.25585938","-1.7265625","0.051757812","-152.5","6.71875","59.6875"
