"# PDIoT walking data"
"# Start time: 20181001T212040"
"# Group: D"
"# Subject: Goda"
"# Activity type: Climbing stairs"
"# Sensor position: Wrist"
"# Side of body: Left"
"# Sensor mounting: Body"
"# Number of steps: 100"
"# Notes: "
""
"timestamp","seq","accel_x","accel_y","accel_z","gyro_x","gyro_y","gyro_z"
"1538425241006","0","0.9482422","0.15429688","-0.14160156","-10.03125","8.4375","23.25"
"1538425241007","1","0.9746094","0.15625","-0.15722656","-11.25","14.84375","31.5625"
"1538425241008","2","0.95703125","0.16601562","-0.16699219","-12.8125","18.625","36.6875"
"1538425241008","3","0.9824219","0.16992188","-0.15917969","-13.4375","19.84375","38.84375"
"1538425241009","4","0.9794922","0.16699219","-0.171875","-10.75","21.4375","39.625"
"1538425241205","5","0.9951172","0.1796875","-0.18066406","-6.28125","19.28125","38.15625"
"1538425241405","6","0.9707031","0.18261719","-0.16796875","-3.4375","14.28125","33.21875"
"1538425241405","7","0.94140625","0.18164062","-0.17285156","2.25","11.90625","28.5625"
"1538425241406","8","0.93652344","0.18261719","-0.18164062","4.9375","11.125","25.59375"
"1538425241406","9","1.0205078","0.18652344","-0.17773438","1.28125","8.0625","26.1875"
"1538425241406","10","1.0917969","0.19726562","-0.15917969","-4.03125","6.15625","26.3125"
"1538425241409","11","1.140625","0.21386719","-0.15429688","-5.75","5.375","22.40625"
"1538425241410","12","1.2109375","0.23925781","-0.18847656","3.53125","5.75","18.3125"
"1538425241410","13","1.4189453","0.23242188","-0.1328125","16.59375","15.28125","14.34375"
"1538425241410","14","1.640625","0.25976562","-0.21679688","37.40625","3.375","3.125"
"1538425241603","15","1.3720703","0.203125","-0.24609375","42.21875","-29.21875","-37.09375"
"1538425241802","16","0.92089844","0.05859375","-0.21289062","48.03125","-48.21875","-94.96875"
"1538425241802","17","0.9941406","0.14746094","-0.24414062","76.59375","-52.78125","-136.84375"
"1538425241802","18","1.1240234","0.07421875","-0.29492188","101.625","-76.78125","-147.28125"
"1538425241803","19","1.1708984","0.036132812","-0.24707031","82.3125","-94.59375","-145.1875"
"1538425241805","20","1.0263672","0.045898438","-0.21484375","42.34375","-94.21875","-137.8125"
"1538425241805","21","0.84375","0.0546875","-0.19335938","14.625","-90.03125","-123.9375"
"1538425241805","22","0.6816406","0.13476562","-0.19824219","5.375","-77.625","-106.3125"
"1538425241806","23","0.6171875","0.1796875","-0.21289062","17.25","-66.21875","-89.28125"
"1538425241806","24","0.6015625","0.18847656","-0.33496094","16.65625","-52.96875","-71.46875"
"1538425242199","25","0.6386719","0.2529297","-0.3955078","1.21875","-46.25","-52.125"
"1538425242199","26","0.6357422","0.29882812","-0.3701172","-1.40625","-32.40625","-35.28125"
"1538425242199","27","0.5878906","0.29492188","-0.49023438","16.21875","-9.6875","-17.5"
"1538425242200","28","0.625","0.20507812","-0.5","16.28125","21.25","10.09375"
"1538425242200","29","0.8642578","0.19335938","-0.41601562","-10.9375","72.875","59.53125"
"1538425242201","30","1.3984375","0.21386719","-0.4482422","-26.4375","116.09375","127.15625"
"1538425242202","31","1.1943359","0.26367188","-0.3779297","-48.90625","100.96875","155.71875"
"1538425242400","32","1.0761719","0.21289062","-0.20703125","-47.375","98.34375","154.78125"
"1538425242400","33","1.2197266","0.19726562","-0.16503906","-14.65625","89.71875","147.90625"
"1538425242401","34","1.1308594","0.20410156","-0.14648438","-11.3125","47.5625","119.75"
"1538425242401","35","0.96484375","0.083984375","-0.051757812","-53.15625","44.0","100.65625"
"1538425242401","36","0.82910156","0.1171875","-0.099609375","-82.15625","46.8125","89.3125"
"1538425242401","37","0.6845703","0.16699219","-0.078125","-93.75","45.65625","84.46875"
"1538425242401","38","0.8359375","0.13769531","-0.017578125","-73.875","47.90625","82.78125"
"1538425242596","39","1.0654297","0.18359375","-0.030273438","-37.53125","47.6875","87.0"
"1538425242597","40","1.4208984","0.19042969","-0.013671875","-2.09375","35.65625","84.65625"
"1538425242597","41","1.2392578","0.16308594","-0.10644531","21.78125","15.03125","64.65625"
"1538425242597","42","1.3408203","0.09472656","-0.16113281","32.78125","12.8125","30.46875"
"1538425242598","43","1.5732422","0.11816406","-0.15136719","-15.9375","-8.71875","-15.75"
"1538425242797","44","1.1435547","0.05078125","-0.22167969","-55.4375","-39.125","-75.5625"
"1538425242798","45","0.8613281","0.07519531","-0.35546875","-42.3125","-44.5625","-139.46875"
"1538425242798","46","1.1367188","0.07519531","-0.2763672","1.40625","-53.59375","-182.96875"
"1538425242798","47","1.3574219","-0.0068359375","-0.17675781","-3.0","-68.15625","-201.40625"
"1538425242798","48","1.0195312","0.05859375","-0.19921875","-13.5","-74.03125","-196.78125"
"1538425242993","49","0.8232422","0.14355469","-0.21875","10.1875","-62.8125","-181.8125"
"1538425242994","50","0.6611328","0.17089844","-0.21386719","54.4375","-62.625","-158.4375"
"1538425242995","51","0.52246094","0.11035156","-0.15136719","72.5","-58.59375","-134.6875"
"1538425242995","52","0.5292969","0.18554688","-0.24804688","54.1875","-37.21875","-106.5625"
"1538425242996","53","0.7158203","0.26953125","-0.27441406","57.96875","-15.125","-76.34375"
"1538425243195","54","0.6953125","0.30566406","-0.43359375","28.6875","10.03125","-39.53125"
"1538425243196","55","0.82714844","0.35253906","-0.48339844","-8.125","45.21875","-7.3125"
"1538425243196","56","1.0830078","0.515625","-0.49316406","-20.46875","74.15625","29.96875"
"1538425243196","57","1.4296875","0.7441406","-0.48046875","42.15625","77.875","57.5"
"1538425243196","58","1.1601562","0.61621094","-0.47460938","100.875","51.53125","58.53125"
"1538425243392","59","0.8310547","0.4189453","-0.3173828","116.5","38.46875","35.34375"
"1538425243392","60","0.85058594","0.53027344","-0.31347656","81.59375","34.5","14.15625"
"1538425243393","61","0.8701172","0.41503906","-0.3388672","52.90625","17.28125","12.03125"
"1538425243393","62","0.6894531","0.42382812","-0.2421875","-0.9375","2.375","4.53125"
"1538425243394","63","0.61328125","0.37304688","-0.33691406","-11.78125","-2.1875","-3.90625"
"1538425243590","64","0.43164062","0.36132812","-0.25683594","-14.78125","-8.21875","-9.15625"
"1538425243591","65","0.40234375","0.4013672","-0.27734375","-19.96875","2.5625","-19.09375"
"1538425243591","66","0.4951172","0.40039062","-0.28515625","7.0","3.90625","-20.625"
"1538425243591","67","0.66796875","0.3720703","-0.17578125","30.1875","4.03125","-11.03125"
"1538425243592","68","0.83984375","0.34570312","-0.20507812","31.96875","11.375","7.53125"
"1538425243791","69","1.0927734","0.3017578","-0.22167969","35.5","23.5","30.21875"
"1538425243791","70","1.3945312","0.28222656","-0.2265625","37.96875","31.5","62.8125"
"1538425243791","71","1.5400391","0.15820312","-0.18652344","31.3125","34.125","90.96875"
"1538425243791","72","1.65625","0.06542969","-0.13476562","-13.6875","47.96875","112.0"
"1538425243792","73","1.3916016","0.038085938","-0.21484375","-40.65625","39.25","120.8125"
"1538425244187","74","0.9716797","0.091796875","-0.25683594","-62.4375","40.28125","112.875"
"1538425244187","75","0.9873047","0.1171875","-0.36328125","-29.1875","28.75","80.03125"
"1538425244187","76","0.8486328","-0.043945312","-0.20800781","-20.75","19.96875","49.21875"
"1538425244188","77","0.8847656","0.020507812","-0.12890625","-26.75","15.375","34.0"
"1538425244387","78","0.75","0.025390625","-0.13378906","-39.0","11.65625","32.46875"
"1538425244388","79","0.72753906","0.18066406","-0.23242188","-23.75","13.8125","39.3125"
"1538425244388","80","0.8027344","0.1796875","-0.20996094","14.8125","7.03125","44.6875"
"1538425244388","81","0.8017578","0.17871094","-0.19921875","38.9375","6.46875","41.28125"
"1538425244389","82","0.8808594","0.09375","-0.17578125","59.875","7.8125","29.6875"
"1538425244389","83","0.9560547","0.0390625","-0.18359375","54.1875","8.5625","19.84375"
"1538425244389","84","0.9082031","0.12402344","-0.21777344","60.46875","3.71875","12.59375"
"1538425244389","85","0.890625","0.09082031","-0.1953125","71.53125","-5.125","6.78125"
"1538425244390","86","0.8769531","0.07128906","-0.16796875","68.09375","-13.25","1.59375"
"1538425244584","87","1.0898438","0.20898438","-0.11035156","89.28125","-9.03125","-13.28125"
"1538425244585","88","1.375","0.19824219","-0.1171875","98.375","-1.9375","-14.5625"
"1538425244585","89","1.5341797","0.18945312","-0.12890625","86.0","-4.15625","-17.4375"
"1538425244585","90","1.4912109","0.2939453","-0.055664062","71.46875","-8.71875","-36.25"
"1538425244585","91","1.2939453","0.24902344","-0.060546875","84.78125","-37.40625","-71.28125"
"1538425244784","92","1.0263672","0.36816406","0.40429688","82.375","-58.53125","-118.28125"
"1538425244785","93","1.53125","0.32714844","0.4736328","107.53125","-24.65625","-165.625"
"1538425244785","94","1.3896484","0.083984375","0.30273438","151.78125","-43.28125","-188.09375"
"1538425244785","95","1.2138672","0.18261719","0.12890625","89.90625","-41.5","-187.3125"
"1538425244786","96","1.1328125","0.24902344","0.049804688","52.1875","-40.59375","-188.46875"
"1538425244981","97","0.9785156","0.24414062","0.13574219","36.0625","-33.5","-178.5625"
"1538425244982","98","0.9169922","0.27148438","0.1328125","68.21875","-18.59375","-163.9375"
"1538425244982","99","0.84277344","0.19042969","0.025390625","103.5625","-18.0625","-146.28125"
"1538425244982","100","0.96191406","0.14453125","-0.005859375","107.34375","-14.03125","-119.8125"
"1538425244983","101","0.9345703","0.083984375","-0.040039062","79.40625","-1.65625","-85.0625"
"1538425245180","102","1.1445312","0.06738281","-0.13671875","73.40625","18.375","-36.78125"
"1538425245180","103","1.1367188","0.0078125","-0.18554688","53.9375","23.03125","16.0"
"1538425245181","104","1.2539062","0.017578125","-0.20507812","29.46875","43.78125","72.03125"
"1538425245181","105","1.2744141","0.017578125","-0.16992188","-5.5625","54.5625","119.34375"
"1538425245181","106","1.1552734","0.076171875","-0.2109375","-24.78125","68.125","149.125"
"1538425245381","107","1.1699219","0.041992188","-0.24121094","-35.15625","82.03125","165.40625"
"1538425245382","108","1.1855469","0.07519531","-0.22167969","-37.90625","91.0625","174.15625"
"1538425245383","109","1.2070312","0.12988281","-0.23535156","-33.28125","91.875","175.71875"
"1538425245383","110","1.1591797","0.12597656","-0.21289062","-31.125","85.8125","172.0625"
"1538425245383","111","1.0273438","0.15722656","-0.20703125","-33.59375","77.78125","164.875"
"1538425245578","112","1.0019531","0.17773438","-0.23339844","-34.75","68.96875","151.625"
"1538425245578","113","0.8535156","0.19921875","-0.23730469","-43.84375","54.8125","131.46875"
"1538425245579","114","0.83203125","0.23339844","-0.27929688","-42.1875","45.53125","109.3125"
"1538425245579","115","0.90527344","0.23632812","-0.3046875","-34.75","37.46875","84.0625"
"1538425245579","116","1.1455078","0.2548828","-0.32421875","-24.4375","29.59375","57.03125"
"1538425245779","117","1.2480469","0.26660156","-0.31835938","-18.0625","15.21875","18.9375"
"1538425245779","118","1.3369141","0.27734375","-0.2890625","3.15625","9.84375","-26.1875"
"1538425245779","119","1.3886719","0.27148438","-0.37109375","60.78125","-6.34375","-64.6875"
"1538425245779","120","1.2519531","0.23046875","-0.33691406","101.75","-35.5625","-94.71875"
"1538425245780","121","1.2382812","0.115234375","-0.05078125","49.71875","-69.9375","-134.9375"
"1538425245976","122","1.4189453","0.21191406","0.10839844","8.65625","-94.46875","-175.28125"
"1538425245976","123","1.6699219","0.10644531","0.18945312","31.3125","-102.15625","-216.3125"
"1538425245977","124","1.3867188","0.037109375","0.043945312","43.875","-99.90625","-237.53125"
"1538425245977","125","1.2460938","0.15722656","-0.12792969","27.625","-84.21875","-232.28125"
"1538425245977","126","1.0273438","0.19921875","-0.087890625","30.375","-75.25","-224.125"
"1538425246174","127","0.8417969","0.17871094","-0.02734375","45.9375","-62.25","-201.84375"
"1538425246374","128","0.6845703","0.15039062","0.0146484375","70.84375","-51.375","-170.59375"
"1538425246572","129","0.6669922","0.11425781","-0.0068359375","78.78125","-34.90625","-131.28125"
"1538425246572","130","0.7675781","0.080078125","-0.087890625","68.90625","-17.75","-81.65625"
"1538425246573","131","0.77246094","0.078125","-0.12792969","38.625","4.34375","-23.1875"
"1538425246573","132","0.9511719","0.109375","-0.19628906","12.9375","37.78125","38.9375"
"1538425246574","133","1.0566406","0.09472656","-0.27148438","12.0625","58.0625","98.71875"
"1538425246574","134","1.3632812","0.053710938","-0.20117188","-13.6875","92.84375","164.0625"
"1538425246574","135","1.5976562","0.087890625","-0.19726562","-39.1875","100.46875","217.25"
"1538425246575","136","1.3691406","0.076171875","-0.22363281","-69.96875","95.46875","227.96875"
"1538425246576","137","1.4267578","0.07421875","-0.21875","-89.0625","92.84375","208.6875"
"1538425246771","138","0.8154297","0.23925781","-0.14257812","-103.65625","22.09375","107.5625"
"1538425246772","139","0.8535156","0.23828125","-0.13378906","-97.125","17.84375","101.375"
"1538425246772","140","0.9921875","0.2919922","-0.16308594","-85.9375","19.28125","96.1875"
"1538425246772","141","1.1435547","0.25195312","-0.2578125","-73.6875","18.6875","81.75"
"1538425246772","142","1.0878906","0.3310547","-0.29003906","-62.375","20.34375","53.53125"
"1538425246969","143","1.0908203","0.36914062","-0.2890625","-19.125","20.46875","14.90625"
"1538425246969","144","1.3242188","0.3701172","-0.23144531","29.15625","30.15625","-25.125"
"1538425246971","145","1.6484375","0.30273438","-0.28125","73.0","15.4375","-64.6875"
"1538425246971","146","1.2167969","0.14746094","-0.26757812","70.90625","-23.84375","-116.375"
"1538425246971","147","1.0205078","0.17578125","-0.14453125","59.375","-31.84375","-162.84375"
"1538425247168","148","1.3046875","0.23925781","-0.046875","68.15625","-38.875","-187.625"
"1538425247168","149","1.5166016","0.203125","-0.001953125","87.875","-57.125","-194.9375"
"1538425247168","150","1.3574219","0.10449219","0.01953125","103.625","-79.65625","-201.46875"
"1538425247168","151","1.0771484","0.06738281","-0.0234375","85.9375","-80.125","-203.34375"
"1538425247169","152","0.9658203","0.09082031","-0.046875","74.21875","-70.3125","-200.5"
"1538425247368","153","0.8515625","0.087890625","-0.016601562","57.3125","-66.71875","-186.5625"
"1538425247369","154","0.7626953","0.125","-0.017578125","43.4375","-50.65625","-158.0625"
"1538425247369","155","0.97753906","0.1171875","-0.07128906","47.09375","-30.15625","-108.375"
"1538425247369","156","1.1337891","0.059570312","-0.11816406","39.53125","-15.1875","-45.53125"
"1538425247370","157","1.0283203","0.056640625","-0.10839844","11.78125","-2.875","9.59375"
"1538425247565","158","1.1435547","0.036132812","-0.20117188","7.0625","29.0625","58.71875"
"1538425247566","159","1.1884766","0.02734375","-0.15625","-5.0","40.15625","103.59375"
"1538425247566","160","1.1855469","0.08203125","-0.17773438","-20.625","63.90625","146.125"
"1538425247566","161","1.1806641","0.043945312","-0.19628906","-36.375","81.6875","175.375"
"1538425247567","162","1.3085938","0.06640625","-0.22363281","-54.21875","95.53125","196.84375"
"1538425247765","163","1.3095703","0.11425781","-0.23730469","-56.53125","89.59375","200.03125"
"1538425247766","164","1.1113281","0.11328125","-0.23925781","-56.09375","72.8125","184.53125"
"1538425247766","165","0.8808594","0.11816406","-0.16992188","-57.875","61.65625","164.875"
"1538425247766","166","0.92285156","0.13378906","-0.1484375","-75.15625","57.125","146.5"
"1538425247766","167","0.92871094","0.20703125","-0.14648438","-92.96875","45.78125","125.0"
"1538425247965","168","1.0625","0.25585938","-0.17480469","-93.5625","41.625","106.40625"
"1538425248161","169","1.0859375","0.30371094","-0.25","-80.625","35.71875","89.84375"
"1538425248161","170","1.0800781","0.31640625","-0.3330078","-52.6875","28.03125","67.9375"
"1538425248165","171","1.0214844","0.31933594","-0.30078125","-18.1875","22.53125","37.125"
"1538425248165","172","1.1386719","0.3125","-0.2548828","28.1875","22.34375","3.6875"
"1538425248166","173","1.4501953","0.2841797","-0.31445312","73.15625","20.6875","-32.8125"
"1538425248166","174","1.6513672","0.16503906","-0.28027344","80.4375","-14.40625","-77.0"
"1538425248166","175","1.2724609","0.060546875","-0.23632812","67.5","-50.96875","-130.53125"
"1538425248166","176","1.0712891","0.10253906","-0.041992188","45.53125","-65.0625","-174.3125"
"1538425248166","177","1.2939453","0.140625","0.09375","50.59375","-74.09375","-191.34375"
"1538425248360","178","1.3261719","0.12988281","0.17285156","53.53125","-85.75","-187.5625"
"1538425248562","179","1.1796875","0.18359375","0.04296875","42.28125","-74.46875","-178.5625"
"1538425248562","180","1.0537109","0.17089844","-0.03125","11.46875","-63.21875","-173.34375"
"1538425248563","181","0.87402344","0.1796875","-0.01953125","5.96875","-49.75","-166.0"
"1538425248563","182","0.7998047","0.22070312","0.0234375","23.96875","-37.40625","-148.65625"
"1538425248563","183","0.7392578","0.22363281","0.053710938","51.8125","-27.34375","-130.59375"
"1538425248565","184","0.82910156","0.20703125","0.033203125","71.53125","-15.625","-106.3125"
"1538425248565","185","0.90234375","0.14941406","-0.020507812","80.6875","-7.25","-75.1875"
"1538425248565","186","1.0429688","0.11035156","-0.061523438","69.15625","12.34375","-30.09375"
"1538425248565","187","1.0654297","0.11035156","-0.16601562","50.53125","35.28125","19.0625"
"1538425248759","188","1.1738281","0.09472656","-0.25097656","34.96875","61.21875","74.34375"
"1538425248759","189","1.2998047","0.03515625","-0.1953125","20.75","75.9375","131.46875"
"1538425248759","190","1.1757812","0.08984375","-0.19335938","-11.78125","86.375","167.6875"
"1538425248759","191","1.1416016","0.04296875","-0.2861328","-27.34375","95.21875","178.84375"
"1538425248759","192","1.3574219","0.07910156","-0.3203125","-35.09375","92.71875","181.46875"
"1538425249155","193","1.40625","0.11621094","-0.2421875","-40.15625","75.6875","172.5625"
"1538425249156","194","1.2392578","0.17285156","-0.14746094","-51.53125","55.78125","146.0"
"1538425249156","195","0.9658203","0.1640625","-0.23242188","-29.5625","47.0625","121.15625"
"1538425249156","196","0.85839844","0.15722656","-0.26953125","-30.84375","39.4375","101.375"
"1538425249157","197","0.8876953","0.21972656","-0.19433594","-51.28125","33.5625","85.65625"
"1538425249158","198","0.89941406","0.27929688","-0.22070312","-45.0","25.53125","75.4375"
"1538425249158","199","0.8701172","0.30273438","-0.2763672","-10.75","16.0625","62.75"
"1538425249160","200","0.80371094","0.21386719","-0.2998047","12.0625","0.9375","33.75"
"1538425249162","201","0.8330078","0.15136719","-0.27246094","16.65625","-6.53125","3.125"
"1538425249356","202","1.1777344","0.14941406","-0.22558594","30.875","-7.6875","-35.4375"
"1538425249356","203","1.4287109","0.15429688","-0.23046875","51.25","-1.46875","-35.5625"
"1538425249556","204","1.5673828","0.13769531","-0.3046875","55.84375","-11.09375","-36.25"
"1538425249557","205","1.4785156","0.19433594","-0.21386719","61.03125","-28.5","-53.34375"
"1538425249557","206","1.1845703","0.1875","-0.057617188","80.0625","-53.46875","-83.71875"
"1538425249558","207","1.2919922","0.26953125","0.23925781","98.125","-84.65625","-111.375"
"1538425249558","208","1.0107422","0.21777344","0.44140625","102.46875","-76.65625","-148.1875"
"1538425249558","209","1.1884766","0.22167969","0.48535156","107.65625","-57.25","-168.75"
"1538425249558","210","1.1835938","0.35546875","0.34179688","101.5625","-52.4375","-175.71875"
"1538425249558","211","1.0654297","0.3857422","0.3232422","87.40625","-46.3125","-183.9375"
"1538425249752","212","1.1191406","0.45996094","0.36132812","59.5","-20.3125","-187.4375"
"1538425249752","213","1.0195312","0.43652344","0.24316406","72.75","-9.09375","-188.28125"
"1538425249753","214","0.96875","0.39160156","0.16601562","82.5625","-1.09375","-178.75"
"1538425249753","215","0.91503906","0.3642578","0.08105469","83.0625","4.09375","-162.84375"
"1538425250148","216","0.859375","0.3154297","-0.052734375","74.9375","9.40625","-140.3125"
"1538425250149","217","0.75878906","0.28808594","-0.18164062","70.1875","8.5","-110.84375"
"1538425250349","218","0.6308594","0.234375","-0.14453125","68.90625","18.5","-78.59375"
"1538425250349","219","0.7324219","0.23046875","-0.19726562","77.4375","45.59375","-31.96875"
"1538425250549","220","0.82714844","0.14453125","-0.34472656","95.375","58.71875","16.75"
"1538425250549","221","1.0048828","0.06542969","-0.33203125","85.4375","74.53125","66.34375"
"1538425250549","222","1.2929688","0.056640625","-0.28808594","60.40625","96.1875","118.90625"
"1538425250549","223","1.3994141","0.033203125","-0.3125","27.9375","110.46875","166.28125"
"1538425250551","224","1.3769531","0.076171875","-0.2861328","-16.5625","117.4375","195.5625"
"1538425250551","225","1.3955078","0.14648438","-0.34570312","-63.1875","91.625","182.25"
"1538425250551","226","1.234375","0.21875","-0.28320312","-64.40625","63.4375","143.125"
"1538425250552","227","1.1523438","0.20800781","-0.23828125","-44.375","44.6875","99.8125"
"1538425250552","228","0.85839844","0.203125","-0.203125","-26.125","18.25","52.625"
"1538425250746","229","0.96875","0.1171875","-0.28515625","7.8125","1.34375","10.3125"
"1538425250746","230","1.1396484","0.16601562","-0.30371094","12.4375","4.34375","-10.125"
"1538425250746","231","1.2822266","0.16113281","-0.33789062","32.8125","2.8125","-27.15625"
"1538425250746","232","1.4335938","0.17675781","-0.2578125","40.8125","-3.78125","-40.5625"
"1538425250747","233","1.46875","0.18554688","-0.13378906","32.15625","-13.90625","-59.3125"
"1538425250946","234","1.2900391","0.23828125","-0.13476562","24.28125","-32.21875","-92.875"
"1538425250946","235","1.3232422","0.20507812","0.0078125","52.46875","-44.625","-133.03125"
"1538425250946","236","1.2851562","0.19824219","0.08984375","89.59375","-55.71875","-157.65625"
"1538425250946","237","1.3466797","0.13964844","0.041992188","109.4375","-61.40625","-168.09375"
"1538425250946","238","1.15625","0.11035156","-0.03515625","80.875","-71.46875","-171.125"
"1538425251143","239","1.0039062","0.12792969","-0.036132812","50.53125","-68.09375","-170.59375"
"1538425251143","240","0.8671875","0.13574219","-0.01171875","30.5625","-59.8125","-164.65625"
"1538425251144","241","0.7714844","0.16894531","-0.0048828125","32.34375","-48.875","-151.34375"
"1538425251144","242","0.68359375","0.16699219","-0.01953125","45.59375","-36.0","-130.59375"
"1538425251145","243","0.6640625","0.16894531","-0.055664062","58.03125","-21.53125","-101.90625"
"1538425251343","244","0.6875","0.13085938","-0.09765625","60.125","-3.78125","-64.125"
"1538425251344","245","0.74121094","0.14550781","-0.13867188","48.03125","18.1875","-19.40625"
"1538425251344","246","0.86328125","0.18847656","-0.2109375","44.25","45.96875","27.71875"
"1538425251344","247","1.0488281","0.15722656","-0.36035156","51.5625","66.0625","72.59375"
"1538425251344","248","1.3896484","0.12890625","-0.2841797","28.8125","85.9375","114.28125"
"1538425251542","249","1.4746094","0.11621094","-0.265625","-9.78125","91.125","149.5625"
"1538425251542","250","1.3242188","0.1328125","-0.3408203","-54.34375","86.125","162.71875"
"1538425251542","251","1.1474609","0.111328125","-0.30078125","-88.15625","89.0","159.0"
"1538425251543","252","1.2841797","0.18261719","-0.3125","-73.5625","82.03125","150.875"
"1538425251543","253","1.1904297","0.23046875","-0.25","-52.875","60.3125","134.71875"
"1538425251739","254","1.0302734","0.20410156","-0.21191406","-42.96875","45.21875","113.15625"
"1538425251740","255","0.8876953","0.18261719","-0.24609375","-45.40625","37.59375","95.34375"
"1538425251740","256","0.8378906","0.19824219","-0.22070312","-45.71875","32.40625","81.375"
"1538425251740","257","0.80078125","0.21289062","-0.20410156","-48.53125","28.75","71.90625"
"1538425251741","258","0.7949219","0.26171875","-0.24414062","-33.28125","23.5","66.53125"
"1538425251940","259","0.8417969","0.22753906","-0.2783203","-11.84375","21.6875","60.125"
"1538425251940","260","0.9248047","0.20898438","-0.30664062","0.0","12.9375","45.0"
"1538425251941","261","0.9453125","0.1875","-0.31933594","1.21875","6.28125","22.90625"
"1538425251941","262","1.0292969","0.20605469","-0.34570312","23.625","2.25","3.0625"
"1538425251941","263","1.2294922","0.21484375","-0.359375","62.0625","0.625","-13.46875"
"1538425252136","264","1.4355469","0.12988281","-0.34472656","91.0625","-12.75","-29.84375"
"1538425252137","265","1.5683594","0.07421875","-0.26171875","77.375","-21.96875","-49.3125"
"1538425252137","266","1.6113281","0.17480469","-0.14160156","55.90625","-33.3125","-61.9375"
"1538425252138","267","1.2880859","0.3515625","-0.04296875","76.84375","-75.625","-84.03125"
"1538425252138","268","1.15625","0.47851562","0.2861328","168.3125","-94.40625","-122.5"
"1538425252337","269","1.1308594","0.2626953","0.4091797","172.59375","-83.0625","-162.34375"
"1538425252536","270","1.1904297","0.3720703","0.38085938","106.0625","-80.0625","-181.6875"
"1538425252536","271","1.2041016","0.4423828","0.3125","59.25","-70.78125","-192.6875"
"1538425252536","272","1.1025391","0.5341797","0.35839844","50.03125","-53.8125","-205.25"
"1538425252537","273","1.1416016","0.49023438","0.31054688","61.21875","-33.75","-205.75"
"1538425252538","274","0.9863281","0.39160156","0.12988281","70.0625","-23.125","-202.5625"
"1538425252538","275","0.921875","0.34277344","0.0625","51.0","-10.0625","-191.6875"
"1538425252538","276","0.7988281","0.33496094","-0.0234375","30.25","2.3125","-170.46875"
"1538425252539","277","0.6904297","0.40527344","-0.06640625","40.40625","15.875","-140.0"
"1538425252539","278","0.6796875","0.38867188","-0.14160156","47.09375","29.0","-109.125"
"1538425252933","279","0.50097656","0.37402344","-0.22070312","35.9375","30.84375","-77.5"
"1538425252934","280","0.45214844","0.41308594","-0.28710938","28.625","45.34375","-42.96875"
"1538425252934","281","0.45898438","0.41601562","-0.41601562","46.0625","52.0625","-2.25"
"1538425252934","282","0.55078125","0.43066406","-0.40820312","74.09375","60.0625","38.78125"
"1538425252935","283","0.6816406","0.3310547","-0.40820312","82.15625","79.59375","82.59375"
"1538425252935","284","1.1699219","0.24121094","-0.359375","65.1875","114.21875","137.78125"
"1538425252936","285","1.5341797","0.2265625","-0.37304688","36.3125","132.9375","190.5625"
"1538425252936","286","1.5761719","0.22070312","-0.38964844","21.46875","129.84375","213.5"
"1538425252936","287","1.4248047","0.140625","-0.38183594","24.59375","114.375","199.46875"
"1538425253131","288","1.1777344","0.08496094","-0.2685547","-9.71875","63.59375","123.84375"
"1538425253131","289","1.1455078","0.095703125","-0.234375","-30.65625","52.875","91.75"
"1538425253131","290","0.97558594","0.11230469","-0.33398438","-32.96875","40.46875","74.59375"
"1538425253131","291","0.90722656","0.14355469","-0.3232422","-32.59375","31.25","69.65625"
"1538425253133","292","0.7910156","0.14355469","-0.30273438","-32.84375","21.25","64.21875"
"1538425253330","293","0.7294922","0.080078125","-0.24804688","-37.90625","14.65625","62.21875"
"1538425253530","294","0.68652344","0.13671875","-0.27734375","-31.8125","13.625","59.9375"
"1538425253530","295","0.78808594","0.17480469","-0.29296875","-2.5","10.3125","53.71875"
"1538425253530","296","0.8798828","0.16601562","-0.31152344","29.34375","4.59375","41.625"
"1538425253530","297","0.9189453","0.13671875","-0.33984375","49.78125","-1.75","22.84375"
"1538425253532","298","1.0449219","0.12792969","-0.32128906","48.40625","1.03125","-0.71875"
"1538425253532","299","1.34375","0.123046875","-0.28027344","33.625","2.21875","-23.25"
"1538425253532","300","1.4511719","0.15429688","-0.24121094","18.25","-11.15625","-46.1875"
"1538425253532","301","1.7324219","0.10644531","-0.060546875","-17.90625","-23.6875","-83.0625"
"1538425253532","302","1.2460938","0.13964844","-0.060546875","-37.65625","-54.25","-137.75"
"1538425253727","303","1.0878906","0.17773438","-0.020507812","-13.5625","-47.96875","-179.3125"
"1538425253727","304","1.1621094","0.2919922","-0.0625","32.15625","-34.0625","-191.875"
"1538425253727","305","1.4814453","0.26171875","-0.0234375","65.59375","-45.40625","-186.09375"
"1538425253728","306","1.2314453","0.19238281","0.0078125","62.5","-55.0","-179.1875"
"1538425253728","307","1.0449219","0.13671875","-0.040039062","50.53125","-53.03125","-172.96875"
"1538425253927","308","0.828125","0.12207031","-0.06542969","40.53125","-46.9375","-161.25"
"1538425253928","309","0.65722656","0.15332031","-0.119140625","33.75","-38.6875","-141.90625"
"1538425253928","310","0.62597656","0.18847656","-0.10839844","33.375","-24.09375","-118.46875"
"1538425253928","311","0.6748047","0.13769531","-0.13183594","41.96875","-13.53125","-87.4375"
"1538425253928","312","0.6855469","0.10644531","-0.14257812","33.25","-0.96875","-47.59375"
"1538425254126","313","0.8125","0.16113281","-0.1953125","27.09375","23.6875","-1.5625"
"1538425254126","314","0.9873047","0.10058594","-0.24121094","18.71875","45.21875","54.9375"
"1538425254126","315","1.1416016","0.16992188","-0.29492188","0.34375","62.03125","113.0"
"1538425254126","316","1.4365234","0.14453125","-0.20410156","-13.75","74.96875","164.0625"
"1538425254325","317","1.4960938","0.15625","-0.18554688","-43.40625","76.59375","202.65625"
"1538425254325","318","1.2529297","0.125","-0.13867188","-73.6875","72.21875","207.28125"
"1538425254326","319","1.3828125","0.15332031","-0.15820312","-99.0625","76.25","191.65625"
"1538425254326","320","1.3642578","0.19921875","-0.20996094","-94.4375","61.03125","164.0625"
"1538425254326","321","1.2783203","0.27734375","-0.16992188","-77.15625","46.03125","133.5"
"1538425254326","322","1.0488281","0.24414062","-0.16308594","-43.65625","29.25","111.28125"
"1538425254523","323","0.86621094","0.19628906","-0.16894531","-39.6875","19.21875","97.96875"
"1538425254524","324","0.73535156","0.19726562","-0.18457031","-59.28125","13.625","86.125"
"1538425254524","325","0.7285156","0.26171875","-0.19238281","-62.6875","15.5","82.28125"
"1538425254524","326","0.8779297","0.28125","-0.25195312","-36.4375","13.3125","77.28125"
"1538425254524","327","1.015625","0.25097656","-0.25195312","-18.9375","10.125","63.78125"
"1538425254720","328","1.0507812","0.23632812","-0.26953125","-3.0","8.375","39.4375"
"1538425254721","329","1.0458984","0.24414062","-0.27148438","9.9375","9.90625","7.34375"
"1538425254721","330","1.2880859","0.23828125","-0.23242188","34.46875","15.5","-22.875"
"1538425254721","331","1.4833984","0.19824219","-0.18652344","33.5625","2.75","-53.28125"
"1538425254722","332","1.3388672","0.2626953","-0.17871094","39.28125","-11.84375","-87.5625"
"1538425254921","333","1.2294922","0.20117188","-0.08984375","67.0","-33.75","-127.375"
"1538425254921","334","1.3007812","0.24609375","0.059570312","85.4375","-49.1875","-164.84375"
"1538425254921","335","1.46875","0.13671875","0.07128906","120.40625","-63.03125","-186.75"
"1538425254922","336","1.4248047","0.11035156","0.06738281","98.3125","-81.0625","-195.25"
"1538425254922","337","1.1894531","0.10253906","0.044921875","70.65625","-83.96875","-201.59375"
"1538425255117","338","0.9580078","0.07421875","-0.041015625","47.15625","-77.875","-206.53125"
"1538425255118","339","0.83984375","0.11328125","-0.015625","34.84375","-69.15625","-197.75"
"1538425255119","340","0.73535156","0.15527344","0.016601562","38.75","-57.71875","-177.84375"
"1538425255120","341","0.7265625","0.16308594","0.0048828125","50.40625","-41.375","-142.25"
"1538425255120","342","0.76660156","0.140625","-0.04296875","57.65625","-24.28125","-88.90625"
"1538425255319","343","0.8574219","0.13769531","-0.091796875","45.40625","-0.96875","-26.53125"
"1538425255319","344","0.9501953","0.13476562","-0.15429688","27.21875","28.375","33.75"
"1538425255319","345","1.0117188","0.09863281","-0.21875","14.5625","53.15625","89.375"
"1538425255319","346","1.2509766","0.052734375","-0.16503906","-3.125","77.09375","141.78125"
"1538425255517","347","1.4980469","0.0546875","-0.11035156","-36.3125","97.34375","193.5"
"1538425255518","348","1.3984375","0.09472656","-0.1484375","-60.4375","99.6875","221.375"
"1538425255519","349","1.5166016","0.036132812","-0.18847656","-91.375","109.125","226.625"
"1538425255519","350","1.4726562","0.11328125","-0.24609375","-91.8125","81.25","204.25"
"1538425255519","351","1.2236328","0.1875","-0.22070312","-97.71875","54.34375","156.625"
"1538425255915","352","1.0283203","0.21679688","-0.19726562","-82.21875","35.03125","109.09375"
"1538425255915","353","0.8808594","0.18164062","-0.21875","-72.53125","22.40625","86.9375"
"1538425255916","354","0.86328125","0.2109375","-0.16308594","-79.84375","12.09375","77.53125"
"1538425255916","355","0.8779297","0.234375","-0.115234375","-83.1875","8.125","74.90625"
"1538425255916","356","0.9550781","0.22167969","-0.18164062","-60.8125","3.84375","73.8125"
"1538425255916","357","0.92578125","0.19140625","-0.16210938","-54.5625","3.90625","68.0"
"1538425255918","358","0.93066406","0.20019531","-0.23242188","-47.0625","9.03125","54.03125"
"1538425255918","359","0.9794922","0.19140625","-0.28027344","-40.59375","10.625","29.78125"
"1538425255919","360","1.0673828","0.25683594","-0.23632812","-16.0625","16.84375","1.46875"
"1538425256111","361","1.5302734","0.16992188","-0.33203125","52.84375","10.375","-66.8125"
"1538425256111","362","1.2158203","0.15917969","-0.22363281","59.125","-16.15625","-103.03125"
"1538425256112","363","1.078125","0.24316406","-0.09667969","67.5","-26.90625","-139.40625"
"1538425256113","364","1.4023438","0.24609375","-0.024414062","91.46875","-37.90625","-160.625"
"1538425256113","365","1.5136719","0.21972656","0.00390625","101.625","-56.875","-167.53125"
"1538425256312","366","1.3154297","0.13378906","0.009765625","92.03125","-73.90625","-177.65625"
"1538425256312","367","1.0830078","0.09375","-0.043945312","72.125","-76.28125","-194.15625"
"1538425256707","368","0.93652344","0.08300781","-0.034179688","49.1875","-76.78125","-201.28125"
"1538425256708","369","0.88378906","0.14550781","-0.013671875","39.71875","-68.15625","-193.78125"
"1538425256708","370","0.86328125","0.14160156","-0.01953125","44.59375","-58.59375","-171.3125"
"1538425256709","371","0.828125","0.12792969","-0.041992188","48.9375","-44.90625","-131.875"
"1538425256709","372","0.8017578","0.09277344","-0.09277344","47.40625","-24.78125","-80.5625"
"1538425256710","373","0.8095703","0.09082031","-0.12597656","28.4375","2.875","-25.375"
"1538425256710","374","0.98339844","0.10058594","-0.1953125","9.8125","39.375","30.78125"
"1538425256711","375","1.1191406","0.057617188","-0.23632812","10.375","59.40625","87.71875"
"1538425256712","376","1.3261719","0.078125","-0.18066406","0.0625","77.40625","142.34375"
"1538425256905","377","1.1806641","0.15917969","-0.16113281","-88.9375","52.875","129.28125"
"1538425256907","378","0.9892578","0.19042969","-0.21191406","-63.5","40.15625","111.09375"
"1538425256907","379","0.8535156","0.13964844","-0.18359375","-57.9375","29.65625","102.96875"
"1538425256907","380","0.85546875","0.17285156","-0.13671875","-80.09375","25.15625","98.21875"
"1538425256911","381","0.93359375","0.21386719","-0.12011719","-93.34375","25.15625","96.15625"
"1538425257104","382","0.99609375","0.2529297","-0.20507812","-80.8125","20.75","92.65625"
"1538425257106","383","0.98046875","0.23144531","-0.22167969","-65.75","17.21875","77.53125"
"1538425257106","384","0.95703125","0.22949219","-0.26171875","-42.0","15.9375","52.8125"
"1538425257106","385","0.97265625","0.2109375","-0.29101562","-15.5625","13.5","21.9375"
"1538425257107","386","1.0693359","0.19042969","-0.30566406","2.6875","12.65625","-7.0"
"1538425257304","387","1.1972656","0.17578125","-0.265625","17.15625","17.71875","-29.71875"
"1538425257305","388","1.5644531","0.1796875","-0.26953125","33.3125","16.96875","-45.40625"
"1538425257307","389","1.421875","0.20507812","-0.21191406","53.03125","-8.28125","-69.75"
"1538425257307","390","1.0087891","0.25195312","-0.1015625","73.46875","-28.375","-106.9375"
"1538425257308","391","1.2861328","0.33789062","0.03515625","115.40625","-36.3125","-138.96875"
"1538425257503","392","1.4609375","0.3154297","0.22363281","150.875","-70.3125","-172.34375"
"1538425257503","393","1.3378906","0.13964844","0.23339844","114.84375","-73.25","-202.1875"
"1538425257504","394","1.2744141","0.22558594","0.111328125","81.90625","-62.3125","-212.09375"
"1538425257505","395","1.1025391","0.25195312","0.036132812","68.03125","-58.03125","-213.90625"
"1538425257505","396","0.95214844","0.26757812","0.055664062","54.0","-50.71875","-207.9375"
"1538425257704","397","0.8544922","0.29492188","0.076171875","53.53125","-40.8125","-192.8125"
"1538425257704","398","0.78222656","0.31445312","0.038085938","57.25","-29.46875","-166.625"
"1538425257704","399","0.74609375","0.31933594","-0.0546875","60.96875","-18.3125","-134.09375"
"1538425257704","400","0.6591797","0.31933594","-0.115234375","58.15625","-6.84375","-97.59375"
"1538425257705","401","0.5410156","0.29296875","-0.17089844","44.0","3.3125","-67.8125"
"1538425257902","402","0.4580078","0.35742188","-0.19140625","22.4375","19.40625","-41.90625"
"1538425257903","403","0.4501953","0.39453125","-0.31835938","24.28125","34.3125","-10.3125"
"1538425257903","404","0.5029297","0.4248047","-0.33789062","32.21875","50.59375","31.03125"
"1538425257903","405","0.8457031","0.5029297","-0.49316406","61.9375","70.375","84.59375"
"1538425257903","406","1.1826172","0.34179688","-0.42285156","66.75","85.46875","124.9375"
"1538425258098","407","1.6044922","0.25195312","-0.36328125","38.5","109.375","167.0625"
"1538425258098","408","1.6337891","0.16699219","-0.43847656","16.34375","98.6875","195.1875"
"1538425258102","409","1.4951172","0.12890625","-0.38085938","-17.40625","90.53125","208.5625"
"1538425258102","410","1.4589844","0.123046875","-0.36035156","-36.3125","70.25","192.28125"
"1538425258103","411","1.21875","0.10839844","-0.38964844","-58.65625","45.0625","161.15625"
"1538425258300","412","0.8828125","0.19921875","-0.3310547","-75.6875","20.625","122.5625"
"1538425258300","413","0.671875","0.21777344","-0.25976562","-74.09375","12.21875","87.34375"
"1538425258301","414","0.671875","0.26464844","-0.21484375","-66.46875","5.4375","60.4375"
"1538425258301","415","0.70996094","0.24707031","-0.18457031","-45.46875","2.5","43.71875"
"1538425258301","416","0.74316406","0.2578125","-0.17675781","-32.84375","4.875","36.6875"
"1538425258499","417","0.8330078","0.21875","-0.17480469","-12.78125","9.21875","30.34375"
"1538425258499","418","0.87402344","0.18359375","-0.19921875","5.90625","18.9375","26.6875"
"1538425258499","419","1.0742188","0.14453125","-0.22851562","31.53125","19.84375","20.6875"
"1538425258499","420","0.9765625","0.056640625","-0.19628906","32.21875","14.09375","10.03125"
"1538425258501","421","0.92089844","0.048828125","-0.26953125","42.03125","12.34375","-0.28125"
"1538425258694","422","0.81152344","0.10644531","-0.25878906","57.3125","6.125","-8.03125"
"1538425258695","423","0.7939453","0.09472656","-0.21679688","77.3125","5.625","-7.375"
"1538425258696","424","0.83984375","0.14355469","-0.20019531","94.09375","5.75","-9.9375"
"1538425258696","425","1.1220703","0.20117188","-0.22167969","123.21875","9.96875","-13.96875"
"1538425258697","426","1.5009766","0.13085938","-0.15820312","138.28125","4.53125","-14.75"
"1538425258894","427","1.4990234","0.11425781","-0.07714844","103.5","-13.71875","-28.0625"
"1538425258894","428","1.4462891","0.16699219","-0.036132812","65.84375","-19.21875","-57.1875"
"1538425258895","429","1.4355469","0.32617188","-0.059570312","48.4375","-30.09375","-95.8125"
"1538425258896","430","1.4326172","0.484375","0.14160156","97.59375","-56.28125","-145.125"
"1538425258896","431","1.3691406","0.25976562","0.37304688","138.34375","-61.875","-189.1875"
"1538425259095","432","1.3632812","0.20996094","0.18847656","123.71875","-61.40625","-207.09375"
"1538425259095","433","1.3095703","0.2626953","0.1328125","69.6875","-60.46875","-210.625"
"1538425259096","434","1.0576172","0.30859375","0.01171875","42.40625","-60.125","-200.84375"
"1538425259096","435","0.9765625","0.28125","0.0087890625","28.96875","-54.1875","-185.40625"
"1538425259096","436","0.8564453","0.27441406","0.083984375","-11.125","-44.71875","-170.9375"
"1538425259291","437","0.7324219","0.296875","0.06640625","-11.90625","-22.34375","-149.34375"
"1538425259292","438","0.72753906","0.31835938","-0.045898438","22.15625","-8.40625","-120.28125"
"1538425259493","439","0.6640625","0.2783203","-0.052734375","50.09375","-7.25","-85.5"
"1538425259493","440","0.66308594","0.28710938","-0.055664062","65.25","6.40625","-47.59375"
"1538425259494","441","0.7441406","0.24414062","-0.16503906","92.15625","20.46875","-8.65625"
"1538425259494","442","0.8935547","0.15136719","-0.1875","86.84375","46.03125","36.6875"
"1538425259495","443","1.0146484","0.17089844","-0.3125","71.34375","66.65625","86.6875"
"1538425259495","444","1.1796875","0.033203125","-0.26660156","37.40625","90.71875","132.53125"
"1538425259496","445","1.4082031","0.07910156","-0.18261719","-8.3125","116.21875","187.625"
"1538425259496","446","1.6191406","0.087890625","-0.24902344","-40.40625","126.09375","232.5625"
"1538425259689","447","1.4960938","0.107421875","-0.24902344","-83.75","120.96875","240.1875"
"1538425259690","448","1.5117188","0.13085938","-0.2529297","-103.84375","106.4375","219.625"
"1538425259690","449","1.2880859","0.15527344","-0.2919922","-94.25","77.21875","180.625"
"1538425259690","450","1.1542969","0.19628906","-0.21875","-97.71875","60.625","140.15625"
"1538425259690","451","1.0292969","0.22363281","-0.20019531","-89.5625","44.4375","116.40625"
"1538425259887","452","0.95410156","0.2626953","-0.10449219","-72.75","31.9375","106.15625"
"1538425259888","453","0.91503906","0.2705078","-0.19824219","-79.28125","25.75","105.71875"
"1538425259889","454","0.8408203","0.35351562","-0.20800781","-77.03125","18.0625","97.71875"
"1538425259889","455","0.9091797","0.38085938","-0.23632812","-49.9375","16.3125","82.53125"
"1538425259889","456","0.9472656","0.34570312","-0.27929688","-15.03125","9.90625","50.0"
"1538425260087","457","0.984375","0.24609375","-0.2783203","10.4375","4.40625","6.46875"
"1538425260087","458","1.0009766","0.23925781","-0.2685547","22.9375","0.75","-35.28125"
"1538425260087","459","1.1435547","0.22363281","-0.25976562","42.21875","-0.71875","-68.09375"
"1538425260087","460","1.5224609","0.22558594","-0.19628906","64.0625","6.0","-86.15625"
"1538425260089","461","1.640625","0.29785156","-0.15527344","87.15625","-10.25","-87.625"
"1538425260286","462","1.5546875","0.22851562","-0.07324219","91.78125","-41.3125","-108.09375"
"1538425260287","463","1.3408203","0.24414062","0.12207031","91.84375","-67.6875","-156.59375"
"1538425260287","464","1.4726562","0.09765625","0.4296875","123.71875","-72.0625","-199.5"
"1538425260287","465","1.4804688","0.06933594","0.31933594","134.03125","-70.71875","-212.15625"
"1538425260287","466","1.2744141","0.1640625","0.12890625","106.0625","-73.28125","-217.875"
"1538425260485","467","1.0849609","0.14160156","0.115234375","60.21875","-62.125","-211.65625"
"1538425260485","468","0.96875","0.18652344","0.17285156","33.25","-40.59375","-197.625"
"1538425260486","469","0.7841797","0.24121094","0.11816406","44.0","-29.90625","-176.75"
"1538425260486","470","0.6953125","0.2783203","0.08105469","64.03125","-20.0625","-150.3125"
"1538425260487","471","0.6328125","0.28222656","0.03515625","63.46875","-3.21875","-123.53125"
"1538425260683","472","0.58691406","0.2529297","-0.12890625","55.65625","5.125","-93.625"
"1538425260882","473","0.43554688","0.41308594","-0.18945312","23.65625","15.6875","-76.09375"
"1538425260882","474","0.50390625","0.45410156","-0.3076172","28.25","30.40625","-49.0625"
"1538425260882","475","0.5205078","0.4892578","-0.2939453","46.375","37.125","-8.0"
"1538425260883","476","0.64453125","0.4296875","-0.28515625","75.625","53.96875","51.90625"
"1538425260884","477","0.9609375","0.39746094","-0.39453125","91.96875","89.59375","118.25"
"1538425260884","478","1.3320312","0.2109375","-0.42773438","54.75","113.90625","166.875"
"1538425261079","479","1.4257812","0.19335938","-0.34375","7.0625","124.53125","199.84375"
"1538425261279","480","1.4931641","0.1953125","-0.3671875","-15.75","110.53125","209.59375"
"1538425261280","481","1.3916016","0.19726562","-0.34179688","-31.03125","84.0625","196.96875"
"1538425261280","482","1.2070312","0.15332031","-0.2734375","-45.34375","60.125","159.8125"
"1538425261281","483","1.0712891","0.17089844","-0.24902344","-46.65625","42.0","115.5625"
"1538425261281","484","0.9863281","0.21777344","-0.24023438","-28.8125","30.09375","75.5625"
"1538425261282","485","0.9423828","0.1796875","-0.2265625","-19.84375","24.40625","48.59375"
"1538425261282","486","0.890625","0.203125","-0.22167969","-21.875","20.8125","36.09375"
"1538425261283","487","0.7949219","0.23730469","-0.24414062","-2.4375","19.46875","34.9375"
"1538425261283","488","0.7988281","0.21289062","-0.22265625","30.75","19.0","34.1875"
"1538425261479","489","0.88964844","0.12402344","-0.21484375","49.375","9.21875","26.1875"
"1538425261479","490","0.91796875","0.12402344","-0.18945312","58.78125","4.59375","20.59375"
"1538425261479","491","0.9423828","0.09472656","-0.203125","70.125","-4.09375","9.59375"
"1538425261479","492","0.8720703","0.09277344","-0.16503906","77.875","-12.3125","-5.375"
"1538425261480","493","0.9951172","0.08886719","-0.12402344","92.40625","-12.625","-16.15625"
"1538425261676","494","1.2294922","0.11328125","-0.06738281","89.40625","-10.96875","-20.0625"
"1538425261676","495","1.4746094","0.11425781","-0.05078125","66.8125","-14.46875","-19.71875"
"1538425261677","496","1.4433594","0.17675781","-0.0234375","25.0625","-16.59375","-22.3125"
"1538425261677","497","1.4482422","0.24804688","0.0107421875","17.15625","-18.0625","-41.5625"
"1538425261678","498","1.1748047","0.34375","0.07714844","41.75","-36.5625","-82.15625"
"1538425261875","499","1.2988281","0.34375","0.29492188","87.40625","-35.21875","-132.6875"
"1538425261876","500","1.3613281","0.22851562","0.20898438","109.78125","-55.78125","-171.875"
"1538425261876","501","1.4472656","0.23828125","0.28125","95.28125","-48.53125","-194.75"
"1538425261877","502","1.2216797","0.20410156","0.10839844","86.34375","-53.21875","-206.71875"
"1538425261877","503","1.0615234","0.22265625","0.032226562","69.375","-52.96875","-203.3125"
"1538425262076","504","1.0048828","0.24023438","0.09863281","44.25","-48.03125","-188.53125"
"1538425262077","505","0.9140625","0.2607422","0.07421875","47.65625","-37.21875","-166.375"
"1538425262078","506","0.88964844","0.24707031","0.036132812","60.90625","-27.53125","-140.625"
"1538425262078","507","0.8017578","0.1796875","-0.041015625","64.125","-20.375","-118.53125"
"1538425262078","508","0.6777344","0.13964844","-0.045898438","32.53125","-6.9375","-94.09375"
"1538425262274","509","0.6591797","0.17578125","-0.1640625","29.15625","10.03125","-54.6875"
"1538425262274","510","0.7402344","0.21582031","-0.18261719","33.75","24.84375","-0.21875"
"1538425262274","511","0.92871094","0.2265625","-0.23730469","46.1875","44.5625","56.59375"
"1538425262274","512","0.9316406","0.06738281","-0.25976562","38.625","63.1875","106.40625"
"1538425262275","513","1.4150391","0.14453125","-0.1875","5.0625","97.25","170.46875"
"1538425262474","514","1.5429688","0.26660156","-0.265625","-10.8125","94.25","205.09375"
"1538425262474","515","1.2958984","0.18164062","-0.26367188","-33.21875","89.59375","204.59375"
"1538425262474","516","1.4267578","0.15039062","-0.18847656","-53.84375","82.90625","190.125"
"1538425262476","517","1.2539062","0.1953125","-0.18945312","-78.75","65.4375","158.53125"
"1538425262476","518","1.1914062","0.22265625","-0.1953125","-94.90625","59.21875","128.6875"
"1538425262670","519","1.0478516","0.24023438","-0.21191406","-80.03125","41.75","118.96875"
"1538425262671","520","0.93359375","0.24609375","-0.16894531","-75.375","33.75","118.125"
"1538425262671","521","0.8876953","0.26953125","-0.13574219","-81.125","29.1875","114.15625"
"1538425262671","522","0.87890625","0.29882812","-0.17675781","-65.375","27.46875","111.53125"
"1538425262673","523","0.9296875","0.2939453","-0.25390625","-36.375","26.0625","103.34375"
"1538425262871","524","1.0449219","0.2607422","-0.3046875","-22.59375","18.5","83.09375"
"1538425262872","525","1.0283203","0.24023438","-0.3076172","-21.875","11.46875","47.9375"
"1538425262872","526","1.1005859","0.24414062","-0.28710938","-20.34375","8.1875","6.59375"
"1538425262872","527","1.1367188","0.2919922","-0.2421875","11.78125","9.96875","-27.21875"
"1538425262872","528","1.4755859","0.32617188","-0.26757812","61.15625","13.75","-44.59375"
"1538425263067","529","1.4082031","0.24707031","-0.23144531","91.71875","-15.4375","-70.71875"
"1538425263068","530","1.0869141","0.22070312","-0.049804688","77.1875","-44.1875","-113.21875"
"1538425263068","531","1.2685547","0.30664062","0.0625","93.9375","-52.65625","-151.0"
"1538425263070","532","1.4394531","0.19140625","0.11230469","96.125","-79.28125","-187.4375"
"1538425263070","533","1.3701172","0.12890625","0.043945312","65.125","-89.09375","-210.1875"
"1538425263266","534","1.2714844","0.12109375","-0.026367188","36.0","-87.59375","-221.71875"
"1538425263268","535","1.1591797","0.17773438","-0.045898438","10.90625","-79.9375","-221.53125"
"1538425263268","536","1.0341797","0.21777344","0.0126953125","23.5625","-69.03125","-207.4375"
"1538425263268","537","0.9375","0.21289062","0.057617188","54.25","-56.4375","-179.375"
"1538425263268","538","0.85058594","0.17480469","0.0146484375","70.71875","-42.78125","-143.53125"
"1538425263467","539","0.8017578","0.10839844","-0.0625","75.5","-27.65625","-98.1875"
"1538425263467","540","0.7939453","0.087890625","-0.10839844","62.5","-4.625","-47.65625"
"1538425263468","541","0.98046875","0.09277344","-0.13378906","46.9375","21.75","7.21875"
"1538425263664","542","1.0429688","0.11328125","-0.20996094","41.6875","45.1875","62.625"
"1538425263664","543","1.2568359","0.09667969","-0.18847656","32.40625","68.90625","118.53125"
"1538425263664","544","1.3251953","0.08203125","-0.203125","5.25","83.0625","167.125"
"1538425263665","545","1.1914062","0.06738281","-0.20019531","-23.21875","90.09375","190.625"
"1538425263665","546","1.3847656","0.037109375","-0.15136719","-69.09375","107.71875","197.59375"
"1538425263666","547","1.3554688","0.06347656","-0.20214844","-90.53125","98.875","188.0"
"1538425263666","548","1.2695312","0.13085938","-0.203125","-106.5625","88.3125","166.34375"
"1538425263863","549","1.1318359","0.17675781","-0.22558594","-93.40625","75.15625","144.0"
"1538425263863","550","1.0224609","0.18066406","-0.21289062","-81.0","61.15625","136.96875"
"1538425263863","551","0.95996094","0.23730469","-0.15820312","-87.34375","49.125","131.40625"
"1538425263864","552","0.95996094","0.2421875","-0.16113281","-87.03125","40.34375","124.9375"
"1538425263864","553","0.97558594","0.2939453","-0.19628906","-80.5","36.3125","118.34375"
"1538425264061","554","1.0585938","0.33007812","-0.27539062","-58.0","31.375","101.625"
"1538425264062","555","1.0205078","0.3232422","-0.31933594","-36.9375","19.71875","64.78125"
"1538425264062","556","1.0615234","0.22558594","-0.33789062","-14.84375","8.5625","13.375"
"1538425264063","557","1.0234375","0.17773438","-0.2841797","-1.15625","3.0","-34.96875"
"1538425264064","558","1.2060547","0.15917969","-0.21484375","11.71875","4.84375","-68.84375"
"1538425264260","559","1.4580078","0.21582031","-0.23535156","20.4375","-0.71875","-87.5"
"1538425264260","560","1.3730469","0.17675781","-0.20605469","32.46875","-25.5","-111.5625"
"1538425264260","561","1.0654297","0.17773438","-0.076171875","38.8125","-40.9375","-150.25"
"1538425264261","562","1.4453125","0.11035156","0.048828125","86.21875","-46.625","-175.40625"
"1538425264262","563","1.3496094","0.08203125","0.115234375","87.46875","-70.4375","-191.09375"
"1538425264461","564","1.2841797","0.09667969","0.017578125","73.28125","-65.53125","-190.0625"
"1538425264461","565","1.1855469","0.12890625","-0.08984375","53.6875","-61.34375","-182.46875"
"1538425264461","566","1.0058594","0.15917969","-0.08300781","44.375","-57.0625","-174.3125"
"1538425264461","567","0.8876953","0.1796875","-0.016601562","59.375","-50.59375","-161.1875"
"1538425264461","568","0.79003906","0.14550781","0.005859375","73.71875","-44.3125","-142.5625"
"1538425264658","569","0.7861328","0.13964844","-0.0126953125","72.75","-31.71875","-113.8125"
"1538425264659","570","0.86328125","0.13085938","-0.072265625","67.25","-16.28125","-74.5"
"1538425264660","571","1.0195312","0.11816406","-0.1484375","58.09375","-1.6875","-28.25"
"1538425264660","572","1.078125","0.08496094","-0.14257812","37.03125","13.875","16.84375"
"1538425264660","573","1.0996094","0.056640625","-0.1875","20.0625","35.28125","63.0"
"1538425264860","574","1.296875","0.041992188","-0.18457031","-5.5625","59.15625","112.75"
"1538425264860","575","1.2998047","0.05078125","-0.17871094","-40.71875","71.53125","155.65625"
"1538425264860","576","1.2294922","0.0625","-0.1953125","-68.78125","79.59375","178.21875"
"1538425264861","577","1.3134766","0.083984375","-0.17773438","-92.40625","82.46875","182.25"
"1538425264861","578","1.2275391","0.1015625","-0.19824219","-91.125","74.59375","167.4375"
"1538425265055","579","1.1328125","0.140625","-0.19140625","-75.625","64.8125","145.46875"
"1538425265055","580","0.9794922","0.16699219","-0.18945312","-53.46875","50.71875","127.4375"
"1538425265056","581","0.8671875","0.171875","-0.14355469","-58.59375","41.375","114.15625"
"1538425265056","582","0.8886719","0.18652344","-0.16601562","-71.46875","39.375","104.3125"
"1538425265057","583","0.9658203","0.21679688","-0.171875","-70.3125","35.28125","99.0625"
"1538425265255","584","0.99902344","0.2548828","-0.22070312","-50.96875","32.65625","97.59375"
"1538425265255","585","1.0673828","0.22753906","-0.2939453","-31.6875","27.59375","86.0625"
"1538425265255","586","1.0761719","0.2265625","-0.3125","-27.28125","19.59375","58.0"
"1538425265256","587","1.0498047","0.21484375","-0.33984375","-8.75","13.5","19.59375"
"1538425265256","588","1.078125","0.22167969","-0.29296875","22.03125","7.40625","-18.65625"
"1538425265453","589","1.4082031","0.20898438","-0.26660156","50.78125","11.59375","-45.65625"
"1538425265453","590","1.5917969","0.15722656","-0.25195312","55.40625","-15.96875","-71.09375"
"1538425265453","591","1.2119141","0.13769531","-0.14453125","39.59375","-44.65625","-110.28125"
"1538425265453","592","1.09375","0.18652344","-0.0087890625","47.78125","-55.03125","-150.0625"
"1538425265454","593","1.3349609","0.18945312","0.04296875","83.65625","-61.53125","-171.125"
"1538425265652","594","1.4394531","0.13476562","0.08984375","82.3125","-87.03125","-185.09375"
"1538425265652","595","1.2392578","0.08496094","0.04296875","56.25","-87.8125","-194.15625"
"1538425265652","596","1.0625","0.08496094","-0.040039062","30.5625","-78.46875","-195.25"
"1538425265652","597","0.9326172","0.16210938","-0.01953125","21.59375","-66.46875","-185.28125"
"1538425265653","598","0.8154297","0.19628906","0.0146484375","27.15625","-53.21875","-167.34375"
"1538425265852","599","0.7470703","0.20605469","0.02734375","40.59375","-37.59375","-142.375"
"1538425265853","600","0.734375","0.18457031","-0.009765625","58.28125","-22.75","-109.375"
"1538425265855","601","0.74121094","0.17480469","-0.051757812","65.0625","-7.625","-67.3125"
"1538425265855","602","0.79785156","0.16601562","-0.09277344","60.65625","12.6875","-20.75"
"1538425265855","603","0.8779297","0.13964844","-0.14160156","46.875","36.125","23.21875"
"1538425266049","604","0.99902344","0.125","-0.20703125","22.09375","59.03125","67.5625"
"1538425266049","605","1.2861328","0.08203125","-0.24316406","11.59375","85.9375","119.40625"
"1538425266049","606","1.5800781","0.15136719","-0.21972656","-11.0","95.21875","169.5"
"1538425266248","607","1.4316406","0.1953125","-0.27441406","-24.125","91.6875","195.125"
"1538425266248","608","1.2626953","0.091796875","-0.265625","-33.9375","84.1875","182.9375"
"1538425266248","609","1.3564453","0.10058594","-0.23632812","-41.28125","72.75","156.5"
"1538425266250","610","1.1660156","0.15429688","-0.22167969","-46.8125","55.0625","119.28125"
"1538425266250","611","1.0507812","0.20996094","-0.24609375","-40.78125","47.84375","89.5625"
"1538425266250","612","0.87402344","0.18359375","-0.2626953","-24.53125","39.875","78.5625"
"1538425266446","613","0.7675781","0.18847656","-0.2265625","-21.4375","33.5","75.09375"
"1538425266447","614","0.7314453","0.18261719","-0.17773438","-30.34375","31.1875","72.46875"
"1538425266447","615","0.77246094","0.18066406","-0.20507812","-34.1875","29.1875","70.6875"
"1538425266447","616","0.88671875","0.20214844","-0.24121094","-34.375","24.90625","64.71875"
"1538425266448","617","0.96191406","0.1953125","-0.2529297","-31.25","15.875","49.5625"
"1538425266645","618","0.98535156","0.17578125","-0.28222656","-24.25","7.15625","23.3125"
"1538425266646","619","0.99121094","0.14746094","-0.28027344","-8.90625","1.09375","-6.15625"
"1538425266646","620","1.0556641","0.16015625","-0.265625","23.78125","1.96875","-26.96875"
"1538425266646","621","1.2109375","0.16210938","-0.2607422","59.3125","6.46875","-32.65625"
"1538425266647","622","1.4228516","0.13867188","-0.28320312","77.5","7.28125","-24.78125"
"1538425266843","623","1.6015625","0.123046875","-0.24804688","68.03125","-1.21875","-20.0625"
"1538425266844","624","1.3574219","0.19628906","-0.1640625","69.09375","-24.71875","-36.5625"
"1538425266845","625","0.99121094","0.19335938","-0.045898438","95.625","-50.84375","-74.09375"
"1538425266846","626","1.2314453","0.25683594","0.18164062","141.28125","-77.03125","-101.125"
"1538425266847","627","1.2080078","0.18457031","0.375","139.6875","-95.875","-130.65625"
"1538425267043","628","1.1689453","0.21484375","0.35742188","125.28125","-83.90625","-143.40625"
"1538425267241","629","1.2744141","0.2841797","0.35839844","77.3125","-70.375","-146.90625"
"1538425267440","630","1.0585938","0.3125","0.34960938","29.53125","-65.90625","-147.6875"
"1538425267441","631","1.1337891","0.3955078","0.3857422","9.15625","-38.1875","-149.09375"
"1538425267443","632","1.0048828","0.35742188","0.15332031","54.96875","-29.71875","-156.59375"
"1538425267444","633","0.9355469","0.23242188","0.080078125","65.1875","-27.53125","-153.5"
"1538425267444","634","0.8691406","0.29882812","0.06640625","47.21875","-11.96875","-140.5625"
"1538425267444","635","0.82421875","0.2734375","-0.08105469","57.59375","-2.5625","-122.78125"
"1538425267444","636","0.7714844","0.2705078","-0.07421875","53.03125","7.34375","-102.65625"
"1538425267446","637","0.6816406","0.2578125","-0.12988281","59.875","19.90625","-79.6875"
"1538425267446","638","0.6308594","0.22949219","-0.19238281","80.0","29.59375","-50.65625"
"1538425267639","639","1.5732422","0.10449219","-0.2890625","34.34375","109.375","166.40625"
"1538425267639","640","1.4316406","0.13867188","-0.29492188","-0.75","100.28125","184.9375"
"1538425267639","641","1.2080078","0.08203125","-0.30273438","-21.90625","93.03125","171.6875"
"1538425267640","642","1.3603516","0.06542969","-0.23925781","-43.59375","79.71875","142.78125"
"1538425267640","643","1.1875","0.10449219","-0.20996094","-56.59375","59.21875","107.5"
"1538425267840","644","1.0625","0.17285156","-0.22460938","-53.90625","46.15625","76.5"
"1538425267840","645","0.8457031","0.15527344","-0.2421875","-40.0625","34.0","59.03125"
"1538425268038","646","0.7792969","0.20214844","-0.21875","-39.3125","30.21875","52.625"
"1538425268038","647","0.7998047","0.20507812","-0.2265625","-26.375","26.8125","53.46875"
"1538425268235","648","0.7792969","0.19921875","-0.28222656","-22.90625","19.78125","57.3125"
"1538425268236","649","0.79296875","0.22460938","-0.3251953","-12.65625","13.625","52.875"
"1538425268236","650","0.8808594","0.20019531","-0.33203125","7.4375","6.90625","36.875"
"1538425268236","651","1.0380859","0.171875","-0.27734375","25.375","0.25","12.65625"
"1538425268237","652","1.1582031","0.15527344","-0.23828125","36.90625","-5.375","-13.34375"
"1538425268238","653","1.2714844","0.15820312","-0.2109375","48.5","-4.5","-35.5"
"1538425268239","654","1.3164062","0.16113281","-0.19238281","50.03125","-7.9375","-51.0625"
"1538425268240","655","1.4042969","0.20214844","-0.20410156","56.25","-14.28125","-60.59375"
"1538425268240","656","1.2294922","0.26367188","-0.115234375","34.71875","-38.9375","-82.375"
"1538425268436","657","1.2216797","0.3544922","0.1015625","62.71875","-53.46875","-117.1875"
"1538425268436","658","1.3007812","0.18652344","0.12695312","88.0625","-69.4375","-163.9375"
"1538425268436","659","1.2363281","0.2109375","0.015625","41.6875","-71.84375","-177.46875"
"1538425268437","660","1.0859375","0.22558594","-0.017578125","1.03125","-67.0625","-190.59375"
"1538425268437","661","0.93652344","0.23535156","0.036132812","5.25","-58.28125","-193.59375"
"1538425268437","662","0.81347656","0.23632812","0.07519531","38.0625","-46.0625","-181.5"
"1538425268633","663","0.7441406","0.21972656","0.056640625","67.75","-33.75","-156.96875"
"1538425268633","664","0.74609375","0.24609375","-0.028320312","93.0","-24.21875","-119.9375"
"1538425268633","665","0.7216797","0.18945312","-0.07421875","80.8125","-13.40625","-80.1875"
"1538425268634","666","0.6582031","0.12890625","-0.12109375","46.375","8.84375","-39.90625"
"1538425268832","667","0.76660156","0.17285156","-0.15722656","25.0625","40.46875","12.59375"
"1538425268833","668","1.0380859","0.24414062","-0.3408203","40.34375","74.15625","77.34375"
"1538425268833","669","1.2802734","0.16992188","-0.3046875","19.40625","93.21875","132.46875"
"1538425268833","670","1.4257812","0.20800781","-0.18847656","-10.03125","108.59375","176.53125"
"1538425268834","671","1.3369141","0.19628906","-0.34570312","-27.15625","101.25","190.0"
"1538425268834","672","1.2246094","0.16210938","-0.31152344","-49.375","94.625","185.9375"
"1538425269030","673","1.2978516","0.20996094","-0.2705078","-46.09375","85.34375","176.21875"
"1538425269030","674","1.3076172","0.21679688","-0.26757812","-41.40625","70.0","159.5625"
"1538425269030","675","1.1230469","0.23242188","-0.2783203","-36.15625","56.59375","131.125"
"1538425269032","676","1.0","0.20605469","-0.28125","-21.4375","43.71875","104.375"
"1538425269033","677","0.92089844","0.21679688","-0.25683594","-32.3125","33.09375","81.125"
"1538425269229","678","0.8691406","0.22167969","-0.22949219","-42.625","24.71875","63.625"
"1538425269229","679","0.8408203","0.2421875","-0.22265625","-42.90625","17.53125","52.375"
"1538425269230","680","0.81933594","0.26757812","-0.22851562","-27.40625","13.3125","44.125"
"1538425269230","681","0.8339844","0.23730469","-0.2705078","-3.5","6.21875","33.03125"
"1538425269230","682","0.78027344","0.22265625","-0.27148438","12.875","-2.3125","16.1875"
"1538425269428","683","0.8154297","0.18164062","-0.2421875","34.84375","-7.0625","-2.96875"
"1538425269428","684","0.9941406","0.15722656","-0.22558594","46.0","-5.4375","-15.3125"
"1538425269429","685","1.3642578","0.16601562","-0.22558594","49.78125","3.59375","-16.09375"
"1538425269429","686","1.6748047","0.14355469","-0.21972656","44.1875","1.46875","-16.09375"
"1538425269431","687","1.5019531","0.19335938","-0.18261719","42.03125","-5.375","-30.9375"
"1538425269826","688","1.3427734","0.22851562","-0.115234375","74.875","-12.3125","-55.96875"
"1538425269827","689","1.1015625","0.19628906","-0.044921875","113.40625","-40.34375","-87.40625"
"1538425269828","690","1.1474609","0.2685547","0.15332031","113.40625","-64.03125","-110.71875"
"1538425269829","691","1.1386719","0.29589844","0.35742188","122.84375","-73.59375","-133.96875"
"1538425269829","692","1.1884766","0.22851562","0.30371094","118.59375","-63.15625","-155.625"
"1538425269829","693","1.2666016","0.45703125","0.33789062","101.75","-53.09375","-167.34375"
"1538425269829","694","1.2050781","0.4873047","0.29882812","90.8125","-54.6875","-167.40625"
"1538425269829","695","1.0380859","0.45898438","0.3359375","68.34375","-47.65625","-167.03125"
"1538425269831","696","1.0556641","0.47070312","0.28320312","58.65625","-25.375","-165.5625"
"1538425270024","697","0.89941406","0.32617188","0.026367188","70.53125","-11.40625","-153.1875"
"1538425270024","698","0.76953125","0.32421875","0.0234375","54.3125","-0.34375","-140.125"
"1538425270025","699","0.7792969","0.2919922","-0.06933594","61.625","9.71875","-116.1875"
"1538425270025","700","0.70214844","0.27929688","-0.08984375","69.75","13.96875","-88.375"
"1538425270025","701","0.6767578","0.22949219","-0.1796875","66.59375","28.75","-55.71875"
"1538425270223","702","0.7470703","0.17773438","-0.27148438","54.8125","35.03125","-11.65625"
"1538425270223","703","0.8564453","0.19042969","-0.3076172","33.3125","50.90625","35.53125"
"1538425270223","704","1.0341797","0.18554688","-0.38378906","28.6875","65.6875","83.625"
"1538425270223","705","1.2675781","0.18457031","-0.31152344","39.84375","88.75","130.3125"
"1538425270224","706","1.4960938","0.123046875","-0.41015625","32.8125","99.4375","179.21875"
"1538425270422","707","1.3642578","0.14648438","-0.32617188","5.375","89.3125","201.0"
"1538425270422","708","1.2480469","0.08496094","-0.24609375","-32.59375","91.75","193.5"
"1538425270820","709","1.3837891","0.11425781","-0.28515625","-54.28125","83.0625","170.53125"
"1538425270821","710","1.2431641","0.14257812","-0.3173828","-53.71875","64.03125","143.1875"
"1538425270821","711","1.1005859","0.1953125","-0.23535156","-48.03125","52.9375","116.09375"
"1538425270821","712","1.0273438","0.2109375","-0.2265625","-28.09375","49.4375","103.15625"
"1538425270821","713","0.9511719","0.23339844","-0.2626953","-17.90625","42.5","95.65625"
"1538425270823","714","0.8144531","0.25585938","-0.25","-4.96875","36.5","84.59375"
"1538425270823","715","0.7373047","0.25585938","-0.28027344","18.0","29.90625","70.6875"
"1538425270824","716","0.7265625","0.22949219","-0.29589844","33.8125","21.5625","51.46875"
"1538425270824","717","0.8613281","0.19628906","-0.28808594","35.8125","13.8125","31.375"
"1538425271017","718","0.97265625","0.18652344","-0.27734375","27.53125","4.53125","8.75"
"1538425271018","719","1.5175781","0.19042969","-0.20996094","51.625","-10.84375","-79.46875"
"1538425271019","720","1.4658203","0.20703125","-0.08984375","34.65625","-41.0","-94.90625"
"1538425271021","721","1.3662109","0.25097656","0.021484375","45.40625","-55.21875","-135.3125"
"1538425271021","722","1.4501953","0.13476562","0.06640625","88.125","-74.53125","-166.75"
"1538425271021","723","1.4658203","0.115234375","0.08203125","88.84375","-87.625","-178.09375"
"1538425271215","724","1.2275391","0.125","0.056640625","63.71875","-92.15625","-186.9375"
"1538425271216","725","1.0361328","0.078125","-0.0234375","50.15625","-82.8125","-188.65625"
"1538425271217","726","0.8984375","0.12109375","-0.021484375","37.28125","-73.25","-178.53125"
"1538425271217","727","0.77734375","0.15332031","0.005859375","38.125","-61.9375","-161.4375"
"1538425271415","728","0.70703125","0.15722656","-0.0107421875","44.96875","-49.0","-137.0"
"1538425271418","729","0.6777344","0.140625","-0.044921875","51.125","-34.28125","-103.4375"
"1538425271418","730","0.6933594","0.13476562","-0.07910156","48.8125","-15.8125","-61.15625"
"1538425271418","731","0.7128906","0.08496094","-0.11816406","33.5625","7.28125","-17.125"
"1538425271418","732","0.91796875","0.10644531","-0.17675781","13.78125","46.5625","39.875"
"1538425271614","733","1.2148438","0.115234375","-0.25878906","9.6875","70.125","106.53125"
"1538425271614","734","1.3691406","0.16308594","-0.22167969","-6.25","90.78125","167.125"
"1538425271615","735","1.3857422","0.10058594","-0.1640625","-21.0625","102.0","201.0625"
"1538425271615","736","1.2802734","0.051757812","-0.18847656","-49.75","110.0625","210.9375"
"1538425271618","737","1.5498047","0.07519531","-0.20800781","-81.625","117.5625","207.90625"
"1538425271815","738","1.4746094","0.14941406","-0.26757812","-99.4375","93.15625","181.71875"
"1538425271815","739","1.2470703","0.21386719","-0.24609375","-102.1875","65.375","138.875"
"1538425271816","740","1.1035156","0.21582031","-0.2705078","-57.25","49.5625","101.75"
"1538425271816","741","0.9746094","0.17480469","-0.21972656","-44.75","34.75","84.1875"
"1538425271816","742","0.84277344","0.19824219","-0.15820312","-63.65625","24.375","73.0625"
"1538425272014","743","0.7470703","0.20117188","-0.17675781","-79.28125","18.875","65.9375"
"1538425272014","744","0.7597656","0.22460938","-0.20703125","-74.15625","16.59375","61.71875"
"1538425272015","745","0.86328125","0.21972656","-0.23535156","-63.4375","13.96875","54.15625"
"1538425272016","746","0.98828125","0.22363281","-0.265625","-48.34375","14.40625","41.46875"
"1538425272016","747","1.1123047","0.24121094","-0.31347656","-19.34375","17.03125","21.25"
"1538425272212","748","1.1230469","0.25390625","-0.3095703","26.96875","16.84375","-2.6875"
"1538425272212","749","1.3525391","0.23535156","-0.27929688","67.375","22.03125","-23.375"
"1538425272212","750","1.6015625","0.18847656","-0.2548828","85.875","-0.1875","-47.21875"
"1538425272213","751","1.3115234","0.13964844","-0.18261719","63.28125","-34.59375","-87.09375"
"1538425272213","752","1.0712891","0.19433594","-0.08691406","48.5625","-53.71875","-131.53125"
"1538425272411","753","1.34375","0.18554688","0.028320312","65.1875","-66.875","-160.15625"
"1538425272412","754","1.3486328","0.115234375","0.052734375","58.40625","-87.28125","-179.625"
"1538425272412","755","1.3447266","0.11425781","0.020507812","28.96875","-88.75","-191.6875"
"1538425272412","756","1.171875","0.11328125","-0.048828125","16.15625","-84.84375","-200.0"
"1538425272413","757","1.0429688","0.13769531","-0.030273438","7.9375","-76.03125","-198.65625"
"1538425272608","758","0.9326172","0.1640625","0.001953125","22.03125","-65.59375","-186.75"
"1538425272609","759","0.8076172","0.16699219","0.02734375","37.28125","-55.46875","-166.375"
"1538425272610","760","0.765625","0.15722656","-0.005859375","49.84375","-39.65625","-138.0625"
"1538425272610","761","0.734375","0.12402344","-0.046875","58.78125","-21.1875","-94.59375"
"1538425272610","762","0.75683594","0.140625","-0.099609375","51.9375","3.5","-40.03125"
"1538425272808","763","0.8154297","0.15039062","-0.16210938","34.15625","31.625","17.09375"
"1538425272808","764","0.95703125","0.12597656","-0.23925781","20.9375","62.875","76.25"
"1538425272809","765","1.3320312","0.15039062","-0.24804688","13.71875","87.28125","139.15625"
"1538425272809","766","1.5195312","0.17871094","-0.1953125","-5.1875","95.71875","191.53125"
"1538425272809","767","1.3671875","0.15527344","-0.24121094","-27.0","92.59375","203.0"
"1538425273006","768","1.3701172","0.103515625","-0.24023438","-56.46875","87.53125","186.53125"
"1538425273007","769","1.3652344","0.10644531","-0.21777344","-64.53125","71.28125","159.9375"
"1538425273007","770","1.1826172","0.15625","-0.1796875","-76.90625","57.125","132.15625"
"1538425273008","771","1.0703125","0.22949219","-0.1796875","-68.5625","50.0","112.25"
"1538425273008","772","0.9238281","0.21289062","-0.17578125","-47.96875","39.75","106.625"
"1538425273203","773","0.8574219","0.20898438","-0.17480469","-53.78125","33.625","105.25"
"1538425273204","774","0.87109375","0.20898438","-0.16015625","-74.34375","28.75","102.625"
"1538425273204","775","0.84277344","0.24902344","-0.1796875","-89.96875","27.03125","99.375"
"1538425273205","776","0.9121094","0.29296875","-0.2109375","-81.1875","23.6875","86.6875"
"1538425273205","777","1.0029297","0.30371094","-0.234375","-61.15625","18.1875","63.5625"
"1538425273402","778","0.9951172","0.29003906","-0.2939453","-28.5","11.3125","31.625"
"1538425273601","779","1.03125","0.23925781","-0.29785156","3.71875","8.5","-4.6875"
"1538425273602","780","1.1708984","0.20410156","-0.25390625","28.1875","9.09375","-33.5625"
"1538425273604","781","1.3857422","0.22753906","-0.2626953","47.28125","10.125","-52.59375"
"1538425273604","782","1.5605469","0.26464844","-0.2578125","68.28125","-2.9375","-67.6875"
"1538425273604","783","1.5019531","0.20898438","-0.11230469","53.40625","-32.34375","-99.78125"
"1538425273604","784","1.1484375","0.19921875","-0.00390625","34.84375","-58.09375","-150.625"
"1538425273605","785","1.3349609","0.20898438","0.1171875","82.4375","-55.59375","-189.5625"
"1538425273608","786","1.4160156","0.12207031","0.13378906","120.53125","-68.59375","-202.25"
"1538425273609","787","1.3046875","0.14550781","0.032226562","100.9375","-75.8125","-199.4375"
"1538425273800","788","1.1474609","0.11621094","-0.036132812","72.5","-81.71875","-194.8125"
"1538425273800","789","0.93652344","0.10253906","0.0029296875","38.375","-74.21875","-186.5"
"1538425273801","790","0.81640625","0.14550781","0.028320312","30.4375","-61.03125","-168.8125"
"1538425273801","791","0.7675781","0.18457031","0.017578125","40.34375","-47.28125","-140.90625"
"1538425273802","792","0.7363281","0.17871094","-0.017578125","48.5","-34.59375","-107.09375"
"1538425274001","793","0.7480469","0.16894531","-0.06640625","51.25","-18.125","-65.65625"
"1538425274002","794","0.7792969","0.13476562","-0.12695312","45.875","0.125","-16.96875"
"1538425274002","795","0.8652344","0.15527344","-0.15625","31.25","28.8125","33.40625"
"1538425274002","796","0.98046875","0.11816406","-0.2734375","27.03125","52.6875","81.75"
"1538425274002","797","1.375","0.07714844","-0.19628906","6.21875","78.875","134.28125"
"1538425274198","798","1.4423828","0.09863281","-0.1796875","-29.125","90.09375","174.375"
"1538425274198","799","1.4306641","0.12988281","-0.2763672","-50.5625","98.59375","194.40625"
"1538425274199","800","1.4404297","0.09765625","-0.31152344","-63.71875","93.6875","193.84375"
"1538425274200","801","1.3222656","0.09863281","-0.25","-83.5625","71.46875","169.875"
"1538425274200","802","1.1865234","0.12011719","-0.16992188","-102.65625","59.8125","137.28125"
"1538425274398","803","1.0761719","0.18847656","-0.15527344","-89.78125","49.75","116.09375"
"1538425274398","804","0.9326172","0.22949219","-0.18945312","-61.21875","39.5","109.25"
"1538425274399","805","0.875","0.19726562","-0.17675781","-61.15625","32.40625","104.6875"
"1538425274399","806","0.8417969","0.22558594","-0.15625","-72.46875","30.09375","102.5625"
"1538425274399","807","0.8613281","0.25195312","-0.18945312","-68.5","30.40625","101.75"
"1538425274596","808","0.93847656","0.24316406","-0.23828125","-58.40625","25.15625","88.625"
"1538425274596","809","0.98535156","0.25878906","-0.19628906","-58.71875","19.46875","61.40625"
"1538425274596","810","0.96191406","0.24414062","-0.24609375","-36.15625","14.40625","26.375"
"1538425274794","811","0.99121094","0.22460938","-0.2578125","-14.09375","10.375","-8.96875"
"1538425274794","812","1.0253906","0.22167969","-0.2548828","10.0625","10.6875","-35.15625"
"1538425274795","813","1.2011719","0.18359375","-0.24023438","24.90625","15.375","-54.1875"
"1538425274795","814","1.484375","0.21972656","-0.27734375","47.46875","16.90625","-64.5625"
"1538425274796","815","1.5068359","0.23339844","-0.22753906","79.03125","-5.125","-76.84375"
"1538425274796","816","1.2099609","0.22851562","-0.08691406","80.8125","-34.1875","-110.84375"
"1538425274797","817","1.5039062","0.24511719","0.060546875","102.59375","-49.5625","-145.9375"
"1538425274993","818","1.5986328","0.16210938","0.16699219","118.875","-80.9375","-174.125"
"1538425274993","819","1.3447266","0.11816406","0.15527344","87.6875","-89.40625","-196.59375"
"1538425274993","820","1.1835938","0.18847656","0.02734375","54.5625","-77.1875","-210.3125"
"1538425274994","821","1.0273438","0.30859375","0.016601562","39.78125","-66.65625","-209.28125"
"1538425274994","822","0.91015625","0.41308594","0.10253906","45.03125","-53.9375","-199.75"
"1538425275191","823","0.7949219","0.39160156","0.056640625","57.0","-39.90625","-186.4375"
"1538425275191","824","0.7011719","0.3408203","0.030273438","64.03125","-31.25","-169.25"
"1538425275192","825","0.6171875","0.36621094","0.0","53.75","-13.71875","-142.5"
"1538425275192","826","0.5859375","0.38671875","-0.103515625","51.25","0.0","-111.0625"
"1538425275193","827","0.49316406","0.36328125","-0.15527344","42.09375","6.28125","-79.6875"
"1538425275393","828","0.37109375","0.42382812","-0.22949219","34.90625","26.5","-42.90625"
"1538425275394","829","0.5371094","0.48046875","-0.28027344","48.03125","51.53125","3.5"
"1538425275394","830","0.8388672","0.49804688","-0.38476562","75.3125","72.875","58.46875"
"1538425275394","831","0.93847656","0.38378906","-0.39648438","91.53125","85.28125","99.6875"
"1538425275394","832","1.1640625","0.22851562","-0.42382812","90.8125","118.65625","132.21875"
"1538425275590","833","1.3515625","0.13964844","-0.46875","54.4375","123.0","161.4375"
"1538425275590","834","1.2988281","0.09667969","-0.37109375","5.96875","115.4375","176.46875"
"1538425275590","835","1.34375","0.1015625","-0.33398438","-37.53125","94.0625","174.6875"
"1538425275590","836","1.1445312","0.08496094","-0.31152344","-54.21875","67.34375","147.84375"
"1538425275590","837","1.0029297","0.13867188","-0.265625","-64.21875","53.59375","111.53125"
"1538425275788","838","0.99609375","0.20410156","-0.24316406","-41.625","47.1875","83.15625"
"1538425275788","839","0.94433594","0.21875","-0.20703125","-15.4375","39.5","67.875"
"1538425275788","840","0.8613281","0.20898438","-0.25976562","8.65625","34.6875","62.625"
"1538425275789","841","0.8076172","0.16894531","-0.23535156","16.59375","30.71875","58.1875"
"1538425275790","842","0.85253906","0.16015625","-0.22949219","11.9375","30.84375","52.875"
"1538425275986","843","0.9277344","0.14453125","-0.26660156","-0.8125","26.5","45.84375"
"1538425275986","844","0.93066406","0.17871094","-0.24121094","-10.9375","18.6875","33.53125"
"1538425276184","845","0.9482422","0.1796875","-0.22753906","-2.4375","11.84375","17.09375"
"1538425276185","846","1.0","0.16992188","-0.23925781","9.75","4.59375","-0.90625"
"1538425276186","847","0.97753906","0.14941406","-0.22265625","20.875","-5.96875","-18.84375"
"1538425276186","848","0.8964844","0.13476562","-0.21289062","29.28125","-15.125","-37.9375"
"1538425276187","849","0.9169922","0.12402344","-0.19824219","47.0","-17.375","-49.84375"
"1538425276187","850","0.9814453","0.07128906","-0.18457031","57.375","-13.0","-41.625"
"1538425276188","851","1.2041016","0.09863281","-0.18652344","46.4375","-7.1875","-19.75"
"1538425276188","852","1.2402344","0.15722656","-0.1875","32.34375","-8.84375","-2.0625"
"1538425276384","853","1.2333984","0.18652344","-0.16894531","35.6875","-4.5625","5.3125"
"1538425276385","854","1.3183594","0.25878906","-0.12207031","47.78125","-5.5625","-5.25"
"1538425276385","855","1.3515625","0.3466797","-0.078125","54.25","-5.1875","-33.75"
"1538425276385","856","1.2949219","0.39257812","-0.10839844","90.125","-25.09375","-67.96875"
"1538425276385","857","1.2705078","0.52441406","0.14160156","107.90625","-40.875","-99.90625"
"1538425276583","858","1.1787109","0.47265625","0.24609375","104.25","-48.5625","-142.5625"
"1538425276781","859","1.2402344","0.42773438","0.18066406","102.09375","-41.375","-177.34375"
"1538425276979","860","1.1220703","0.39160156","0.08886719","101.25","-44.0","-195.4375"
"1538425277178","861","1.0605469","0.37109375","0.0859375","84.875","-41.0","-200.5625"
"1538425277179","862","0.9941406","0.33984375","0.05859375","81.84375","-36.4375","-189.8125"
"1538425277180","863","0.9355469","0.2841797","0.021484375","84.09375","-32.03125","-168.25"
"1538425277180","864","0.8564453","0.23925781","-0.0126953125","79.6875","-28.625","-142.09375"
"1538425277180","865","0.8066406","0.18164062","-0.07324219","72.5","-19.28125","-111.5"
"1538425277181","866","0.74902344","0.13769531","-0.09375","53.9375","-11.96875","-78.0625"
"1538425277182","867","0.75097656","0.13769531","-0.09472656","31.3125","7.15625","-45.53125"
"1538425277183","868","0.82128906","0.119140625","-0.14257812","25.875","31.875","-7.4375"
"1538425277183","869","1.6347656","0.17773438","-0.27246094","-34.375","110.84375","206.25"
"1538425277378","870","0.92871094","0.2607422","-0.18164062","-79.0","45.53125","112.1875"
"1538425277379","871","0.86035156","0.27148438","-0.19628906","-52.25","39.6875","112.0625"
"1538425277379","872","0.84765625","0.2734375","-0.16992188","-41.40625","34.0","114.625"
"1538425277379","873","0.890625","0.23535156","-0.17480469","-49.9375","29.1875","109.75"
"1538425277576","874","0.90625","0.24609375","-0.20507812","-60.0625","26.75","93.34375"
"1538425277577","875","1.0039062","0.23535156","-0.24023438","-57.625","23.03125","66.34375"
"1538425277577","876","0.9628906","0.25976562","-0.3203125","-39.9375","14.21875","31.6875"
"1538425277578","877","0.9667969","0.2109375","-0.36328125","-6.46875","5.3125","-7.125"
"1538425277578","878","1.0771484","0.17773438","-0.29492188","23.125","6.28125","-37.21875"
"1538425277579","879","1.2197266","0.17480469","-0.32226562","48.75","7.15625","-57.25"
"1538425277775","880","1.4267578","0.20019531","-0.34960938","66.875","0.0625","-67.375"
"1538425277976","881","1.4775391","0.17480469","-0.22167969","73.90625","-19.71875","-70.125"
"1538425277976","882","1.3085938","0.2607422","-0.09667969","27.9375","-48.625","-99.28125"
"1538425277977","883","1.4267578","0.4921875","0.12695312","88.5","-63.40625","-145.375"
"1538425277977","884","1.5761719","0.28222656","0.33496094","178.28125","-77.1875","-179.8125"
"1538425277977","885","1.5458984","0.25585938","0.2939453","142.3125","-84.71875","-205.25"
"1538425278173","886","1.3007812","0.234375","0.17382812","81.71875","-85.0","-227.53125"
"1538425278173","887","1.0537109","0.24414062","0.15039062","31.125","-73.0","-237.90625"
"1538425278173","888","0.9111328","0.3544922","0.16992188","17.3125","-51.5625","-233.9375"
"1538425278174","889","0.76464844","0.34179688","0.11816406","49.96875","-34.125","-216.46875"
"1538425278174","890","0.6953125","0.3232422","0.040039062","73.46875","-19.53125","-188.71875"
"1538425278175","891","0.62597656","0.29101562","-0.046875","70.78125","-8.34375","-153.0"
"1538425278176","892","0.5175781","0.29589844","-0.15429688","56.8125","5.25","-108.8125"
"1538425278176","893","0.38183594","0.34472656","-0.22167969","36.5625","19.1875","-68.65625"
"1538425278177","894","0.34570312","0.49023438","-0.31445312","18.3125","42.25","-38.9375"
"1538425278374","895","0.42382812","0.48828125","-0.34375","42.96875","64.28125","3.125"
"1538425278374","896","0.7832031","0.6152344","-0.4921875","80.125","83.1875","58.0625"
"1538425278374","897","0.9785156","0.49121094","-0.5097656","114.90625","91.0","105.53125"
"1538425278374","898","1.1416016","0.31640625","-0.41601562","91.1875","126.21875","129.46875"
"1538425278374","899","1.3378906","0.22851562","-0.484375","69.4375","133.5","154.90625"
"1538425278572","900","1.2207031","0.13378906","-0.4111328","36.1875","122.9375","161.03125"
"1538425278573","901","1.1572266","0.12695312","-0.28320312","-14.71875","103.71875","152.34375"
"1538425278769","902","1.0722656","0.15722656","-0.24707031","-38.78125","90.59375","135.375"
"1538425278769","903","1.1123047","0.171875","-0.3408203","-27.0625","82.71875","121.53125"
"1538425278769","904","1.0966797","0.19042969","-0.34375","-5.8125","66.21875","107.1875"
"1538425278770","905","0.9716797","0.16699219","-0.296875","6.28125","53.71875","92.59375"
"1538425278770","906","0.95214844","0.12890625","-0.31054688","7.625","47.0625","78.375"
"1538425278772","907","0.8798828","0.13183594","-0.28125","2.5625","37.0","66.125"
"1538425278772","908","0.8457031","0.12402344","-0.26171875","0.71875","31.5625","58.59375"
"1538425278772","909","0.87402344","0.13183594","-0.265625","10.96875","25.6875","50.0625"
"1538425278970","910","0.9296875","0.07421875","-0.24023438","25.8125","15.15625","39.6875"
"1538425278970","911","0.9091797","0.032226562","-0.17382812","19.28125","8.3125","27.65625"
"1538425278970","912","0.9082031","-0.09472656","-0.13574219","8.46875","5.1875","18.5"
"1538425278970","913","0.84765625","-0.12890625","-0.09277344","-16.375","0.6875","15.40625"
"1538425278971","914","0.82128906","-0.009765625","-0.13476562","13.125","-0.84375","11.84375"
"1538425279167","915","1.046875","-0.025390625","-0.14453125","44.65625","0.5625","5.5625"
"1538425279167","916","1.2958984","-0.0126953125","-0.12695312","53.40625","0.625","0.75"
"1538425279167","917","1.3955078","-9.765625E-4","-0.12597656","50.96875","-5.1875","-9.6875"
"1538425279167","918","1.3769531","0.11035156","-0.13964844","33.5625","-10.625","-26.90625"
"1538425279168","919","1.3378906","0.20214844","-0.1015625","42.03125","-14.53125","-49.96875"
"1538425279368","920","1.3320312","0.23339844","-0.09375","50.21875","-26.3125","-76.84375"
"1538425279368","921","1.1572266","0.29003906","0.07714844","54.25","-55.96875","-108.6875"
"1538425279369","922","1.1132812","0.3623047","0.21875","80.625","-56.5","-138.0"
"1538425279369","923","1.2050781","0.2939453","0.17480469","87.875","-53.53125","-159.59375"
"1538425279369","924","1.2421875","0.3173828","0.14550781","76.78125","-54.125","-173.03125"
"1538425279565","925","1.1601562","0.27148438","0.060546875","62.625","-58.78125","-185.40625"
"1538425279566","926","1.1484375","0.2529297","0.049804688","46.25","-55.09375","-185.84375"
"1538425279566","927","1.0703125","0.30566406","0.040039062","45.8125","-49.625","-173.4375"
"1538425279566","928","0.9482422","0.2763672","-0.013671875","60.59375","-44.1875","-158.3125"
"1538425279566","929","0.8779297","0.21679688","-0.0625","65.59375","-39.90625","-134.75"
"1538425279763","930","0.7451172","0.20703125","-0.076171875","54.25","-31.1875","-106.0625"
"1538425279763","931","0.66015625","0.203125","-0.14257812","46.125","-15.3125","-76.90625"
"1538425279764","932","0.6074219","0.17675781","-0.18164062","43.8125","-4.21875","-42.71875"
"1538425279764","933","0.7373047","0.18164062","-0.17871094","38.9375","19.65625","1.90625"
"1538425279765","934","0.9189453","0.18359375","-0.27148438","37.40625","37.71875","48.03125"
"1538425280160","935","0.94921875","0.13671875","-0.22558594","25.8125","54.6875","85.34375"
"1538425280160","936","1.2978516","0.11425781","-0.18066406","12.0625","87.34375","132.28125"
"1538425280161","937","1.5742188","0.12402344","-0.21582031","-16.0","102.0","179.28125"
"1538425280162","938","1.3447266","0.12597656","-0.23242188","-63.84375","98.9375","196.3125"
"1538425280162","939","1.2783203","0.123046875","-0.20703125","-90.78125","91.125","183.375"
"1538425280163","940","1.2949219","0.12988281","-0.17382812","-99.0625","78.6875","159.3125"
"1538425280163","941","1.2304688","0.2265625","-0.18847656","-94.6875","64.8125","138.125"
"1538425280164","942","1.1054688","0.26171875","-0.18554688","-77.40625","50.53125","123.375"
"1538425280164","943","0.93847656","0.24414062","-0.1796875","-50.78125","43.15625","114.5"
"1538425280359","944","0.90625","0.2109375","-0.22558594","-32.3125","33.09375","96.375"
"1538425280360","945","0.92578125","0.20996094","-0.23535156","-42.96875","26.5625","84.53125"
"1538425280360","946","0.9765625","0.21582031","-0.25585938","-44.4375","18.5","69.40625"
"1538425280361","947","1.0185547","0.23046875","-0.2626953","-45.46875","10.125","49.15625"
"1538425280361","948","0.9921875","0.22460938","-0.265625","-38.84375","3.90625","21.375"
"1538425280558","949","1.1064453","0.23144531","-0.2421875","-25.15625","3.25","-9.875"
"1538425280558","950","1.2265625","0.26171875","-0.2109375","0.59375","8.125","-38.125"
"1538425280558","951","1.5605469","0.22558594","-0.2626953","34.59375","8.25","-59.1875"
"1538425280559","952","1.3955078","0.234375","-0.17382812","44.375","-12.25","-81.53125"
"1538425280560","953","1.0615234","0.21582031","-0.0859375","35.6875","-35.09375","-118.46875"
"1538425280757","954","1.3486328","0.29003906","0.041992188","66.6875","-33.25","-151.78125"
"1538425280757","955","1.3916016","0.13671875","0.10644531","93.0625","-61.09375","-178.46875"
"1538425280757","956","1.2548828","0.111328125","0.08496094","86.28125","-66.53125","-190.1875"
"1538425280758","957","1.1865234","0.10839844","0.0146484375","73.0625","-65.84375","-195.59375"
"1538425280758","958","1.0146484","0.13671875","-0.0390625","59.75","-62.125","-195.4375"
"1538425280958","959","0.9814453","0.140625","-0.0078125","63.65625","-57.78125","-181.1875"
"1538425280958","960","0.94140625","0.14453125","0.0146484375","59.4375","-52.375","-157.40625"
"1538425280959","961","0.8847656","0.16992188","0.009765625","50.71875","-45.15625","-127.0625"
"1538425280959","962","0.7939453","0.11425781","-0.025390625","54.625","-34.34375","-93.375"
"1538425280959","963","0.7548828","0.08691406","-0.06933594","44.59375","-11.78125","-54.0625"
"1538425281155","964","0.82421875","0.1171875","-0.16601562","47.0","15.75","-7.5625"
"1538425281155","965","0.9160156","0.08300781","-0.20507812","32.78125","33.40625","40.21875"
"1538425281155","966","1.1455078","0.08886719","-0.19824219","11.03125","57.4375","94.8125"
"1538425281156","967","1.3847656","0.005859375","-0.12597656","-15.03125","70.375","156.0625"
"1538425281156","968","1.40625","0.056640625","-0.12890625","-53.40625","89.78125","208.4375"
"1538425281354","969","1.4296875","0.061523438","-0.20214844","-82.90625","100.09375","231.21875"
"1538425281356","970","1.4882812","0.11621094","-0.2421875","-103.59375","89.65625","222.84375"
"1538425281356","971","1.3115234","0.13476562","-0.20605469","-112.1875","65.0625","182.75"
"1538425281356","972","1.1289062","0.17285156","-0.13867188","-88.9375","47.3125","132.34375"
"1538425281357","973","1.0136719","0.14648438","-0.12792969","-52.875","36.75","100.46875"
"1538425281552","974","0.9394531","0.15625","-0.10058594","-61.46875","27.90625","84.90625"
"1538425281552","975","0.8808594","0.22363281","-0.09472656","-90.71875","23.1875","81.125"
"1538425281553","976","0.9013672","0.2763672","-0.123046875","-102.71875","22.46875","82.96875"
"1538425281553","977","0.8955078","0.32128906","-0.17480469","-81.625","19.40625","87.0"
"1538425281554","978","0.9746094","0.2890625","-0.25390625","-45.71875","20.09375","81.375"
"1538425281751","979","1.0068359","0.2626953","-0.32910156","-21.25","16.1875","57.5"
"1538425281752","980","0.9824219","0.21191406","-0.34765625","2.6875","10.5625","17.65625"
"1538425281753","981","1.0400391","0.203125","-0.2861328","40.34375","11.90625","-18.125"
"1538425281753","982","1.1865234","0.18359375","-0.21777344","67.3125","8.84375","-44.78125"
"1538425281753","983","1.5722656","0.2265625","-0.22753906","72.0625","5.625","-62.375"
"1538425281951","984","1.6533203","0.21386719","-0.21289062","62.25","-24.90625","-90.3125"
"1538425281952","985","1.2197266","0.16308594","-0.13476562","35.875","-59.1875","-145.75"
"1538425281952","986","1.4892578","0.14453125","0.08105469","67.0","-60.90625","-193.71875"
"1538425281952","987","1.4707031","0.07910156","0.203125","94.34375","-82.375","-223.9375"
"1538425282148","988","1.3164062","0.07910156","0.061523438","77.5","-82.9375","-231.75"
"1538425282149","989","1.1855469","0.123046875","-0.07324219","58.875","-81.09375","-224.90625"
"1538425282149","990","0.9921875","0.14648438","-0.047851562","37.71875","-72.625","-209.40625"
"1538425282149","991","0.8515625","0.15429688","-0.0087890625","37.03125","-56.625","-182.84375"
"1538425282149","992","0.78125","0.16601562","0.013671875","49.0","-41.375","-148.90625"
"1538425282349","993","0.7373047","0.15527344","-0.029296875","62.0625","-28.1875","-109.59375"
"1538425282349","994","0.6777344","0.12597656","-0.0546875","63.65625","-14.03125","-67.6875"
"1538425282349","995","0.6894531","0.12597656","-0.09375","48.28125","8.90625","-23.0"
"1538425282350","996","0.79785156","0.13867188","-0.14550781","36.375","34.0","23.5"
"1538425282351","997","0.96972656","0.13964844","-0.23828125","32.71875","56.59375","73.375"
"1538425282544","998","1.2080078","0.08886719","-0.22949219","22.5","74.28125","122.03125"
"1538425282545","999","1.5244141","0.060546875","-0.15820312","-11.1875","99.96875","174.75"
"1538425282545","1000","1.5908203","0.09667969","-0.2607422","-42.84375","105.71875","211.25"
"1538425282546","1001","1.4023438","0.10546875","-0.28222656","-76.65625","99.5","215.90625"
"1538425282548","1002","1.4121094","0.111328125","-0.2841797","-97.0","91.8125","197.15625"
"1538425282744","1003","1.2324219","0.16601562","-0.28222656","-88.5","62.625","155.34375"
"1538425282744","1004","1.0820312","0.19824219","-0.24804688","-78.875","40.09375","109.25"
"1538425282745","1005","0.90527344","0.17773438","-0.21191406","-76.96875","23.9375","78.75"
"1538425282746","1006","0.82128906","0.15722656","-0.13867188","-87.90625","15.15625","62.03125"
"1538425282746","1007","0.85546875","0.21191406","-0.12988281","-107.5","13.375","60.375"
"1538425282943","1008","0.8066406","0.2607422","-0.14160156","-100.03125","10.8125","63.375"
"1538425282944","1009","0.80371094","0.29492188","-0.15332031","-81.3125","11.125","64.84375"
"1538425282944","1010","0.89453125","0.25390625","-0.17871094","-56.53125","16.96875","57.09375"
"1538425282945","1011","1.0048828","0.23144531","-0.2578125","-36.3125","18.6875","41.03125"
"1538425283142","1012","0.9160156","0.1953125","-0.3388672","-16.3125","13.5625","13.0"
"1538425283143","1013","1.0449219","0.18554688","-0.32226562","17.15625","23.875","-9.625"
"1538425283143","1014","1.3417969","0.17382812","-0.35058594","57.125","24.84375","-24.40625"
"1538425283143","1015","1.5273438","0.15625","-0.375","66.09375","10.875","-38.8125"
"1538425283143","1016","1.4902344","0.18554688","-0.3232422","67.0","-7.1875","-58.15625"
"1538425283144","1017","1.21875","0.16992188","-0.20019531","55.03125","-32.78125","-88.90625"
"1538425283343","1018","1.1240234","0.28710938","-0.061523438","45.21875","-41.0625","-129.625"
"1538425283343","1019","1.3671875","0.2890625","0.07324219","91.96875","-60.40625","-162.40625"
"1538425283343","1020","1.3203125","0.18457031","0.08886719","102.96875","-78.59375","-180.78125"
"1538425283343","1021","1.2900391","0.18945312","0.036132812","63.71875","-80.0","-187.78125"
"1538425283344","1022","1.1757812","0.19921875","9.765625E-4","33.9375","-73.90625","-189.1875"
"1538425283539","1023","0.9951172","0.19726562","0.020507812","26.28125","-65.90625","-184.9375"
"1538425283738","1024","0.7998047","0.19921875","0.038085938","34.0","-54.75","-172.0625"
"1538425283739","1025","0.70703125","0.20898438","0.026367188","46.9375","-38.5625","-149.71875"
"1538425283739","1026","0.6542969","0.19140625","-0.009765625","62.125","-23.84375","-118.8125"
"1538425283739","1027","0.6582031","0.18457031","-0.043945312","64.5","-4.375","-79.625"
"1538425283936","1028","0.65625","0.15625","-0.09863281","55.40625","14.46875","-37.09375"
"1538425283937","1029","0.70996094","0.1875","-0.15234375","40.28125","39.625","5.875"
"1538425283938","1030","0.9345703","0.19824219","-0.25390625","43.875","68.625","55.6875"
"1538425283938","1031","1.1552734","0.18945312","-0.31933594","66.15625","79.46875","102.5625"
"1538425283938","1032","1.3759766","0.07324219","-0.16308594","39.90625","108.84375","141.1875"
"1538425283939","1033","1.6269531","0.072265625","-0.26171875","9.875","127.03125","181.65625"
"1538425283940","1034","1.3847656","0.08691406","-0.37109375","-35.59375","113.40625","195.375"
"1538425283941","1035","1.3193359","0.076171875","-0.22949219","-82.03125","109.875","186.84375"
"1538425283941","1036","1.4072266","0.14746094","-0.2548828","-86.75","87.15625","166.28125"
"1538425284135","1037","1.2226562","0.19238281","-0.22167969","-89.78125","62.3125","131.25"
"1538425284335","1038","1.0458984","0.22265625","-0.25097656","-82.28125","44.5","93.5625"
"1538425284335","1039","0.85546875","0.17382812","-0.2705078","-72.15625","32.0625","71.78125"
"1538425284335","1040","0.81933594","0.22070312","-0.23339844","-72.59375","23.5","61.53125"
"1538425284537","1041","0.7519531","0.25390625","-0.21386719","-62.8125","15.75","58.71875"
"1538425284537","1042","0.8330078","0.27148438","-0.22558594","-38.84375","12.8125","55.3125"
"1538425284537","1043","0.9160156","0.24804688","-0.26757812","-12.15625","8.78125","45.90625"
"1538425284538","1044","0.9433594","0.23730469","-0.30566406","9.8125","3.375","27.53125"
"1538425284538","1045","0.88183594","0.17089844","-0.2919922","20.5625","-7.875","-2.1875"
"1538425284539","1046","0.87402344","0.15429688","-0.23925781","29.15625","-13.84375","-30.5625"
"1538425284539","1047","1.1201172","0.12011719","-0.23144531","51.3125","-14.6875","-55.03125"
"1538425284539","1048","1.3007812","0.12792969","-0.23535156","58.71875","-9.28125","-55.28125"
"1538425284539","1049","1.4541016","0.125","-0.21777344","64.625","-6.46875","-52.65625"
"1538425284731","1050","1.6699219","0.15917969","-0.08984375","63.34375","-6.15625","-47.71875"
"1538425284732","1051","1.0634766","0.35351562","0.052734375","100.21875","-56.9375","-101.84375"
"1538425284732","1052","1.0742188","0.3515625","0.42871094","139.625","-52.59375","-139.03125"
"1538425284732","1053","1.0947266","0.34765625","0.3359375","147.625","-53.09375","-158.5625"
"1538425284733","1054","1.2294922","0.44921875","0.2919922","121.8125","-44.96875","-165.28125"
"1538425284735","1055","1.0986328","0.5048828","0.21484375","97.71875","-46.6875","-171.375"
"1538425284930","1056","1.1308594","0.5019531","0.31054688","83.125","-28.5625","-174.0625"
"1538425284932","1057","1.0332031","0.45996094","0.19238281","94.28125","-21.90625","-171.3125"
"1538425284932","1058","0.96777344","0.3623047","0.111328125","94.84375","-18.375","-165.875"
"1538425284932","1059","0.86816406","0.3232422","0.033203125","76.65625","-14.09375","-154.84375"
"1538425284932","1060","0.78125","0.3173828","-0.041015625","63.78125","-4.09375","-135.125"
"1538425285128","1061","0.76171875","0.32128906","-0.11328125","60.40625","5.0625","-108.6875"
"1538425285131","1062","0.6191406","0.27441406","-0.16503906","39.1875","14.40625","-84.28125"
"1538425285131","1063","0.57714844","0.2841797","-0.18457031","24.46875","29.5","-57.65625"
"1538425285132","1064","0.58203125","0.29003906","-0.26464844","29.21875","44.6875","-25.1875"
"1538425285132","1065","0.66308594","0.2890625","-0.32714844","45.28125","51.71875","18.125"
"1538425285328","1066","0.81640625","0.28125","-0.3935547","37.09375","64.875","64.34375"
"1538425285329","1067","1.0761719","0.30078125","-0.38964844","37.46875","81.6875","109.375"
"1538425285329","1068","1.3857422","0.21582031","-0.38183594","19.53125","105.125","154.375"
"1538425285329","1069","1.5947266","0.17382812","-0.3671875","-18.875","109.5625","193.3125"
"1538425285330","1070","1.4570312","0.23046875","-0.28222656","-71.0625","100.65625","207.46875"
"1538425285527","1071","1.3720703","0.23046875","-0.3017578","-76.71875","92.65625","196.71875"
"1538425285528","1072","1.2998047","0.23925781","-0.31835938","-46.8125","66.65625","167.5"
"1538425285528","1073","1.1240234","0.23828125","-0.20117188","-30.65625","49.5","127.8125"
"1538425285528","1074","1.0048828","0.2265625","-0.18457031","-27.34375","39.25","91.8125"
"1538425285529","1075","0.89160156","0.23828125","-0.22363281","-13.875","34.4375","72.71875"
"1538425285726","1076","0.8125","0.23730469","-0.19433594","5.96875","29.0625","62.5"
"1538425285726","1077","0.796875","0.20703125","-0.24902344","12.0625","25.09375","57.5"
"1538425285726","1078","0.7861328","0.17578125","-0.25390625","-1.34375","16.84375","51.84375"
"1538425285726","1079","0.83496094","0.17089844","-0.26660156","-17.03125","13.6875","42.6875"
"1538425285728","1080","0.8730469","0.203125","-0.3154297","-18.0","6.21875","27.40625"
"1538425285926","1081","0.95703125","0.23046875","-0.3232422","-1.40625","-1.65625","5.375"
"1538425285926","1082","1.1435547","0.21289062","-0.30371094","23.0","-2.75","-18.375"
"1538425285926","1083","1.2744141","0.17480469","-0.30664062","42.21875","-8.65625","-41.5625"
"1538425285926","1084","1.4785156","0.14746094","-0.25976562","49.84375","-10.0625","-60.34375"
"1538425285927","1085","1.4492188","0.23339844","-0.19726562","58.59375","-22.8125","-68.21875"
"1538425286124","1086","1.3583984","0.2890625","-0.13964844","59.125","-42.28125","-90.4375"
"1538425286125","1087","1.2011719","0.28027344","0.00390625","62.375","-64.5625","-136.46875"
"1538425286320","1088","1.2890625","0.25976562","0.12792969","94.03125","-77.75","-168.875"
"1538425286322","1089","1.3652344","0.23925781","0.107421875","93.8125","-85.9375","-184.0625"
"1538425286323","1090","1.2988281","0.18847656","0.060546875","52.96875","-84.46875","-189.75"
"1538425286324","1091","1.1025391","0.2265625","-0.03125","16.96875","-76.21875","-194.3125"
"1538425286324","1092","0.92578125","0.19726562","0.001953125","14.875","-64.1875","-192.5"
"1538425286325","1093","0.76953125","0.21582031","0.026367188","28.5625","-49.1875","-175.28125"
"1538425286325","1094","0.6777344","0.2421875","-0.0107421875","50.09375","-34.59375","-148.125"
"1538425286325","1095","0.6220703","0.20605469","-0.06347656","67.625","-20.125","-113.03125"
"1538425286520","1096","0.54589844","0.13574219","-0.17089844","61.4375","-6.65625","-71.40625"
"1538425286520","1097","0.49023438","0.13378906","-0.17871094","30.8125","13.4375","-23.125"
"1538425286521","1098","0.5878906","0.19433594","-0.20117188","6.8125","43.71875","27.40625"
"1538425286521","1099","0.79003906","0.22949219","-0.24804688","6.53125","74.21875","79.78125"
"1538425286522","1100","1.1386719","0.21875","-0.28027344","29.78125","101.03125","136.3125"
"1538425286719","1101","1.4511719","0.15234375","-0.2265625","34.0","122.5","185.5625"
"1538425286719","1102","1.6689453","0.140625","-0.23242188","23.78125","143.9375","223.8125"
"1538425286719","1103","1.5869141","0.14160156","-0.33496094","6.59375","132.21875","226.875"
"1538425286720","1104","1.5244141","0.103515625","-0.3125","-22.46875","110.40625","195.03125"
"1538425286720","1105","1.265625","0.0625","-0.22558594","-60.3125","72.875","134.71875"
"1538425286917","1106","1.0898438","0.059570312","-0.15722656","-85.9375","59.09375","84.0"
"1538425286918","1107","1.0283203","0.16601562","-0.1875","-87.59375","51.03125","59.09375"
"1538425286919","1108","0.91503906","0.28515625","-0.25195312","-69.84375","35.46875","58.46875"
"1538425286919","1109","0.7988281","0.25390625","-0.21484375","-49.21875","20.9375","59.65625"
"1538425286920","1110","0.78808594","0.21289062","-0.22949219","-42.125","19.90625","58.90625"
"1538425287116","1111","0.828125","0.19921875","-0.26367188","-38.21875","15.375","57.375"
"1538425287118","1112","0.921875","0.20410156","-0.2578125","-32.96875","14.34375","48.03125"
"1538425287118","1113","0.9980469","0.22167969","-0.2626953","-23.875","4.40625","28.5625"
"1538425287118","1114","0.9433594","0.21679688","-0.20800781","-2.8125","-2.6875","4.21875"
"1538425287118","1115","0.921875","0.19726562","-0.23925781","34.71875","-4.5625","-16.34375"
"1538425287315","1116","0.92285156","0.16796875","-0.2705078","62.96875","-12.03125","-34.15625"
"1538425287316","1117","1.015625","0.11328125","-0.24121094","77.5625","-15.875","-47.40625"
"1538425287316","1118","1.2900391","0.1015625","-0.20214844","78.46875","-11.59375","-49.25"
"1538425287316","1119","1.4970703","0.064453125","-0.19140625","72.3125","-20.375","-46.5625"
"1538425287317","1120","1.5048828","0.10644531","-0.07714844","40.15625","-23.5625","-45.21875"
"1538425287516","1121","1.375","0.27246094","-0.10449219","26.71875","-17.625","-52.71875"
"1538425287516","1122","1.1494141","0.36523438","-0.07714844","76.78125","-35.75","-71.28125"
"1538425287516","1123","1.1074219","0.3984375","0.18457031","141.40625","-49.25","-97.15625"
"1538425287517","1124","1.2675781","0.2890625","0.4169922","138.0625","-44.90625","-125.1875"
"1538425287712","1125","1.2207031","0.35058594","0.23828125","142.1875","-53.21875","-136.15625"
"1538425287914","1126","1.2060547","0.49121094","0.3623047","94.65625","-49.4375","-151.40625"
"1538425287914","1127","1.1230469","0.51953125","0.30273438","92.21875","-42.71875","-167.90625"
"1538425287914","1128","1.0048828","0.43164062","0.25390625","95.15625","-37.34375","-179.4375"
"1538425287915","1129","1.0","0.40820312","0.19042969","81.28125","-30.3125","-180.59375"
"1538425288112","1130","0.9589844","0.38085938","0.109375","67.6875","-26.1875","-171.4375"
"1538425288113","1131","0.8720703","0.33691406","0.0126953125","59.125","-19.46875","-156.46875"
"1538425288113","1132","0.8310547","0.34375","-0.060546875","50.96875","-9.15625","-137.8125"
"1538425288113","1133","0.69433594","0.33203125","-0.11621094","49.90625","1.40625","-113.15625"
"1538425288113","1134","0.59765625","0.33789062","-0.20800781","60.84375","10.1875","-85.875"
"1538425288114","1135","0.5175781","0.2939453","-0.20214844","58.78125","24.90625","-58.875"
"1538425288115","1136","0.55859375","0.26757812","-0.22851562","61.8125","47.1875","-22.9375"
"1538425288115","1137","0.7128906","0.30078125","-0.3642578","63.65625","62.6875","19.65625"
"1538425288309","1138","0.7558594","0.20019531","-0.3876953","44.3125","71.84375","55.96875"
"1538425288507","1139","1.359375","0.1953125","-0.35351562","13.71875","123.34375","146.8125"
"1538425288510","1140","1.6142578","0.16210938","-0.3564453","-5.25","136.78125","196.59375"
"1538425288513","1141","1.5371094","0.19824219","-0.32128906","-28.03125","121.78125","219.90625"
"1538425288513","1142","1.4111328","0.14746094","-0.23632812","-48.65625","113.15625","208.875"
"1538425288513","1143","1.4638672","0.15820312","-0.2998047","-48.28125","89.65625","177.6875"
"1538425288513","1144","1.1416016","0.19140625","-0.2529297","-43.84375","58.96875","131.40625"
"1538425288513","1145","1.0166016","0.16113281","-0.21191406","-37.65625","46.5625","87.40625"
"1538425288513","1146","0.8925781","0.15625","-0.2109375","-30.46875","36.625","61.03125"
"1538425288513","1147","0.84277344","0.20703125","-0.21386719","-23.09375","30.9375","51.34375"
"1538425288706","1148","0.79589844","0.171875","-0.23535156","-14.21875","19.84375","47.6875"
"1538425288707","1149","0.8564453","0.18457031","-0.296875","-4.46875","15.5","46.28125"
"1538425288708","1150","0.9003906","0.171875","-0.32617188","-1.0625","7.09375","35.71875"
"1538425288708","1151","0.94628906","0.16699219","-0.3173828","6.28125","-2.4375","13.9375"
"1538425288708","1152","1.0585938","0.15820312","-0.2607422","20.3125","-6.59375","-13.59375"
"1538425288905","1153","1.15625","0.13867188","-0.27441406","33.5","-11.34375","-42.09375"
"1538425288907","1154","1.3466797","0.15039062","-0.24511719","44.125","-7.5","-57.96875"
"1538425288908","1155","1.4824219","0.20703125","-0.15722656","40.46875","-16.15625","-63.21875"
"1538425288908","1156","1.5537109","0.29785156","-0.091796875","13.1875","-38.8125","-88.4375"
"1538425288908","1157","1.1503906","0.3046875","0.13378906","30.375","-68.0625","-139.625"
"1538425289106","1158","1.2197266","0.20605469","0.20507812","86.59375","-58.21875","-180.28125"
"1538425289106","1159","1.4404297","0.19921875","0.068359375","93.1875","-60.28125","-192.96875"
"1538425289106","1160","1.2744141","0.23339844","-0.043945312","54.5","-72.375","-196.9375"
"1538425289106","1161","1.15625","0.18359375","-0.029296875","13.78125","-67.9375","-200.125"
"1538425289107","1162","0.9560547","0.20996094","-0.005859375","10.0625","-56.375","-189.75"
"1538425289303","1163","0.7861328","0.20507812","-0.01953125","41.4375","-48.03125","-166.0"
"1538425289304","1164","0.6669922","0.21972656","-0.03125","67.375","-38.4375","-136.09375"
"1538425289304","1165","0.6425781","0.171875","-0.107421875","81.78125","-25.8125","-101.90625"
"1538425289304","1166","0.5732422","0.11425781","-0.14941406","66.09375","-13.125","-64.625"
"1538425289305","1167","0.62402344","0.15429688","-0.1484375","39.40625","12.9375","-18.25"
"1538425289501","1168","0.8203125","0.22265625","-0.20507812","30.6875","45.21875","38.15625"
"1538425289502","1169","1.0380859","0.21386719","-0.21484375","31.125","67.21875","97.53125"
"1538425289502","1170","1.1992188","0.18847656","-0.20800781","27.15625","91.5","144.34375"
"1538425289700","1171","1.4394531","0.13183594","-0.19335938","2.6875","105.34375","180.625"
"1538425289700","1172","1.3222656","0.11425781","-0.2109375","-30.28125","103.71875","196.375"
"1538425289700","1173","1.4570312","0.10546875","-0.17675781","-71.3125","103.40625","190.375"
"1538425289701","1174","1.3662109","0.13085938","-0.20507812","-99.5","78.4375","161.28125"
"1538425289702","1175","1.2324219","0.18554688","-0.17773438","-116.53125","60.6875","124.03125"
"1538425289702","1176","1.1367188","0.21484375","-0.21679688","-96.9375","48.03125","97.46875"
"1538425289703","1177","0.98046875","0.20117188","-0.18847656","-73.25","32.53125","91.9375"
"1538425289901","1178","0.8671875","0.23925781","-0.15527344","-73.125","25.46875","92.34375"
"1538425289901","1179","0.85058594","0.25","-0.15527344","-66.59375","20.875","92.34375"
"1538425289901","1180","0.85253906","0.26953125","-0.17578125","-49.25","18.3125","91.625"
"1538425289902","1181","0.9238281","0.24511719","-0.20996094","-36.75","16.5625","78.625"
"1538425289902","1182","0.96875","0.22851562","-0.21679688","-36.375","11.90625","53.0625"
"1538425290097","1183","1.0068359","0.19140625","-0.24023438","-31.375","7.9375","21.5625"
"1538425290098","1184","1.0732422","0.19433594","-0.26660156","-19.25","4.21875","-7.125"
"1538425290099","1185","1.1279297","0.1796875","-0.234375","1.15625","3.3125","-29.09375"
"1538425290099","1186","1.171875","0.20605469","-0.21582031","21.46875","8.5625","-41.6875"
"1538425290099","1187","1.5009766","0.2919922","-0.2763672","64.125","11.53125","-46.8125"
"1538425290296","1188","1.4785156","0.25585938","-0.17578125","74.6875","-16.15625","-68.71875"
"1538425290694","1189","1.0810547","0.23535156","-0.091796875","66.09375","-42.90625","-114.5"
"1538425290694","1190","1.1572266","0.22167969","0.040039062","85.6875","-47.28125","-155.09375"
"1538425290696","1191","1.28125","0.1875","0.0859375","89.53125","-65.0","-180.78125"
"1538425290696","1192","1.3076172","0.19042969","0.037109375","53.09375","-73.84375","-188.96875"
"1538425290696","1193","1.2841797","0.21582031","-0.013671875","23.0","-72.0","-190.0625"
"1538425290697","1194","1.1064453","0.2421875","-0.030273438","8.65625","-67.8125","-187.125"
"1538425290697","1195","0.95703125","0.234375","0.017578125","26.96875","-58.53125","-176.8125"
"1538425290698","1196","0.80371094","0.20117188","0.020507812","48.09375","-46.375","-159.71875"
"1538425290698","1197","0.7011719","0.1953125","-0.03515625","67.8125","-33.9375","-132.5625"
"1538425290895","1198","1.4697266","0.15820312","-0.18066406","5.125","89.59375","162.84375"
"1538425291091","1199","1.5419922","0.14160156","-0.22070312","-20.75","102.0","207.84375"
"1538425291093","1200","1.4345703","0.064453125","-0.2685547","-50.84375","98.15625","216.6875"
"1538425291094","1201","1.4931641","0.06347656","-0.2607422","-91.8125","92.40625","201.96875"
"1538425291094","1202","1.3369141","0.12792969","-0.26464844","-117.875","62.625","165.0625"
"1538425291094","1203","1.1064453","0.16992188","-0.21386719","-132.75","39.5625","120.3125"
"1538425291094","1204","0.9423828","0.19921875","-0.16503906","-118.125","27.0","86.9375"
"1538425291096","1205","0.8720703","0.24121094","-0.15234375","-83.8125","16.84375","75.03125"
"1538425291096","1206","0.8222656","0.22363281","-0.12402344","-64.34375","11.25","74.03125"
"1538425291097","1207","0.8105469","0.2421875","-0.14941406","-64.65625","9.46875","76.84375"
"1538425291290","1208","0.84472656","0.22558594","-0.15820312","-62.28125","9.96875","76.78125"
"1538425291291","1209","0.87402344","0.20703125","-0.21679688","-56.28125","14.40625","71.84375"
"1538425291291","1210","0.95410156","0.20410156","-0.26757812","-53.21875","17.15625","57.875"
"1538425291291","1211","0.9667969","0.24511719","-0.3232422","-37.25","16.375","34.9375"
"1538425291292","1212","1.0078125","0.24804688","-0.30566406","14.34375","21.0625","8.8125"
"1538425291488","1213","1.125","0.2109375","-0.30859375","61.5625","22.65625","-15.625"
"1538425291489","1214","1.4169922","0.18652344","-0.31152344","81.71875","23.9375","-37.34375"
"1538425291490","1215","1.5820312","0.17089844","-0.28125","75.75","0.75","-58.53125"
"1538425291491","1216","1.2392578","0.18945312","-0.22558594","64.4375","-29.84375","-92.8125"
"1538425291491","1217","1.1738281","0.15234375","-0.10449219","52.65625","-46.6875","-138.0"
"1538425291688","1218","1.3095703","0.16992188","-0.016601562","60.15625","-65.375","-173.15625"
"1538425291688","1219","1.4580078","0.15039062","0.033203125","60.21875","-75.625","-189.5625"
"1538425291688","1220","1.3916016","0.13769531","-9.765625E-4","57.71875","-84.34375","-193.09375"
"1538425291688","1221","1.1582031","0.12402344","-0.057617188","47.09375","-81.78125","-189.0625"
"1538425291689","1222","0.9814453","0.14746094","-0.041015625","45.15625","-72.8125","-184.0625"
"1538425291889","1223","0.8330078","0.12792969","-0.013671875","50.46875","-61.625","-172.28125"
"1538425291889","1224","0.73828125","0.13867188","-0.016601562","58.40625","-47.78125","-151.59375"
"1538425291890","1225","0.6816406","0.13671875","-0.036132812","61.15625","-34.0","-120.59375"
"1538425291890","1226","0.6113281","0.13476562","-0.07910156","56.875","-18.125","-81.15625"
"1538425291890","1227","0.57128906","0.11230469","-0.11621094","44.375","5.0","-37.09375"
"1538425292085","1228","0.6855469","0.12109375","-0.15527344","30.03125","38.71875","16.6875"
"1538425292085","1229","1.0634766","0.17089844","-0.29101562","39.46875","71.25","80.625"
"1538425292086","1230","1.234375","0.12109375","-0.26953125","39.65625","80.8125","134.09375"
"1538425292284","1231","1.4609375","0.05859375","-0.09472656","2.90625","111.40625","180.8125"
"1538425292285","1232","1.6953125","0.033203125","-0.1640625","-40.34375","132.5625","216.375"
"1538425292285","1233","1.5292969","0.053710938","-0.2939453","-82.53125","123.0625","225.84375"
"1538425292285","1234","1.4785156","0.12695312","-0.28710938","-115.375","105.78125","201.5625"
"1538425292285","1235","1.2275391","0.20214844","-0.28515625","-128.90625","63.53125","146.125"
"1538425292287","1236","1.0732422","0.19921875","-0.21875","-113.0625","40.40625","87.90625"
"1538425292288","1237","0.9453125","0.19921875","-0.16210938","-95.46875","23.25","52.8125"
"1538425292483","1238","0.8642578","0.20214844","-0.17773438","-77.46875","11.53125","42.0625"
"1538425292483","1239","0.80371094","0.21191406","-0.16503906","-79.84375","3.1875","42.96875"
"1538425292483","1240","0.7861328","0.21289062","-0.16015625","-76.65625","-0.0625","47.0625"
"1538425292483","1241","0.77441406","0.2109375","-0.16503906","-66.46875","2.09375","51.28125"
"1538425292484","1242","0.86816406","0.17382812","-0.22363281","-50.71875","6.40625","51.28125"
"1538425292682","1243","0.9267578","0.17773438","-0.22851562","-46.15625","7.21875","41.5625"
"1538425292682","1244","0.9482422","0.18554688","-0.25683594","-21.5625","10.875","25.84375"
"1538425292682","1245","1.0097656","0.15429688","-0.33398438","10.0625","11.0625","3.96875"
"1538425292683","1246","1.0371094","0.15722656","-0.32617188","29.59375","14.78125","-14.09375"
"1538425292683","1247","1.1962891","0.12109375","-0.296875","44.4375","17.65625","-30.375"
"1538425292882","1248","1.4785156","0.14257812","-0.2841797","47.46875","21.3125","-42.09375"
"1538425292883","1249","1.4511719","0.20410156","-0.25","62.5","-2.0","-52.46875"
"1538425293079","1250","1.1035156","0.24902344","-0.119140625","70.0625","-24.65625","-86.59375"
"1538425293079","1251","1.2255859","0.30566406","-0.013671875","94.03125","-34.46875","-127.84375"
"1538425293081","1252","1.3291016","0.24902344","0.017578125","126.40625","-60.28125","-151.59375"
"1538425293081","1253","1.3818359","0.2265625","0.0390625","103.75","-78.90625","-169.90625"
"1538425293082","1254","1.2988281","0.22070312","0.021484375","61.8125","-85.375","-184.8125"
"1538425293082","1255","1.1103516","0.22949219","9.765625E-4","37.65625","-80.8125","-193.03125"
"1538425293083","1256","0.9472656","0.27246094","0.021484375","26.90625","-70.125","-191.53125"
"1538425293279","1257","0.78125","0.3017578","0.032226562","25.1875","-52.3125","-182.53125"
"1538425293279","1258","0.6972656","0.3095703","-0.01953125","36.625","-33.5","-164.65625"
"1538425293279","1259","0.6347656","0.34472656","-0.076171875","42.34375","-18.375","-138.40625"
"1538425293279","1260","0.5732422","0.3544922","-0.17089844","35.75","-3.90625","-105.46875"
"1538425293280","1261","0.49902344","0.41308594","-0.20507812","32.78125","6.96875","-74.4375"
"1538425293476","1262","0.4296875","0.4169922","-0.21191406","28.3125","23.6875","-47.84375"
"1538425293477","1263","0.45117188","0.40234375","-0.34277344","45.28125","38.28125","-16.03125"
"1538425293478","1264","0.6464844","0.44921875","-0.38183594","57.90625","51.21875","22.90625"
"1538425293479","1265","0.94433594","0.35253906","-0.4453125","48.03125","72.75","73.75"
"1538425293479","1266","1.2792969","0.34570312","-0.421875","29.46875","88.09375","126.34375"
"1538425293675","1267","1.4306641","0.33691406","-0.3857422","16.09375","102.59375","171.46875"
"1538425293675","1268","1.4033203","0.22070312","-0.41015625","15.0","100.15625","195.1875"
"1538425293676","1269","1.3330078","0.14453125","-0.28027344","-9.34375","92.65625","191.78125"
"1538425293676","1270","1.2158203","0.16796875","-0.27539062","-23.625","75.03125","168.53125"
"1538425293677","1271","1.1669922","0.20117188","-0.32617188","-21.90625","59.625","138.8125"
"1538425293874","1272","0.9316406","0.19238281","-0.26367188","-15.40625","36.5","104.5625"
"1538425293876","1273","0.8515625","0.14355469","-0.24902344","-25.40625","29.96875","72.53125"
"1538425293876","1274","0.8125","0.15136719","-0.22363281","-35.71875","21.96875","50.5625"
"1538425293876","1275","0.79589844","0.22363281","-0.18945312","-33.75","20.8125","39.875"
"1538425293876","1276","0.890625","0.24414062","-0.22070312","-9.34375","17.84375","33.75"
"1538425294072","1277","0.81152344","0.15234375","-0.21386719","18.46875","13.9375","26.1875"
"1538425294072","1278","0.9091797","0.080078125","-0.21484375","33.375","15.8125","22.78125"
"1538425294074","1279","0.9589844","0.04296875","-0.13769531","21.09375","10.75","16.75"
"1538425294074","1280","1.0351562","-0.005859375","-0.13183594","8.03125","12.59375","11.96875"
"1538425294075","1281","0.9501953","0.021484375","-0.18847656","10.78125","9.71875","12.71875"
"1538425294472","1282","0.87402344","0.10253906","-0.21972656","37.53125","10.1875","15.34375"
"1538425294472","1283","0.8671875","0.140625","-0.21972656","78.90625","5.375","15.40625"
"1538425294473","1284","0.91796875","0.12011719","-0.17675781","102.15625","-1.15625","10.375"
"1538425294473","1285","1.0009766","0.07519531","-0.12402344","104.3125","-7.3125","4.28125"
"1538425294475","1286","1.1992188","0.09863281","-0.11230469","94.09375","-9.34375","-1.09375"
"1538425294476","1287","1.3300781","0.119140625","-0.09082031","66.09375","-18.78125","-11.15625"
"1538425294476","1288","1.3876953","0.13085938","-0.040039062","40.03125","-20.8125","-22.75"
"1538425294476","1289","1.3994141","0.1953125","0.016601562","23.1875","-20.1875","-35.875"
"1538425294476","1290","1.3535156","0.2763672","-0.021484375","35.875","-14.40625","-54.8125"
"1538425294669","1291","1.2519531","0.4169922","0.2529297","103.875","-47.28125","-127.4375"
"1538425294669","1292","1.3203125","0.2919922","0.36132812","147.09375","-50.28125","-164.65625"
