"# PDIoT walking data"
"# Start time: 20181002T133228"
"# Group: F"
"# Subject: Natasa"
"# Activity type: Descending stairs"
"# Sensor position: Wrist"
"# Side of body: Right"
"# Sensor mounting: Body"
"# Number of steps: 30"
"# Notes: "
""
"timestamp","seq","accel_x","accel_y","accel_z","gyro_x","gyro_y","gyro_z"
"1538483548981","0","-0.11328125","-1.0234375","0.0078125","2.625","5.09375","6.90625"
"1538483548981","1","-0.05078125","-1.0605469","0.045898438","14.125","-5.46875","3.25"
"1538483548981","2","-0.040039062","-0.9501953","-0.045898438","16.4375","-5.625","11.78125"
"1538483549180","3","-0.09765625","-0.99902344","0.025390625","6.78125","-3.5625","13.6875"
"1538483549180","4","-0.15332031","-0.9658203","0.04296875","6.25","-1.78125","12.5"
"1538483549180","5","-0.15039062","-0.96484375","0.034179688","8.25","-0.9375","5.6875"
"1538483549184","6","-0.15625","-1.0","0.078125","5.875","0.84375","1.84375"
"1538483549184","7","-0.1484375","-1.0097656","0.0859375","8.96875","3.9375","1.78125"
"1538483549184","8","-0.12011719","-0.9863281","0.036132812","0.6875","4.625","1.59375"
"1538483549184","9","-0.12207031","-0.9794922","0.0107421875","3.625","2.125","1.28125"
"1538483549378","10","-0.125","-0.9921875","0.01953125","2.09375","-0.75","2.25"
"1538483549379","11","-0.10449219","-0.953125","9.765625E-4","2.4375","-2.46875","0.3125"
"1538483549379","12","-0.03125","-0.9580078","-0.01171875","6.90625","-4.28125","-4.46875"
"1538483549379","13","-0.025390625","-0.9267578","-0.052734375","-1.875","-13.4375","-12.21875"
"1538483549382","14","0.001953125","-0.7626953","-0.095703125","-125.78125","-27.625","-40.15625"
"1538483549577","15","0.034179688","-0.5761719","-0.14355469","-160.15625","-39.4375","-83.625"
"1538483549577","16","0.068359375","-0.5058594","-0.16699219","-126.75","-38.90625","-132.3125"
"1538483549578","17","0.09667969","-0.5","-0.12402344","-117.3125","-21.1875","-183.65625"
"1538483549578","18","0.3076172","-1.0839844","-0.13183594","-169.65625","11.34375","-225.21875"
"1538483549579","19","0.22070312","-0.49316406","-0.17578125","-277.625","62.96875","-254.8125"
"1538483549776","20","0.6191406","-0.28515625","-0.37304688","-251.625","147.25","-256.03125"
"1538483549776","21","1.0097656","-0.13574219","-0.41210938","-113.9375","200.53125","-244.03125"
"1538483549777","22","1.3935547","-0.09082031","-0.24707031","48.53125","237.46875","-240.65625"
"1538483549777","23","1.8310547","-0.22753906","-0.26953125","125.25","227.34375","-248.40625"
"1538483549777","24","1.8027344","-0.48046875","-0.35058594","36.28125","176.375","-232.1875"
"1538483549975","25","1.4277344","-0.32617188","-0.19433594","-80.4375","99.15625","-156.25"
"1538483549975","26","1.2001953","-0.03125","-0.3125","-65.78125","45.375","-56.21875"
"1538483549975","27","1.1298828","0.038085938","-0.328125","54.8125","10.09375","5.96875"
"1538483549976","28","0.91015625","-0.07910156","-0.32714844","129.65625","-29.375","30.875"
"1538483549976","29","0.86328125","-0.23828125","-0.3857422","119.53125","-24.5625","34.3125"
"1538483550375","30","0.9345703","-0.24902344","-0.42871094","55.75","-40.375","40.34375"
"1538483550375","31","1.1591797","-0.09765625","-0.43164062","12.9375","-45.4375","55.90625"
"1538483550376","32","1.2167969","0.0078125","-0.47070312","26.875","-78.8125","71.96875"
"1538483550376","33","1.046875","-0.013671875","-0.42089844","63.78125","-93.21875","93.5625"
"1538483550376","34","0.90722656","-0.08203125","-0.3310547","51.71875","-96.28125","122.1875"
"1538483550377","35","0.80371094","-0.09667969","-0.25585938","2.21875","-96.53125","138.96875"
"1538483550377","36","0.75390625","-0.076171875","-0.22949219","-40.5625","-93.03125","141.78125"
"1538483550378","37","0.7988281","-0.10546875","-0.28027344","-58.21875","-87.65625","131.28125"
"1538483550378","38","0.78808594","-0.026367188","-0.2529297","-64.125","-86.03125","109.5625"
"1538483550571","39","0.71191406","0.0029296875","-0.3076172","-13.28125","-67.40625","86.25"
"1538483550572","40","0.6152344","-0.046875","-0.34570312","20.34375","-39.6875","58.59375"
"1538483550572","41","0.60253906","-0.07519531","-0.28320312","35.53125","-7.40625","26.5"
"1538483550572","42","0.68652344","-0.06738281","-0.16308594","38.78125","15.46875","-5.75"
"1538483550572","43","1.1240234","-0.12695312","-0.21191406","56.71875","65.34375","-65.0"
"1538483550573","44","1.0380859","-0.13085938","-0.29492188","-8.59375","77.5","-129.75"
"1538483550771","45","1.3271484","-0.018554688","-0.15429688","-16.90625","120.28125","-175.90625"
"1538483550772","46","1.7783203","0.01171875","-0.2578125","14.21875","159.65625","-225.34375"
"1538483550772","47","1.6396484","-0.11621094","-0.421875","22.46875","186.75","-251.53125"
"1538483550772","48","1.3867188","-0.1171875","-0.32226562","17.28125","170.25","-227.65625"
"1538483550772","49","1.0644531","-0.27246094","-0.3466797","-59.25","101.0625","-165.34375"
"1538483550968","50","0.65722656","-0.1015625","-0.35058594","-32.15625","15.78125","-98.03125"
"1538483550969","51","0.20605469","0.0546875","-0.32226562","119.9375","-23.59375","-46.9375"
"1538483550969","52","0.09863281","-0.20898438","-0.18164062","219.0625","-18.15625","-13.71875"
"1538483550970","53","1.1152344","-0.7529297","-0.34570312","154.375","69.0625","-30.625"
"1538483550970","54","1.6943359","-0.66796875","-0.32714844","-4.75","-7.21875","-17.6875"
"1538483551167","55","1.5683594","0.18261719","-0.66796875","2.75","-25.78125","75.5625"
"1538483551168","56","1.3447266","-0.059570312","-0.50097656","122.6875","-26.6875","194.34375"
"1538483551168","57","1.4648438","-0.35546875","-0.375","-20.75","-54.34375","230.78125"
"1538483551170","58","1.2001953","-0.09765625","-0.4296875","-216.78125","-96.9375","238.78125"
"1538483551170","59","1.296875","0.24121094","-0.27929688","-227.90625","-114.40625","238.03125"
"1538483551366","60","1.2714844","0.36621094","-0.09375","-101.5","-141.8125","208.1875"
"1538483551366","61","1.5908203","0.34277344","-0.0146484375","81.1875","-113.78125","157.21875"
"1538483551366","62","1.4492188","-0.080078125","-0.020507812","167.0625","-102.375","79.34375"
"1538483551368","63","1.1503906","-0.029296875","0.036132812","146.75","-63.25","31.96875"
"1538483551368","64","0.8613281","0.015625","-0.041015625","92.71875","-2.53125","-11.15625"
"1538483551564","65","0.7060547","-0.20410156","-0.13378906","23.625","48.75","-80.9375"
"1538483551565","66","0.56152344","-0.19921875","-0.1328125","-34.65625","80.96875","-132.09375"
"1538483551565","67","0.53808594","-0.18359375","-0.15039062","-75.5625","95.125","-149.03125"
"1538483551766","68","0.421875","-0.15039062","-0.17382812","-125.96875","76.46875","-147.71875"
"1538483551766","69","0.296875","0.020507812","-0.123046875","-85.875","57.96875","-134.46875"
"1538483551766","70","0.9091797","-0.08984375","-0.40234375","42.84375","122.96875","-148.75"
"1538483551766","71","1.8466797","-0.3798828","-0.46679688","24.375","103.125","-168.46875"
"1538483551963","72","2.0058594","-0.30371094","-0.4609375","-4.375","110.8125","-163.09375"
"1538483551964","73","1.4121094","-0.18359375","-0.5917969","-19.59375","56.875","-54.8125"
"1538483551967","74","1.0380859","-0.20703125","-0.4404297","-6.03125","10.53125","34.96875"
"1538483551967","75","0.78027344","-0.115234375","-0.49316406","-46.4375","-39.5625","74.34375"
"1538483551967","76","0.4560547","-0.033203125","-0.34472656","-36.96875","-56.78125","85.34375"
"1538483551967","77","0.9267578","-0.15039062","-0.41796875","-51.4375","-20.21875","71.40625"
"1538483551967","78","1.5195312","-0.10253906","-0.24316406","-97.28125","-58.75","48.03125"
"1538483551967","79","1.4345703","-0.025390625","0.021484375","-72.875","-125.625","21.0"
"1538483552160","80","1.3037109","0.125","-0.05078125","-21.71875","-116.0","45.71875"
"1538483552163","81","1.21875","0.17773438","-0.18457031","96.625","-97.5625","87.40625"
"1538483552163","82","0.9951172","-0.12597656","-0.103515625","141.5","-79.78125","102.78125"
"1538483552163","83","0.88183594","-0.15527344","-0.040039062","63.1875","-75.34375","89.1875"
"1538483552163","84","0.69921875","0.07910156","-0.09863281","20.46875","-70.8125","57.75"
"1538483552359","85","0.7470703","0.03515625","-0.11230469","46.15625","-47.09375","24.96875"
"1538483552559","86","0.734375","0.016601562","-0.08300781","69.28125","-30.96875","-0.84375"
"1538483552559","87","0.9248047","-0.020507812","-0.11816406","78.1875","6.9375","-26.5"
"1538483552559","88","0.95996094","-0.15820312","-0.22265625","47.5","47.65625","-81.71875"
"1538483552559","89","1.0810547","-0.21191406","-0.33007812","-15.4375","106.53125","-132.875"
"1538483552562","90","1.1572266","-0.16503906","-0.2998047","-81.15625","146.15625","-165.84375"
"1538483552562","91","1.1425781","-0.080078125","-0.2939453","-100.9375","164.84375","-173.9375"
"1538483552563","92","1.1191406","-0.07910156","-0.45117188","-90.9375","164.21875","-138.96875"
"1538483552563","93","1.0664062","-0.13964844","-0.5048828","-177.125","106.59375","-78.90625"
"1538483552757","94","0.66503906","0.119140625","-0.35742188","-126.5","39.71875","-11.09375"
"1538483552757","95","0.9042969","0.07519531","-0.45214844","-68.90625","27.6875","13.625"
"1538483552757","96","1.3671875","-0.09667969","-0.73046875","-118.15625","37.625","-4.21875"
"1538483552759","97","1.7919922","0.17871094","-0.27539062","-117.40625","-66.75","-42.59375"
"1538483552760","98","1.6630859","0.35058594","-0.07519531","87.90625","-116.59375","-24.21875"
"1538483552955","99","1.5498047","0.2109375","-0.08496094","249.875","-155.34375","63.90625"
"1538483552956","100","1.1630859","-0.13476562","-0.04296875","283.28125","-166.09375","138.5"
"1538483552956","101","0.9316406","-0.3173828","0.0068359375","180.25","-155.28125","181.40625"
"1538483552956","102","0.92871094","-0.23144531","-0.06640625","28.15625","-143.21875","182.9375"
"1538483552957","103","0.68066406","-0.053710938","-0.11425781","-39.0625","-152.375","164.5"
"1538483553155","104","0.46191406","0.09082031","-0.056640625","-8.53125","-155.34375","166.5625"
"1538483553155","105","0.5703125","0.119140625","-0.057617188","45.0625","-114.84375","158.3125"
"1538483553156","106","0.7636719","-0.056640625","-0.2265625","36.625","-88.40625","95.03125"
"1538483553156","107","0.62109375","0.021484375","-0.1953125","-42.46875","-30.96875","-23.0625"
"1538483553156","108","0.46972656","0.001953125","-0.39941406","-28.84375","68.875","-115.40625"
"1538483553353","109","0.5830078","0.0087890625","-0.5449219","-10.84375","168.375","-160.59375"
"1538483553354","110","0.9658203","-0.11816406","-0.37109375","-54.125","233.75","-201.96875"
"1538483553354","111","1.2109375","-0.111328125","-0.2998047","-137.5625","246.75","-223.25"
"1538483553355","112","1.6650391","0.14941406","-0.3310547","-121.5","257.53125","-210.75"
"1538483553355","113","1.8535156","0.18359375","-0.30078125","-49.1875","183.09375","-181.5625"
"1538483553552","114","1.7939453","0.040039062","-0.16210938","0.9375","104.65625","-129.9375"
"1538483553552","115","1.3359375","0.12890625","-0.21289062","58.0625","27.0625","-44.96875"
"1538483553553","116","1.2919922","0.111328125","-0.32617188","151.9375","3.5625","16.71875"
"1538483553554","117","1.0097656","-0.19335938","-0.2578125","182.9375","-19.625","34.84375"
"1538483553554","118","0.6298828","-0.3828125","-0.2763672","115.4375","-41.40625","27.28125"
"1538483553753","119","0.4267578","-0.3173828","-0.33984375","-1.46875","-40.90625","26.625"
"1538483553754","120","0.36035156","-0.15820312","-0.24316406","-38.3125","-53.125","40.65625"
"1538483553754","121","0.42285156","-0.06933594","-0.1796875","-24.78125","-55.6875","66.40625"
"1538483553754","122","1.0410156","-0.10839844","-0.36035156","-33.25","-5.53125","72.5"
"1538483553754","123","2.0058594","-0.034179688","-0.3623047","-100.6875","-47.25","70.1875"
"1538483554349","124","1.6650391","0.2548828","-0.2607422","-58.53125","-88.40625","63.90625"
"1538483554349","125","1.203125","0.3173828","-0.28320312","35.21875","-88.46875","116.46875"
"1538483554352","126","0.9003906","0.099609375","-0.26757812","58.0625","-77.21875","148.5"
"1538483554352","127","0.73828125","-0.052734375","-0.34960938","-2.90625","-61.59375","127.6875"
"1538483554352","128","0.61035156","-0.0087890625","-0.3232422","-49.375","-42.75","87.40625"
"1538483554352","129","0.6455078","0.044921875","-0.22949219","-24.84375","-16.875","48.90625"
"1538483554546","130","0.7285156","0.0126953125","-0.19824219","-0.53125","4.3125","20.15625"
"1538483554546","131","1.1630859","-0.07324219","-0.20019531","1.65625","31.28125","-25.625"
"1538483554546","132","1.3017578","-0.033203125","-0.111328125","5.1875","27.875","-77.875"
"1538483554547","133","1.3779297","-0.0068359375","-0.0703125","69.65625","45.21875","-105.84375"
"1538483554548","134","0.4970703","0.005859375","-0.119140625","83.3125","25.6875","-30.75"
"1538483554548","135","1.3847656","-0.32128906","-0.5205078","105.25","38.3125","-17.15625"
"1538483554550","136","1.2910156","-0.26367188","-0.43066406","91.125","3.9375","-30.34375"
"1538483554550","137","1.3632812","-0.23046875","-0.5498047","81.1875","8.59375","-9.15625"
"1538483554550","138","1.2109375","-0.171875","-0.5410156","71.46875","1.4375","30.03125"
"1538483554745","139","0.96875","-0.19628906","-0.50390625","48.84375","-17.1875","56.9375"
"1538483554745","140","0.83691406","-0.057617188","-0.5859375","0.125","-30.78125","70.625"
"1538483554745","141","0.7324219","0.029296875","-0.40722656","7.6875","-41.46875","77.6875"
"1538483554745","142","1.0517578","-0.055664062","-0.375","-2.6875","-29.4375","72.6875"
"1538483554746","143","1.5546875","-0.00390625","-0.35253906","-56.09375","-24.0","56.65625"
"1538483554946","144","1.7919922","0.08300781","-0.28222656","-76.28125","-46.53125","22.34375"
"1538483554947","145","1.6044922","0.22363281","-0.2919922","-15.84375","-35.71875","18.75"
"1538483554947","146","1.3457031","0.16113281","-0.28125","58.90625","-28.40625","29.0625"
"1538483554947","147","0.9033203","0.064453125","-0.29589844","80.9375","-34.1875","31.5625"
"1538483554948","148","0.56640625","0.0126953125","-0.25195312","81.8125","-33.84375","32.21875"
"1538483555142","149","0.50878906","-0.04296875","-0.2578125","68.90625","-26.75","24.71875"
"1538483555143","150","0.6376953","-0.059570312","-0.21191406","43.46875","-27.625","1.65625"
"1538483555143","151","0.86816406","-0.026367188","-0.16210938","39.3125","-34.75","-32.59375"
"1538483555143","152","1.0742188","0.068359375","-0.047851562","82.96875","-44.21875","-62.0625"
"1538483555144","153","1.5742188","-0.030273438","-0.022460938","180.75","-54.40625","-100.15625"
"1538483555343","154","1.3408203","-0.10253906","-0.0546875","242.8125","-48.1875","-110.59375"
"1538483555343","155","1.2255859","-0.18066406","-0.14746094","237.6875","-8.9375","-95.625"
"1538483555343","156","1.0537109","-0.2763672","-0.28808594","128.1875","35.1875","-103.5"
"1538483555344","157","0.86035156","-0.1953125","-0.26464844","30.96875","45.375","-124.875"
"1538483555345","158","0.6328125","0.0068359375","-0.14453125","52.875","27.25","-122.4375"
"1538483555540","159","0.64453125","-0.001953125","-0.0546875","158.40625","26.34375","-108.21875"
"1538483555541","160","0.8955078","-0.15722656","-0.10644531","205.5625","20.78125","-94.78125"
"1538483555541","161","0.9970703","-0.23828125","-0.095703125","209.46875","17.125","-88.0625"
"1538483555541","162","1.0439453","-0.3515625","-0.24804688","173.59375","35.8125","-79.65625"
"1538483555541","163","1.1494141","-0.3544922","-0.32910156","94.5","62.96875","-66.90625"
"1538483555741","164","1.15625","-0.28710938","-0.31835938","40.96875","78.59375","-43.75"
"1538483555741","165","1.4111328","-0.24707031","-0.5419922","-4.25","83.34375","-23.5"
"1538483555741","166","1.0966797","-0.07324219","-0.37109375","5.3125","19.5625","22.28125"
"1538483555741","167","1.1767578","0.23535156","-0.30371094","46.53125","-23.21875","75.75"
"1538483555742","168","1.3486328","0.30273438","-0.12988281","136.375","-89.6875","106.1875"
"1538483555939","169","1.1787109","0.06933594","-0.099609375","188.78125","-125.28125","112.78125"
"1538483555940","170","0.93359375","-0.0546875","-0.4453125","135.5","-117.40625","111.625"
"1538483555940","171","0.8076172","0.037109375","-0.5605469","75.4375","-82.65625","77.46875"
"1538483555941","172","0.67578125","0.06347656","-0.50097656","46.8125","-72.59375","48.40625"
"1538483555941","173","0.6455078","0.01953125","-0.3720703","36.21875","-74.4375","34.71875"
"1538483556136","174","0.59277344","-0.022460938","-0.38085938","54.875","-71.9375","20.75"
"1538483556136","175","0.69921875","-0.11621094","-0.36328125","66.28125","-61.65625","0.125"
"1538483556136","176","0.7392578","-0.14941406","-0.30371094","49.3125","-53.0625","-24.46875"
"1538483556137","177","0.8798828","-0.13769531","-0.21972656","43.21875","-32.4375","-50.78125"
"1538483556138","178","0.9501953","-0.12011719","-0.22265625","50.1875","-18.5625","-73.71875"
"1538483556534","179","1.2109375","-0.07519531","-0.12792969","70.75","19.25","-93.3125"
"1538483556537","180","1.3242188","-0.18554688","-0.24707031","82.71875","25.3125","-125.3125"
"1538483556538","181","1.1611328","-0.10644531","-0.19433594","81.25","49.96875","-113.21875"
"1538483556538","182","1.3486328","-0.10839844","-0.20507812","58.84375","66.03125","-81.125"
"1538483556539","183","1.2382812","-0.109375","-0.27148438","16.75","58.625","-64.875"
"1538483556539","184","0.95410156","-0.021484375","-0.23925781","19.0","44.21875","-56.8125"
"1538483556539","185","0.7080078","0.06738281","-0.25","79.78125","32.625","-43.21875"
"1538483556539","186","0.58984375","-0.09863281","-0.26171875","117.6875","33.0","-36.4375"
"1538483556539","187","0.48242188","-0.15722656","-0.3173828","86.625","35.125","-39.125"
"1538483556732","188","0.515625","-0.20703125","-0.4189453","-74.28125","49.71875","-49.6875"
"1538483556733","189","0.6982422","-0.16308594","-0.39941406","-118.40625","58.03125","-48.9375"
"1538483556733","190","0.9765625","-0.13183594","-0.4638672","-149.46875","54.65625","-54.3125"
"1538483556734","191","1.1484375","-0.0078125","-0.45410156","-144.28125","22.75","-53.34375"
"1538483556734","192","0.8955078","0.13183594","-0.296875","-30.875","-33.34375","-22.09375"
"1538483556933","193","1.140625","-0.020507812","-0.32714844","39.0625","-40.25","23.4375"
"1538483556934","194","2.0058594","-0.18066406","-0.3828125","-10.96875","-41.46875","52.25"
"1538483556934","195","1.7333984","-0.025390625","0.057617188","-12.75","-175.6875","71.03125"
"1538483556934","196","1.6464844","0.20117188","0.046875","24.125","-184.15625","128.84375"
"1538483556934","197","1.2880859","0.203125","-0.13964844","114.40625","-165.1875","172.5625"
"1538483557130","198","0.953125","-0.12597656","-0.125","139.90625","-117.8125","174.3125"
"1538483557131","199","0.76171875","-0.22851562","-0.09667969","82.03125","-82.3125","141.25"
"1538483557132","200","0.57421875","-0.14746094","-0.109375","-13.46875","-67.21875","104.6875"
"1538483557132","201","0.40429688","-0.053710938","-0.09863281","-44.84375","-64.96875","89.34375"
"1538483557132","202","0.2763672","0.055664062","-0.052734375","-27.28125","-64.96875","92.53125"
"1538483557329","203","0.4560547","0.06347656","-0.052734375","16.25","-20.03125","67.375"
"1538483557329","204","0.734375","-0.021484375","-0.19042969","15.625","11.4375","-7.3125"
"1538483557330","205","1.0332031","-0.103515625","-0.30859375","-20.9375","71.625","-130.0"
"1538483557331","206","1.0498047","-0.036132812","-0.3544922","-12.875","146.03125","-199.40625"
"1538483557331","207","1.1904297","0.08886719","-0.36914062","-2.3125","210.4375","-212.59375"
"1538483557527","208","1.4189453","-0.10253906","-0.3955078","-58.03125","231.25","-216.375"
"1538483557527","209","1.2822266","0.4033203","-0.6464844","-60.34375","182.84375","-170.59375"
"1538483557528","210","1.0478516","0.076171875","-0.24804688","-52.1875","113.4375","-141.71875"
"1538483557528","211","1.2753906","-0.0087890625","-0.30371094","-30.5","108.5625","-118.96875"
"1538483557725","212","2.0058594","-0.076171875","-0.25878906","-28.625","34.34375","-104.0625"
"1538483557726","213","1.3867188","-0.021484375","-0.14453125","82.53125","-66.0625","-51.4375"
"1538483557727","214","1.2001953","0.15332031","-0.30664062","182.375","-57.03125","56.75"
"1538483557728","215","0.86035156","-0.20117188","-0.15429688","193.4375","-57.21875","110.84375"
"1538483557728","216","0.6904297","-0.5185547","-0.16894531","81.25","-58.625","117.375"
"1538483557925","217","0.625","-0.3154297","-0.2421875","-90.625","-79.78125","104.875"
"1538483557926","218","0.453125","-0.015625","-0.22753906","-121.9375","-113.0","109.375"
"1538483557927","219","0.54003906","0.080078125","-0.12792969","-46.75","-120.3125","125.6875"
"1538483557927","220","1.2548828","0.0029296875","-0.24707031","2.8125","-75.03125","124.28125"
"1538483557927","221","1.4853516","0.03125","-0.21386719","-3.59375","-133.03125","98.03125"
"1538483558123","222","1.4423828","-0.013671875","-0.29101562","27.46875","-74.0625","59.28125"
"1538483558719","223","0.8876953","-0.03125","-0.42773438","31.4375","-16.625","48.09375"
"1538483558719","224","0.7705078","-0.09765625","-0.34570312","-24.03125","36.84375","52.125"
"1538483558720","225","0.9296875","-0.052734375","-0.30078125","-86.34375","55.34375","28.75"
"1538483558721","226","0.69140625","0.12695312","-0.19921875","-61.875","27.875","16.90625"
"1538483558721","227","0.64746094","0.19140625","-0.115234375","39.9375","31.09375","23.0625"
"1538483558722","228","0.82421875","0.21679688","-0.12890625","136.4375","56.625","-9.875"
"1538483558723","229","1.3779297","-0.33398438","-0.30566406","123.3125","68.34375","-108.53125"
"1538483558724","230","1.3515625","-0.23339844","-0.17871094","35.59375","85.71875","-212.71875"
"1538483558724","231","1.7705078","-0.07128906","-0.31933594","25.03125","135.84375","-242.1875"
"1538483558919","232","0.29882812","0.1640625","-0.059570312","127.40625","-84.9375","76.34375"
"1538483558919","233","1.0068359","-0.45117188","-0.36132812","-29.59375","3.40625","96.875"
"1538483558919","234","1.0634766","-0.2763672","-0.3544922","-198.71875","-33.53125","120.78125"
"1538483558919","235","0.89746094","0.15625","-0.203125","-219.53125","-85.96875","147.53125"
"1538483558920","236","1.1884766","0.2734375","-0.18457031","-89.78125","-97.625","155.6875"
"1538483558920","237","1.4433594","0.13671875","-0.09863281","3.1875","-106.09375","131.65625"
"1538483559117","238","1.6533203","-0.057617188","-0.115234375","43.90625","-108.65625","61.28125"
"1538483559117","239","1.2509766","-0.013671875","-0.0126953125","77.59375","-87.59375","13.96875"
"1538483559117","240","0.8261719","0.033203125","-0.119140625","110.25","-40.71875","-3.90625"
"1538483559118","241","0.6582031","-0.052734375","-0.22558594","113.46875","17.1875","-24.03125"
"1538483559119","242","0.61328125","-0.20996094","-0.2109375","46.875","46.5","-59.5"
"1538483559317","243","0.6123047","-0.13769531","-0.18359375","-23.5","47.09375","-90.21875"
"1538483559317","244","0.53515625","-0.064453125","-0.16699219","-32.8125","31.90625","-102.15625"
"1538483559319","245","0.39648438","0.021484375","-0.09277344","18.3125","13.21875","-89.21875"
"1538483559319","246","0.8847656","0.033203125","-0.080078125","96.875","61.1875","-98.75"
"1538483559319","247","1.4931641","-0.4716797","-0.328125","91.5625","52.90625","-134.40625"
"1538483559516","248","1.3896484","-0.5078125","-0.421875","-12.4375","80.84375","-171.375"
"1538483559517","249","1.3173828","-0.22558594","-0.50878906","-97.03125","117.21875","-115.0"
"1538483559517","250","1.1640625","-0.234375","-0.45214844","-96.84375","100.625","-55.40625"
"1538483559517","251","0.98046875","-0.032226562","-0.3564453","-99.71875","58.5625","-17.75"
"1538483559517","252","0.89160156","-0.01953125","-0.55371094","-46.625","12.0","18.9375"
"1538483559713","253","0.6152344","-0.068359375","-0.4736328","30.90625","-30.0625","43.6875"
"1538483559714","254","0.5498047","-0.234375","-0.3828125","26.1875","-17.25","64.75"
"1538483559714","255","0.98339844","-0.40429688","-0.5048828","-111.0","1.375","43.9375"
"1538483559714","256","2.0058594","-0.33007812","-0.4404297","-300.90625","-3.0625","-20.5"
"1538483559715","257","1.9521484","0.18359375","0.23535156","-185.65625","-120.5","-57.5"
"1538483559914","258","1.5419922","0.37402344","0.20996094","64.9375","-194.65625","6.53125"
"1538483559914","259","1.1533203","0.4189453","0.078125","259.71875","-204.375","127.5"
"1538483559915","260","0.73535156","-0.01171875","0.080078125","366.78125","-160.78125","209.09375"
"1538483559915","261","0.61328125","-0.42285156","-0.08886719","252.15625","-93.59375","197.15625"
"1538483559915","262","0.5800781","-0.38085938","-0.115234375","47.3125","-68.125","134.59375"
"1538483560112","263","0.42285156","-0.0107421875","-0.0234375","-78.3125","-71.5","94.0"
"1538483560112","264","0.5830078","0.16015625","-0.025390625","-72.8125","-47.5","57.375"
"1538483560112","265","0.7402344","0.12695312","-0.171875","-20.625","-19.125","-2.3125"
"1538483560113","266","1.0068359","-0.07910156","-0.265625","4.90625","37.75","-99.53125"
"1538483560113","267","1.0791016","-0.17578125","-0.3984375","-5.25","113.25","-183.65625"
"1538483560310","268","1.1982422","-0.022460938","-0.43066406","-28.0625","179.78125","-207.15625"
"1538483560311","269","1.2792969","-0.16503906","-0.47070312","-47.71875","212.6875","-212.34375"
"1538483560311","270","1.1142578","-0.11328125","-0.45214844","-71.40625","199.0625","-205.0"
"1538483560311","271","0.78808594","-0.09765625","-0.33203125","-34.21875","143.90625","-163.875"
"1538483560511","272","1.2880859","-0.087890625","-0.5292969","-91.71875","146.15625","-115.84375"
"1538483560511","273","1.7421875","0.0068359375","-0.3544922","-75.78125","83.21875","-86.4375"
"1538483560511","274","1.6132812","0.07324219","-0.11035156","49.09375","-42.4375","-52.5625"
"1538483560511","275","1.5029297","0.21679688","-0.171875","187.9375","-56.0625","28.375"
"1538483560707","276","1.1904297","-0.044921875","-0.25390625","272.28125","-54.90625","94.59375"
"1538483560708","277","0.7685547","-0.4248047","-0.19140625","207.34375","-54.21875","109.875"
"1538483560708","278","0.49609375","-0.45410156","-0.26367188","20.09375","-57.53125","115.3125"
"1538483560709","279","0.5800781","-0.12890625","-0.35058594","-111.1875","-79.90625","131.03125"
"1538483560709","280","0.89941406","0.11230469","-0.3515625","-127.0625","-117.875","146.90625"
"1538483560709","281","1.2294922","0.2939453","-0.0078125","-63.84375","-155.71875","154.1875"
"1538483560710","282","1.5761719","0.36523438","-0.080078125","39.625","-210.71875","133.65625"
"1538483560906","283","0.953125","0.23632812","-0.22363281","125.8125","-187.78125","90.28125"
"1538483560906","284","0.6347656","-0.12890625","-0.5175781","176.90625","-73.75","6.96875"
"1538483560906","285","0.515625","-0.3173828","-0.5878906","105.59375","23.90625","-77.6875"
"1538483560907","286","0.4091797","-0.07324219","-0.3251953","-1.625","45.875","-107.59375"
"1538483560908","287","0.41308594","0.043945312","-0.32226562","29.96875","56.75","-87.875"
"1538483561105","288","0.66308594","-0.06542969","-0.4111328","98.09375","63.9375","-88.3125"
"1538483561105","289","1.1054688","-0.16601562","-0.390625","78.4375","69.9375","-114.875"
"1538483561105","290","2.0058594","-0.11425781","-0.21972656","90.71875","99.03125","-162.46875"
"1538483561106","291","2.0058594","-0.18066406","-0.099609375","147.34375","64.5","-221.4375"
"1538483561107","292","1.6933594","-0.10449219","-0.28808594","213.75","74.4375","-171.1875"
"1538483561303","293","1.3300781","-0.203125","-0.23535156","224.875","85.65625","-83.375"
"1538483561304","294","0.85839844","-0.28320312","-0.22558594","144.46875","60.9375","-40.40625"
"1538483561304","295","0.6738281","-0.234375","-0.171875","91.6875","40.0625","-22.53125"
"1538483561304","296","0.578125","-0.21777344","-0.171875","74.21875","18.03125","-21.59375"
"1538483561305","297","0.9033203","-0.1875","-0.17675781","51.03125","9.9375","-16.34375"
"1538483561504","298","1.1162109","-0.07421875","-0.11425781","66.21875","-34.5625","2.375"
"1538483561505","299","1.3144531","0.0546875","-0.02734375","131.0625","-46.21875","22.71875"
"1538483561505","300","1.1914062","-0.041992188","-0.16113281","198.5","-67.09375","30.8125"
"1538483561506","301","1.1435547","-0.11230469","-0.25195312","197.15625","-47.03125","36.0625"
"1538483561506","302","1.0996094","-0.087890625","-0.2548828","128.1875","-34.5625","34.1875"
"1538483561701","303","0.8408203","-0.025390625","-0.3017578","82.09375","-26.21875","14.03125"
"1538483561701","304","0.74609375","0.013671875","-0.42382812","64.84375","-12.84375","-4.40625"
"1538483561701","305","0.6269531","0.08496094","-0.3095703","84.84375","-19.96875","-12.9375"
"1538483561702","306","0.5361328","0.0234375","-0.21972656","111.8125","-19.375","-14.46875"
"1538483561703","307","0.6230469","0.0068359375","-0.27734375","117.625","-3.375","-23.4375"
"1538483561901","308","0.86816406","-0.052734375","-0.28027344","124.15625","11.875","-34.78125"
"1538483561901","309","1.0898438","-0.125","-0.22753906","117.0","36.34375","-45.46875"
"1538483561901","310","1.6621094","-0.16699219","-0.33007812","81.1875","53.75","-65.25"
"1538483561901","311","1.0322266","-0.15722656","-0.2734375","55.3125","18.59375","-59.3125"
"1538483561901","312","1.0078125","-0.053710938","-0.16601562","43.03125","33.375","-10.3125"
"1538483562099","313","1.3486328","-0.07128906","-0.29882812","10.4375","16.21875","7.625"
"1538483562099","314","1.1582031","-0.09765625","-0.25390625","1.21875","-17.25","-10.6875"
"1538483562100","315","0.91796875","0.020507812","-0.25","38.9375","-26.625","-4.21875"
"1538483562100","316","0.83203125","-0.021484375","-0.30273438","53.78125","-25.34375","17.09375"
"1538483562100","317","0.7763672","-0.09277344","-0.24609375","43.40625","-31.40625","21.5"
"1538483562298","318","0.7832031","-0.028320312","-0.24707031","35.59375","-48.84375","18.0625"
"1538483562299","319","0.84765625","-0.0029296875","-0.2265625","50.0","-59.84375","15.0625"
"1538483562299","320","1.0449219","-0.022460938","-0.15625","67.09375","-71.4375","10.6875"
"1538483562299","321","1.1123047","-0.0078125","-0.061523438","89.5625","-79.1875","6.84375"
"1538483562299","322","1.4697266","-0.056640625","-0.21191406","113.46875","-72.03125","-8.40625"
"1538483562496","323","0.9560547","-0.0068359375","-0.20800781","127.28125","-59.09375","-4.40625"
"1538483562496","324","1.0175781","-0.08691406","-0.18945312","123.59375","-19.5","16.125"
"1538483562498","325","0.8964844","-0.115234375","-0.3251953","48.21875","4.375","7.5"
"1538483562499","326","0.7519531","0.0126953125","-0.38085938","-1.28125","14.125","-14.71875"
"1538483562695","327","0.6113281","0.13769531","-0.26953125","28.6875","9.5625","-29.71875"
"1538483562695","328","0.5908203","0.068359375","-0.24804688","91.25","12.96875","-41.0"
"1538483562695","329","0.625","-0.059570312","-0.3173828","100.40625","12.625","-48.53125"
"1538483562695","330","0.4638672","-0.103515625","-0.24414062","67.625","8.34375","-43.75"
"1538483562697","331","0.45117188","-0.11621094","-0.24707031","25.46875","30.96875","-39.65625"
"1538483562698","332","0.82128906","-0.13574219","-0.3154297","-33.5625","64.0","-64.09375"
"1538483562896","333","1.109375","-0.25976562","-0.43066406","-100.15625","75.40625","-102.0"
"1538483562896","334","1.0263672","-0.076171875","-0.29492188","-95.09375","74.4375","-106.25"
"1538483562896","335","1.2275391","-0.11328125","-0.45996094","-45.59375","78.78125","-92.21875"
"1538483562896","336","1.3476562","-0.22851562","-0.46875","-74.4375","53.4375","-76.46875"
"1538483563093","337","1.4882812","-0.10546875","-0.4033203","-116.625","5.96875","-43.8125"
"1538483563093","338","1.4052734","0.12890625","-0.16601562","-61.21875","-48.96875","17.09375"
"1538483563093","339","1.4677734","0.11425781","-0.2109375","23.21875","-83.8125","71.09375"
"1538483563093","340","1.15625","0.02734375","-0.20800781","81.0625","-118.3125","104.8125"
"1538483563094","341","0.87597656","-0.13378906","-0.16503906","57.875","-116.78125","118.34375"
"1538483563293","342","0.85253906","-0.059570312","-0.14648438","40.40625","-110.1875","129.21875"
"1538483563293","343","0.91308594","-0.11035156","-0.1015625","9.90625","-115.25","122.3125"
"1538483563293","344","0.6796875","-0.05078125","-0.13769531","-8.90625","-130.34375","104.90625"
"1538483563294","345","0.43066406","0.016601562","-0.09375","15.5","-142.46875","109.75"
"1538483563294","346","0.46191406","0.08984375","-0.036132812","53.65625","-102.4375","116.34375"
"1538483563491","347","0.8769531","-0.04296875","-0.19824219","60.0625","-61.78125","74.15625"
"1538483563492","348","1.0380859","-0.13183594","-0.22753906","7.75","-6.3125","-26.625"
"1538483563492","349","0.79785156","-0.053710938","-0.5185547","-18.96875","76.875","-105.71875"
"1538483563492","350","0.7753906","0.07519531","-0.4404297","1.96875","145.65625","-111.875"
"1538483563492","351","1.0712891","-0.2109375","-0.4658203","-38.1875","164.90625","-132.6875"
"1538483563688","352","1.0644531","-0.095703125","-0.46875","-137.0","141.6875","-153.9375"
"1538483563689","353","1.0966797","0.08496094","-0.41308594","-86.28125","134.0","-139.78125"
"1538483563689","354","1.2421875","0.033203125","-0.23144531","26.5625","110.375","-108.59375"
"1538483563690","355","2.0058594","-0.19726562","-0.31640625","-18.0625","78.34375","-98.75"
"1538483563690","356","1.3837891","-0.0859375","-0.13769531","-23.25","7.0625","-78.25"
"1538483563890","357","1.4179688","0.043945312","-0.24121094","60.8125","3.625","-22.875"
"1538483563890","358","1.1210938","-0.08105469","-0.31152344","112.5","-10.75","18.9375"
"1538483563890","359","0.7001953","-0.2548828","-0.1875","94.96875","-29.375","37.40625"
"1538483563890","360","0.4970703","-0.2783203","-0.31640625","8.6875","-38.09375","47.3125"
"1538483563891","361","0.40429688","-0.09765625","-0.33789062","-30.625","-61.90625","55.65625"
"1538483564288","362","0.3251953","-0.0146484375","-0.24609375","13.3125","-86.9375","69.8125"
"1538483564289","363","0.63964844","-0.022460938","-0.16210938","38.59375","-78.5","87.21875"
"1538483564289","364","1.4521484","-0.12011719","-0.18652344","44.3125","-59.90625","93.375"
"1538483564289","365","1.6113281","-0.03515625","-0.32910156","53.71875","-77.71875","42.3125"
"1538483564289","366","1.234375","-0.12109375","-0.46972656","71.375","-14.5","17.6875"
"1538483564289","367","0.85253906","-0.21386719","-0.3408203","32.3125","24.875","27.84375"
"1538483564289","368","0.6904297","-0.22851562","-0.37109375","-96.65625","44.59375","42.46875"
"1538483564290","369","0.49121094","0.11816406","-0.46875","-150.9375","23.59375","50.40625"
"1538483564290","370","0.45214844","0.31152344","-0.31054688","-38.4375","30.96875","30.53125"
"1538483564883","371","1.7470703","-0.16015625","-0.20898438","49.875","26.34375","-85.5"
"1538483564883","372","1.5273438","-0.14160156","-0.07910156","39.0","15.28125","-91.625"
"1538483564886","373","1.4091797","0.021484375","-0.20507812","38.53125","38.5","-52.96875"
"1538483564886","374","1.1064453","-0.16796875","-0.21386719","23.8125","48.375","-35.15625"
"1538483564886","375","0.65234375","-0.22070312","-0.1796875","-19.46875","22.875","-29.78125"
"1538483564886","376","0.44433594","-0.057617188","-0.23046875","-22.8125","-4.59375","-6.90625"
"1538483564886","377","0.26953125","-0.0087890625","-0.16894531","11.375","-45.6875","12.9375"
"1538483564887","378","0.27441406","0.015625","-0.0068359375","55.5625","-42.5","20.375"
"1538483564887","379","0.7246094","-0.05078125","-0.11230469","106.59375","13.90625","-13.375"
"1538483565080","380","0.9814453","-0.13964844","-0.43359375","-59.6875","-26.15625","91.4375"
"1538483565080","381","2.0058594","-0.21972656","-0.2421875","-133.09375","-25.90625","23.5"
"1538483565080","382","1.734375","-0.026367188","0.06542969","-80.6875","-89.5625","-43.34375"
"1538483565081","383","1.4716797","0.19433594","0.064453125","56.71875","-109.09375","1.03125"
"1538483565082","384","1.1064453","0.15429688","-0.10449219","147.21875","-83.28125","73.78125"
"1538483565280","385","0.65722656","-0.17773438","-0.10546875","154.0","-51.21875","95.21875"
"1538483565479","386","0.43066406","-0.2998047","-0.099609375","71.0","-29.375","83.8125"
"1538483565479","387","0.28125","-0.13867188","-0.13476562","-40.21875","-25.96875","67.25"
"1538483565479","388","0.20214844","-0.06347656","-0.1328125","-80.0","-29.875","55.125"
"1538483565480","389","0.3330078","0.0107421875","-0.15722656","-94.65625","-29.625","39.78125"
"1538483565481","390","0.8330078","0.068359375","-0.15722656","-51.5625","-0.28125","-9.21875"
"1538483565481","391","1.1279297","0.013671875","-0.16308594","39.9375","0.15625","-100.03125"
"1538483565482","392","1.2626953","-0.22851562","-0.31933594","153.5","51.6875","-180.0"
"1538483565482","393","1.0078125","-0.24511719","-0.47070312","203.5","109.03125","-175.90625"
"1538483565482","394","0.98828125","-0.49902344","-0.52246094","118.3125","162.4375","-150.15625"
"1538483565676","395","0.98535156","-0.65625","-0.7890625","-134.5625","156.90625","-124.9375"
"1538483565676","396","0.95703125","-0.19628906","-0.5576172","-161.1875","119.3125","-77.75"
"1538483565677","397","1.3779297","-0.35351562","-0.625","-104.59375","68.09375","-61.78125"
"1538483565677","398","2.0058594","-0.3388672","-0.66015625","-137.0625","19.15625","-49.6875"
"1538483565678","399","1.5605469","-0.0068359375","-0.22070312","-46.125","-70.59375","-6.71875"
"1538483565876","400","1.5693359","0.036132812","-0.12695312","59.15625","-100.78125","58.40625"
"1538483565877","401","1.3320312","9.765625E-4","-0.09765625","70.6875","-130.34375","96.5"
"1538483565877","402","0.8095703","-0.17089844","-0.033203125","113.0","-139.65625","118.15625"
"1538483565877","403","0.46679688","0.08886719","0.103515625","11.3125","-132.28125","119.6875"
"1538483565877","404","0.36035156","0.23144531","-0.11816406","42.90625","-90.40625","100.53125"
"1538483566074","405","0.27929688","0.13574219","-0.030273438","29.6875","-72.34375","59.21875"
"1538483566074","406","0.32714844","0.07324219","0.001953125","-10.0","-64.40625","46.625"
"1538483566074","407","0.9970703","0.083984375","-0.049804688","-5.90625","-11.5625","13.0625"
"1538483566074","408","1.1992188","0.07714844","-0.08203125","32.0625","-32.96875","-49.1875"
"1538483566075","409","1.3095703","-0.12695312","-0.18359375","79.71875","28.25","-114.4375"
"1538483566274","410","1.0078125","-0.15917969","-0.4189453","55.75","99.90625","-134.8125"
"1538483566470","411","1.0449219","-0.140625","-0.44335938","-9.3125","164.21875","-115.59375"
"1538483566472","412","1.0146484","-0.24707031","-0.6689453","-110.21875","157.6875","-100.15625"
"1538483566473","413","0.8701172","0.052734375","-0.43359375","-57.53125","105.75","-73.78125"
"1538483566473","414","1.0830078","-0.140625","-0.41796875","60.125","64.5625","-73.3125"
"1538483566473","415","1.9326172","-0.4033203","-0.75878906","36.625","69.9375","-83.625"
"1538483566473","416","1.5615234","-0.24023438","-0.30859375","-1.9375","-6.375","-87.46875"
"1538483566475","417","1.3818359","0.02734375","-0.23242188","57.9375","-19.25","-22.65625"
"1538483566476","418","1.2041016","-0.19921875","-0.34765625","89.96875","-31.8125","54.125"
"1538483566476","419","0.7783203","-0.35058594","-0.27441406","54.40625","-46.84375","73.84375"
"1538483566670","420","0.61328125","-0.22167969","-0.29003906","-28.125","-60.25","96.25"
"1538483566670","421","0.57714844","-0.053710938","-0.30566406","-57.90625","-87.71875","116.6875"
"1538483566670","422","0.45410156","0.1328125","-0.07714844","-18.78125","-133.8125","130.9375"
"1538483566671","423","0.3876953","0.24707031","0.00390625","47.5","-139.25","131.09375"
"1538483566672","424","0.8720703","0.08496094","-0.056640625","48.03125","-95.84375","115.40625"
"1538483566868","425","1.140625","0.076171875","-0.29882812","47.9375","-116.59375","48.15625"
"1538483566869","426","1.3583984","0.033203125","-0.19335938","83.25","-30.65625","-39.96875"
"1538483566869","427","0.9375","0.0126953125","-0.37597656","102.625","38.0","-91.0625"
"1538483566870","428","0.7597656","-0.09472656","-0.4345703","97.46875","96.59375","-104.75"
"1538483566870","429","0.734375","-0.25","-0.3779297","18.9375","117.59375","-122.96875"
"1538483567067","430","1.1337891","-0.23144531","-0.41503906","-56.9375","134.5625","-136.28125"
"1538483567067","431","1.7744141","-0.13671875","-0.10449219","-4.8125","125.90625","-149.21875"
"1538483567068","432","2.0058594","-0.1953125","-0.08203125","126.21875","92.25","-146.59375"
"1538483567070","433","1.8056641","-0.07128906","-0.2783203","125.4375","67.53125","-88.25"
"1538483567070","434","1.4990234","-0.18945312","-0.47558594","141.125","54.40625","-20.125"
"1538483567268","435","1.2070312","-0.07714844","-0.51464844","86.1875","13.34375","16.71875"
"1538483567269","436","0.7734375","0.020507812","-0.41796875","92.71875","-31.53125","38.8125"
"1538483567269","437","0.5126953","-0.08300781","-0.3642578","99.4375","-53.125","47.5625"
"1538483567269","438","0.4169922","-0.1640625","-0.3173828","58.53125","-60.875","50.28125"
"1538483567269","439","0.5751953","-0.13769531","-0.28027344","-13.96875","-55.5","47.25"
"1538483567465","440","1.0136719","-0.046875","-0.23730469","-31.90625","-56.125","37.28125"
"1538483567466","441","1.2441406","0.091796875","-0.18457031","3.0625","-87.71875","18.0625"
"1538483567466","442","2.0058594","0.15136719","-0.028320312","113.96875","-87.5","-0.5"
"1538483567466","443","1.3251953","0.087890625","-0.10253906","231.03125","-111.59375","-15.1875"
"1538483567467","444","0.9746094","-0.0703125","-0.32421875","235.3125","-67.21875","18.25"
"1538483567663","445","0.97558594","-0.10058594","-0.3125","99.8125","-33.09375","28.03125"
"1538483567664","446","0.8886719","0.038085938","-0.4140625","-12.875","-22.65625","-2.1875"
"1538483567664","447","0.7128906","0.2861328","-0.3828125","9.90625","-30.1875","-45.40625"
"1538483567664","448","0.6347656","0.16210938","-0.25","118.78125","-34.15625","-65.71875"
"1538483567863","449","0.63964844","-0.11621094","-0.25976562","151.5","-31.40625","-75.3125"
"1538483567863","450","0.7167969","-0.23339844","-0.3330078","117.125","-12.65625","-88.5"
"1538483567865","451","0.7871094","-0.1953125","-0.37597656","81.625","11.34375","-101.875"
"1538483567865","452","0.75","-0.2265625","-0.36621094","83.5","32.375","-103.03125"
"1538483567865","453","0.75683594","-0.30371094","-0.47558594","70.8125","50.8125","-93.625"
"1538483567865","454","0.8183594","-0.29882812","-0.5019531","28.5","58.5","-78.6875"
"1538483568062","455","0.953125","-0.1953125","-0.4873047","14.21875","59.96875","-62.375"
"1538483568062","456","1.0253906","-0.14648438","-0.44335938","49.5","49.78125","-43.40625"
"1538483568063","457","1.2255859","-0.20117188","-0.4794922","69.53125","64.125","-24.65625"
"1538483568063","458","1.5234375","-0.16308594","-0.6621094","4.40625","36.71875","-30.15625"
"1538483568260","459","0.9892578","0.036132812","-0.3125","28.34375","-24.6875","6.09375"
"1538483568261","460","1.2529297","-0.016601562","-0.3798828","65.3125","-51.40625","68.59375"
"1538483568261","461","1.3857422","-0.047851562","-0.39941406","14.71875","-90.78125","86.3125"
"1538483568262","462","1.1699219","0.12792969","-0.29003906","-5.65625","-111.09375","81.1875"
"1538483568659","463","0.9121094","0.087890625","-0.27539062","59.09375","-111.84375","94.53125"
"1538483568660","464","0.7529297","-0.064453125","-0.28808594","66.1875","-106.90625","92.34375"
"1538483568660","465","0.64941406","-0.107421875","-0.31640625","33.75","-95.78125","69.75"
"1538483568661","466","0.65625","-0.07910156","-0.34570312","17.03125","-81.75","38.03125"
"1538483568858","467","0.64453125","-0.08203125","-0.3671875","36.875","-71.1875","10.0625"
"1538483568858","468","0.66015625","-0.111328125","-0.4033203","65.375","-60.6875","-12.3125"
"1538483569056","469","0.68359375","-0.14941406","-0.3955078","69.40625","-52.21875","-32.71875"
"1538483569057","470","0.76660156","-0.15429688","-0.4033203","69.84375","-34.4375","-52.375"
"1538483569058","471","0.8251953","-0.16992188","-0.4111328","70.125","-18.28125","-71.59375"
"1538483569059","472","1.1953125","-0.2607422","-0.3046875","90.96875","37.5625","-163.4375"
"1538483569060","473","1.0253906","-0.17871094","-0.31640625","109.09375","46.65625","-155.75"
"1538483569060","474","1.1269531","-0.28710938","-0.3310547","124.21875","55.6875","-130.1875"
"1538483569060","475","1.1240234","-0.3017578","-0.4033203","101.28125","47.46875","-123.65625"
"1538483569060","476","0.82910156","-0.26660156","-0.48535156","109.3125","32.15625","-91.25"
"1538483569060","477","0.69140625","-0.3486328","-0.47070312","93.40625","17.4375","-65.3125"
"1538483569254","478","0.5839844","-0.30566406","-0.50097656","49.28125","6.15625","-37.96875"
"1538483569254","479","0.55859375","-0.34375","-0.4765625","-35.5","-6.5","26.0625"
"1538483569254","480","0.8613281","-0.35351562","-0.51464844","-67.90625","-6.90625","39.0625"
"1538483569256","481","0.9970703","-0.2841797","-0.46191406","-62.5625","-27.5","53.90625"
"1538483569256","482","1.0332031","-0.24414062","-0.42285156","-12.5625","-41.03125","76.53125"
"1538483569257","483","0.94921875","-0.24121094","-0.3544922","12.59375","-47.375","96.25"
"1538483569452","484","1.0878906","-0.2705078","-0.3076172","-13.59375","-38.40625","92.78125"
"1538483569453","485","1.7421875","-0.25390625","-0.33691406","-47.90625","-1.3125","68.0"
"1538483569454","486","1.5693359","-0.0859375","-0.31347656","-92.75","-9.3125","30.34375"
"1538483569455","487","1.2929688","0.15917969","-0.12597656","-50.84375","-10.75","43.53125"
"1538483569455","488","0.8203125","0.43945312","-0.125","50.1875","-9.53125","52.90625"
"1538483569652","489","0.7451172","0.15039062","-0.23046875","125.125","15.53125","30.75"
"1538483569652","490","0.7246094","-0.123046875","-0.17773438","82.90625","19.9375","-23.375"
"1538483569653","491","0.85839844","-0.15332031","-0.16015625","-13.96875","19.5","-65.5625"
"1538483569653","492","0.8798828","-0.08984375","-0.16308594","-50.28125","16.625","-93.3125"
"1538483569654","493","0.69628906","-0.013671875","-0.21875","-4.5625","9.9375","-94.1875"
"1538483569850","494","0.34570312","0.0078125","-0.140625","86.9375","-16.25","-59.625"
"1538483569851","495","0.25","-0.0703125","0.032226562","128.5","9.0625","-23.3125"
"1538483569851","496","1.0380859","-0.3076172","-0.28320312","68.3125","73.9375","-42.34375"
"1538483569851","497","1.7822266","-0.49023438","-0.5449219","-110.46875","91.03125","-130.0625"
"1538483569851","498","1.2832031","-0.017578125","-0.359375","-172.46875","121.0","-161.5625"
"1538483570051","499","1.1347656","0.140625","-0.5263672","-98.8125","120.09375","-81.84375"
"1538483570051","500","1.1191406","-0.103515625","-0.4248047","-90.125","56.75","-37.03125"
"1538483570051","501","0.87597656","-0.06738281","-0.44335938","-113.03125","-27.78125","-5.78125"
"1538483570052","502","0.75","0.06933594","-0.43652344","-8.09375","-47.875","34.0"
"1538483570052","503","1.03125","-0.17285156","-0.4814453","40.71875","-54.71875","54.6875"
"1538483570247","504","2.0058594","-0.40039062","-0.515625","-66.28125","-41.84375","39.25"
"1538483570249","505","1.8916016","-0.037109375","0.11035156","-59.5","-138.5625","24.53125"
"1538483570249","506","1.6015625","0.2109375","0.10253906","42.25","-176.96875","98.8125"
"1538483570249","507","1.3144531","0.38476562","0.10839844","131.125","-176.15625","172.5625"
"1538483570446","508","0.3623047","0.24023438","0.14355469","130.3125","-128.4375","147.71875"
"1538483570446","509","0.51464844","-0.026367188","-0.032226562","83.3125","-36.875","77.15625"
"1538483570447","510","0.51953125","0.14941406","0.060546875","45.78125","3.09375","-19.34375"
"1538483570447","511","0.65527344","0.07324219","0.0107421875","11.84375","6.9375","-51.09375"
"1538483570447","512","0.42871094","0.15136719","0.036132812","40.125","-15.03125","-54.5625"
"1538483570448","513","0.2265625","0.061523438","-0.0234375","81.625","-5.34375","-43.875"
"1538483570845","514","0.81640625","-0.35742188","-0.25195312","66.90625","46.90625","-48.65625"
"1538483571042","515","1.8730469","-0.5078125","-0.3359375","-71.46875","90.8125","-100.71875"
"1538483571044","516","1.5527344","-0.2705078","-0.5644531","-128.03125","129.90625","-131.21875"
"1538483571044","517","1.1914062","-0.08496094","-0.6796875","-53.28125","155.75","-96.0"
"1538483571046","518","0.94433594","-0.2626953","-0.5263672","-78.0","114.125","-58.96875"
"1538483571046","519","0.9267578","-0.20117188","-0.69921875","-147.375","75.125","-45.59375"
"1538483571046","520","0.7246094","0.09667969","-0.5888672","-127.1875","12.25","-32.46875"
"1538483571241","521","0.7705078","0.045898438","-0.4453125","-12.9375","5.96875","1.21875"
"1538483571241","522","1.0351562","-0.125","-0.30664062","-21.90625","-17.0625","16.84375"
"1538483571242","523","1.7490234","-0.040039062","-0.057617188","-83.0625","-111.84375","-18.96875"
"1538483571242","524","0.4580078","-0.15722656","-0.10058594","-47.0","-89.9375","164.0"
"1538483571243","525","0.32128906","-0.01171875","-0.07421875","-84.40625","-91.28125","155.875"
"1538483571244","526","0.5205078","0.080078125","-0.051757812","-83.59375","-75.15625","143.875"
"1538483571244","527","1.1337891","0.076171875","-0.23242188","-42.21875","-39.28125","80.03125"
"1538483571244","528","1.0380859","0.1015625","-0.20507812","20.875","-14.0625","-30.5625"
"1538483571440","529","0.86816406","-0.08105469","-0.2939453","109.03125","61.75","-119.4375"
"1538483571440","530","0.86621094","-0.19140625","-0.43945312","109.1875","123.15625","-155.875"
"1538483571443","531","0.9824219","-0.421875","-0.4658203","5.125","153.125","-178.78125"
"1538483571443","532","1.0107422","-0.33789062","-0.44433594","-77.3125","160.125","-177.71875"
"1538483571443","533","1.0185547","-0.07519531","-0.4609375","-104.0","151.09375","-152.21875"
"1538483571638","534","1.2285156","-0.359375","-0.3876953","47.0","135.65625","-122.4375"
"1538483571639","535","2.0058594","-0.6855469","-0.6640625","-127.0","121.0625","-140.9375"
"1538483571639","536","1.59375","-0.09472656","-0.24414062","-119.1875","31.46875","-108.15625"
"1538483571640","537","1.7138672","-0.03515625","-0.31933594","52.4375","-5.625","-19.59375"
"1538483571640","538","1.2763672","-0.14746094","-0.33691406","131.84375","-49.46875","52.0"
"1538483571838","539","0.7939453","-0.27441406","-0.2783203","105.71875","-64.28125","79.84375"
"1538483571838","540","0.5214844","-0.27148438","-0.29101562","14.125","-58.96875","89.46875"
"1538483571839","541","0.5332031","-0.19921875","-0.2734375","-73.65625","-55.0625","86.84375"
"1538483571840","542","0.6972656","-0.022460938","-0.17480469","-110.875","-71.25","70.375"
"1538483571840","543","0.6513672","0.1875","-0.13574219","-33.25","-119.71875","53.28125"
"1538483572035","544","0.36621094","0.037109375","-0.08105469","107.75","-153.59375","76.0"
"1538483572036","545","0.4169922","-0.015625","0.02734375","136.0625","-134.125","113.90625"
"1538483572036","546","1.5693359","-0.20214844","-0.10449219","154.90625","-76.6875","98.6875"
"1538483572037","547","1.2587891","-0.33203125","-0.24609375","69.15625","-57.09375","-1.34375"
"1538483572037","548","0.93066406","-0.2705078","-0.3876953","34.125","29.21875","-73.90625"
"1538483572235","549","0.8105469","-0.23632812","-0.5","4.90625","102.15625","-62.625"
"1538483572235","550","0.8964844","-0.375","-0.60058594","-89.53125","123.34375","-68.84375"
"1538483572235","551","0.875","-0.10253906","-0.40234375","-161.5","106.59375","-78.71875"
"1538483572236","552","0.86328125","0.09667969","-0.29785156","-100.34375","104.71875","-74.21875"
"1538483572237","553","1.1376953","-0.08300781","-0.3642578","7.03125","98.84375","-73.90625"
"1538483572434","554","1.4677734","-0.26367188","-0.35742188","-39.125","92.6875","-109.1875"
"1538483572435","555","1.4257812","-0.18554688","-0.19335938","-86.59375","37.4375","-139.09375"
"1538483572435","556","1.2412109","0.05078125","-0.18066406","-3.59375","23.78125","-110.46875"
"1538483572435","557","1.2207031","-0.06933594","-0.3076172","89.1875","10.65625","-36.5"
"1538483572435","558","0.9941406","-0.26660156","-0.27929688","94.375","-16.5","11.59375"
"1538483572632","559","0.7705078","-0.25","-0.29101562","17.96875","-48.71875","41.1875"
"1538483572633","560","0.49023438","-0.06640625","-0.2783203","-0.40625","-92.125","70.4375"
"1538483572634","561","0.36035156","-0.020507812","-0.18164062","42.5","-113.0","105.21875"
"1538483572634","562","0.7050781","-0.033203125","-0.06542969","65.5625","-97.625","127.875"
"1538483572634","563","1.6943359","-0.08105469","-0.22949219","70.625","-94.5","125.6875"
"1538483572833","564","1.3857422","-0.0087890625","-0.25683594","78.5625","-97.5","52.0625"
"1538483572834","565","0.99609375","-0.057617188","-0.25683594","115.78125","-33.65625","8.0"
"1538483572834","566","0.8017578","-0.111328125","-0.33203125","81.6875","33.5","-7.75"
"1538483572835","567","0.75683594","-0.23925781","-0.3779297","-52.28125","75.34375","-34.1875"
"1538483572835","568","0.6816406","-0.026367188","-0.3671875","-129.1875","90.625","-49.5625"
"1538483573030","569","0.6142578","0.12988281","-0.32910156","-84.34375","87.4375","-47.84375"
"1538483573031","570","0.93652344","0.034179688","-0.36523438","-18.84375","89.21875","-61.65625"
"1538483573031","571","1.5947266","0.02734375","-0.34179688","9.15625","88.71875","-89.46875"
"1538483573031","572","1.8730469","-0.109375","-0.103515625","38.40625","12.4375","-128.53125"
"1538483573228","573","1.4394531","-0.032226562","-0.11816406","112.6875","2.28125","-90.8125"
"1538483573229","574","1.2646484","-0.030273438","-0.3515625","137.03125","25.1875","-19.09375"
"1538483573229","575","0.8876953","-0.24707031","-0.265625","61.03125","16.09375","-0.71875"
"1538483573230","576","0.45996094","-0.20996094","-0.25","-14.03125","-25.90625","2.5"
"1538483573231","577","0.26757812","0.0078125","-0.25","-9.75","-62.40625","15.9375"
"1538483573427","578","0.17089844","0.021484375","-0.16796875","60.1875","-87.375","33.03125"
"1538483573428","579","0.33984375","-0.056640625","-0.09472656","89.5","-91.34375","50.59375"
"1538483573428","580","1.1289062","-0.06347656","-0.18847656","112.6875","-27.5625","40.46875"
"1538483573428","581","1.1494141","-0.111328125","-0.28320312","117.3125","-90.59375","-0.59375"
"1538483573429","582","1.5058594","-0.17675781","-0.22265625","179.6875","-15.46875","-31.3125"
"1538483573625","583","0.98339844","-0.20800781","-0.5234375","146.0","42.03125","-19.46875"
"1538483573626","584","0.6738281","-0.34570312","-0.4248047","33.59375","71.5625","-7.8125"
"1538483573626","585","0.5966797","-0.20019531","-0.4189453","-70.375","73.09375","-14.59375"
"1538483573627","586","0.92285156","-0.07421875","-0.71972656","-27.46875","92.5625","-24.96875"
"1538483573627","587","1.5371094","-0.24414062","-0.60253906","39.0625","64.1875","-55.1875"
"1538483573827","588","1.6513672","-0.41015625","-0.5986328","57.8125","20.0625","-55.53125"
"1538483573828","589","1.5986328","-0.28710938","-0.7392578","1.71875","1.1875","-9.09375"
"1538483573829","590","1.6445312","-0.20996094","-0.56347656","-78.34375","-12.59375","52.8125"
"1538483573829","591","1.390625","0.123046875","-0.36035156","-124.0625","-64.96875","80.1875"
"1538483573829","592","0.95703125","0.17480469","-0.29296875","-8.0","-95.59375","85.28125"
"1538483574023","593","0.71972656","0.061523438","-0.24023438","73.75","-104.875","93.3125"
"1538483574024","594","0.61328125","-0.06542969","-0.20019531","67.40625","-103.65625","97.15625"
"1538483574024","595","0.66503906","-0.09765625","-0.19335938","34.5","-100.0625","84.59375"
"1538483574024","596","0.82421875","-0.001953125","-0.16992188","13.375","-92.25","56.65625"
"1538483574025","597","0.9863281","0.032226562","-0.12792969","39.0","-87.5","9.28125"
"1538483574222","598","1.0927734","0.07421875","-0.06933594","100.0","-71.1875","-46.4375"
"1538483574223","599","1.4365234","-0.083984375","-0.030273438","173.96875","-46.34375","-122.3125"
"1538483574223","600","1.1425781","-0.26171875","-0.17578125","192.9375","-23.71875","-176.5"
"1538483574223","601","1.0458984","-0.25390625","-0.24902344","133.0","10.90625","-171.8125"
"1538483574224","602","1.1923828","-0.16210938","-0.22949219","48.03125","39.21875","-155.09375"
"1538483574422","603","1.2373047","-0.22460938","-0.19921875","15.5","39.40625","-159.1875"
"1538483574620","604","1.0986328","-0.08886719","-0.15820312","79.59375","22.875","-166.0625"
"1538483574620","605","0.9951172","-0.109375","-0.15820312","204.125","1.5","-147.03125"
"1538483574620","606","0.9501953","-0.29589844","-0.1328125","274.90625","-16.4375","-114.75"
"1538483574621","607","0.9404297","-0.43164062","-0.14160156","265.5625","-22.65625","-99.84375"
"1538483574622","608","0.8623047","-0.49023438","-0.2578125","192.625","-16.5","-96.625"
"1538483574622","609","0.703125","-0.3876953","-0.30859375","138.9375","-1.90625","-86.0625"
"1538483574623","610","0.5888672","-0.40429688","-0.40039062","120.6875","20.5","-63.84375"
"1538483574819","611","0.7373047","-0.5097656","-0.44140625","71.375","45.625","-46.09375"
"1538483574819","612","1.2363281","-0.5283203","-0.4765625","-6.09375","88.90625","-37.59375"
"1538483574820","613","1.3671875","-0.40527344","-0.6015625","-107.34375","61.5","-30.46875"
"1538483574821","614","0.93652344","-0.091796875","-0.43554688","-91.40625","12.5625","31.125"
"1538483574821","615","1.1220703","-0.12597656","-0.39257812","-33.1875","-1.0625","99.1875"
"1538483575017","616","1.4287109","-0.078125","-0.41503906","-69.5625","-48.5","133.90625"
"1538483575018","617","1.4667969","0.111328125","-0.28027344","-87.6875","-101.53125","140.5625"
"1538483575020","618","1.0087891","1.9433594","0.4248047","24.78125","-130.21875","150.625"
"1538483575020","619","1.0751953","0.12695312","-0.2548828","59.875","-125.09375","150.21875"
"1538483575020","620","0.80371094","-0.0068359375","-0.20898438","47.25","-111.34375","121.59375"
"1538483575021","621","0.7734375","0.0","-0.19042969","25.34375","-87.90625","76.46875"
"1538483575021","622","0.6464844","0.06542969","-0.17675781","35.90625","-72.34375","29.46875"
"1538483575216","623","0.5644531","0.02734375","-0.17285156","58.40625","-48.90625","-13.5625"
"1538483575216","624","0.6660156","-0.041015625","-0.17871094","66.53125","-20.34375","-63.71875"
"1538483575216","625","0.859375","-0.15722656","-0.23730469","60.6875","4.4375","-122.125"
"1538483575217","626","1.0058594","-0.23828125","-0.234375","34.4375","20.0","-166.875"
"1538483575218","627","1.2646484","-0.052734375","-0.11816406","56.71875","46.125","-192.125"
"1538483575416","628","1.5400391","-0.08496094","-0.15332031","134.09375","58.5625","-210.6875"
"1538483575417","629","1.2099609","-0.16015625","-0.20898438","192.875","60.59375","-204.28125"
"1538483575417","630","1.2207031","-0.19824219","-0.12890625","195.8125","74.5","-166.9375"
"1538483575417","631","1.3417969","-0.3173828","-0.23535156","108.84375","70.78125","-138.90625"
"1538483575417","632","1.1142578","-0.22558594","-0.27441406","31.75","53.75","-116.9375"
"1538483575615","633","0.8613281","-0.02734375","-0.28027344","46.875","40.5625","-84.28125"
"1538483575615","634","0.7861328","-0.1015625","-0.3486328","101.6875","33.71875","-58.84375"
"1538483575615","635","0.7402344","-0.20410156","-0.3701172","94.96875","19.25","-45.71875"
"1538483575615","636","0.5966797","-0.13085938","-0.375","70.09375","5.09375","-33.3125"
"1538483575616","637","0.5","-0.15820312","-0.3642578","64.46875","4.0","-16.21875"
"1538483575815","638","0.49414062","-0.27148438","-0.37890625","21.875","8.59375","-4.875"
"1538483575815","639","0.56933594","-0.30078125","-0.37695312","-71.46875","9.0625","2.4375"
"1538483575815","640","0.9267578","-0.22363281","-0.4033203","-142.03125","13.53125","10.1875"
"1538483575815","641","1.0566406","-0.009765625","-0.3408203","-136.84375","-22.90625","29.71875"
"1538483576011","642","1.1347656","0.038085938","-0.2939453","-36.375","-36.53125","65.4375"
"1538483576011","643","1.4296875","-0.025390625","-0.26660156","4.40625","-67.28125","107.53125"
"1538483576012","644","2.0058594","-0.119140625","-0.23144531","-23.90625","-76.25","133.78125"
"1538483576012","645","1.7226562","0.009765625","-0.13378906","-62.84375","-127.15625","151.75"
"1538483576014","646","1.5986328","0.11816406","-0.09277344","-42.65625","-130.6875","188.90625"
"1538483576014","647","1.1796875","0.13769531","-0.20898438","-4.75","-118.25","198.625"
"1538483576209","648","0.75097656","0.060546875","-0.21484375","17.21875","-100.0625","182.8125"
"1538483576211","649","0.5888672","0.041015625","-0.1796875","17.53125","-78.34375","154.375"
"1538483576211","650","0.53808594","0.047851562","-0.18945312","-1.5625","-67.03125","104.625"
"1538483576211","651","0.5292969","0.0703125","-0.18847656","-2.3125","-67.15625","38.21875"
"1538483576211","652","0.5205078","0.08300781","-0.18554688","19.125","-70.40625","-30.5625"
"1538483576409","653","0.57128906","0.17871094","-0.19042969","58.125","-65.75","-88.4375"
"1538483576409","654","1.0458984","-0.2783203","-0.39453125","114.34375","-14.84375","-172.125"
"1538483576410","655","1.4414062","-0.6777344","-0.6689453","49.28125","36.40625","-237.3125"
"1538483576410","656","1.8037109","-0.7548828","-1.0078125","98.15625","82.5625","-183.65625"
"1538483576410","657","1.4775391","-1.1347656","-0.9140625","132.40625","73.40625","-78.4375"
"1538483576607","658","1.0439453","-1.2294922","-0.8222656","3.71875","-0.09375","19.96875"
"1538483576607","659","0.5058594","-0.88964844","-0.7167969","-5.84375","-54.21875","63.84375"
"1538483576608","660","0.48535156","-0.8652344","-0.61035156","34.375","-67.46875","121.40625"
"1538483576610","661","0.45214844","-0.8671875","-0.5419922","52.6875","-73.8125","176.75"
"1538483576610","662","0.5439453","-0.9667969","-0.49609375","22.15625","-51.40625","216.625"
"1538483576807","663","0.69433594","-0.8076172","-0.54003906","5.5625","-39.40625","246.15625"
"1538483577006","664","0.65625","-0.8388672","-0.44628906","79.34375","-12.78125","249.8125"
"1538483577203","665","0.45507812","-0.53515625","-0.2529297","111.34375","5.21875","235.15625"
"1538483577203","666","0.26953125","-0.6171875","-0.17285156","156.5","44.03125","192.9375"
"1538483577205","667","0.2529297","-0.4248047","-0.27929688","138.0","77.0625","137.15625"
"1538483577206","668","0.13964844","-0.7363281","-0.115234375","109.375","83.03125","87.71875"
"1538483577207","669","0.030273438","-0.55859375","-0.21679688","9.46875","58.75","23.625"
"1538483577208","670","-0.0107421875","-0.78027344","-0.30078125","22.71875","36.65625","7.25"
"1538483577208","671","-0.00390625","-1.1132812","-0.2939453","50.125","20.1875","1.28125"
"1538483577208","672","-0.09082031","-1.0859375","-0.22949219","-7.375","4.90625","0.3125"
"1538483577208","673","-0.13769531","-1.0087891","-0.09863281","-1.75","4.90625","2.625"
"1538483577403","674","-0.15039062","-0.96191406","-0.10253906","-0.125","1.8125","0.90625"
"1538483577403","675","-0.13671875","-0.97265625","-0.125","4.78125","3.09375","0.375"
"1538483577404","676","-0.10058594","-0.9296875","-0.19921875","1.96875","-1.375","-3.84375"
"1538483577404","677","-0.10449219","-1.015625","-0.14746094","2.21875","-7.59375","-2.6875"
"1538483577405","678","-0.15625","-1.0166016","-0.13183594","2.5625","-9.96875","3.25"
"1538483577601","679","-0.15625","-0.9511719","-0.11328125","-0.65625","-8.5","3.34375"
"1538483577604","680","-0.18359375","-0.9863281","-0.08691406","6.0","-7.78125","0.90625"
"1538483577604","681","-0.16699219","-0.9814453","-0.10839844","2.09375","-6.0625","-1.21875"
"1538483577605","682","-0.16601562","-0.9824219","-0.107421875","-1.34375","-6.96875","0.4375"
"1538483577605","683","-0.16308594","-0.98828125","-0.11425781","0.25","-5.46875","-0.25"
"1538483577801","684","-0.15429688","-0.9863281","-0.123046875","-2.5","-5.5625","-0.375"
"1538483577802","685","-0.16210938","-0.9863281","-0.12109375","0.8125","-4.78125","-0.125"
"1538483577802","686","-0.17773438","-1.0048828","-0.125","-2.78125","-1.90625","0.71875"
"1538483577802","687","-0.18164062","-0.9628906","-0.14453125","-8.15625","1.75","1.40625"
"1538483577802","688","-0.1875","-0.97265625","-0.12695312","-6.15625","4.125","1.09375"
"1538483578000","689","-0.18457031","-0.9951172","-0.12109375","-3.53125","6.25","1.65625"
"1538483578000","690","-0.16699219","-0.9609375","-0.13085938","-2.3125","7.375","2.75"
"1538483578001","691","-0.16796875","-0.9707031","-0.107421875","1.59375","7.46875","2.875"
"1538483578001","692","-0.1640625","-0.9824219","-0.103515625","0.875","8.34375","2.8125"
"1538483578198","693","-0.14746094","-0.9794922","-0.12109375","5.25","6.9375","3.40625"
"1538483578199","694","-0.15039062","-0.97265625","-0.111328125","3.0625","3.34375","3.46875"
"1538483578199","695","-0.15820312","-0.97558594","-0.111328125","5.1875","1.0625","2.375"
"1538483578201","696","-0.15820312","-0.9736328","-0.12988281","2.8125","-0.5625","1.46875"
"1538483578202","697","-0.16699219","-0.99121094","-0.10644531","3.78125","-2.71875","0.6875"
"1538483578398","698","-0.1640625","-0.9970703","-0.11425781","0.1875","-3.4375","0.375"
"1538483578398","699","-0.17285156","-0.9824219","-0.10058594","-1.625","-3.75","-0.65625"
"1538483578399","700","-0.171875","-0.96875","-0.111328125","0.5","-2.84375","-1.03125"
"1538483578399","701","-0.18359375","-0.9863281","-0.119140625","1.53125","-3.125","-2.4375"
"1538483578399","702","-0.15039062","-0.9453125","-0.15234375","-3.28125","-4.46875","-3.90625"
"1538483578596","703","-0.16210938","-0.99121094","-0.14550781","-2.0625","-8.09375","-1.78125"
"1538483578597","704","-0.18359375","-1.0009766","-0.11035156","-6.09375","-5.875","0.84375"
"1538483578597","705","-0.18261719","-0.9765625","-0.119140625","-2.625","-2.15625","1.65625"
"1538483578597","706","-0.18847656","-0.9785156","-0.10253906","-0.40625","0.40625","0.71875"
"1538483578597","707","-0.19140625","-0.984375","-0.10839844","-2.5625","2.96875","1.09375"
"1538483578794","708","-0.18554688","-0.9580078","-0.13769531","-3.21875","4.1875","1.78125"
"1538483578795","709","-0.17382812","-0.9824219","-0.12890625","0.0625","4.1875","1.78125"
"1538483578796","710","-0.16699219","-0.9716797","-0.13378906","-1.625","3.75","1.46875"
"1538483578796","711","-0.16210938","-0.9863281","-0.123046875","-0.0625","3.34375","0.625"
"1538483578796","712","-0.16210938","-0.9707031","-0.13476562","0.125","3.46875","-0.59375"
"1538483578992","713","-0.16992188","-0.9824219","-0.140625","0.3125","3.40625","-0.25"
"1538483579190","714","-0.171875","-0.984375","-0.13476562","-1.8125","2.71875","-0.125"
