"# PDIoT walking data"
"# Start time: 20181002T123845"
"# Group: F"
"# Subject: Paulius"
"# Activity type: Running"
"# Sensor position: Wrist"
"# Side of body: Right"
"# Sensor mounting: Body"
"# Number of steps: 30"
"# Notes: "
""
"timestamp","seq","accel_x","accel_y","accel_z","gyro_x","gyro_y","gyro_z"
"1538480325252","0","-0.10546875","-0.98339844","-0.06542969","-3.8125","3.34375","-4.15625"
"1538480325254","1","-0.109375","-1.0146484","-0.038085938","-14.0","2.5","-5.75"
"1538480325259","2","-0.078125","-1.0273438","-0.018554688","-17.90625","-9.28125","-4.40625"
"1538480325260","3","-0.080078125","-0.9199219","-0.0703125","4.5","-2.28125","1.03125"
"1538480325260","4","-0.115234375","-1.0839844","-0.020507812","4.375","-6.71875","5.21875"
"1538480325262","5","-0.12109375","-0.94628906","-0.06738281","-1.90625","-2.875","2.0"
"1538480325262","6","-0.11816406","-0.9746094","-0.061523438","9.75","-2.46875","-0.625"
"1538480325262","7","-0.109375","-1.0019531","-0.05078125","0.15625","-2.34375","-0.125"
"1538480325262","8","-0.1328125","-0.95703125","-0.043945312","6.75","-2.28125","0.40625"
"1538480325452","9","-0.12109375","-0.91503906","-0.040039062","18.125","-1.46875","0.28125"
"1538480325453","10","-0.12207031","-0.93066406","0.015625","37.71875","0.46875","-1.96875"
"1538480325453","11","-0.12695312","-1.0605469","-0.076171875","57.65625","-3.1875","-3.4375"
"1538480325453","12","-0.12402344","-0.796875","0.14355469","84.03125","6.03125","0.03125"
"1538480325454","13","-0.099609375","-1.0830078","0.12890625","93.5625","9.375","-3.5625"
"1538480325456","14","-0.095703125","-0.7636719","0.045898438","73.78125","4.0625","3.03125"
"1538480325651","15","-0.15039062","-0.82421875","0.18261719","93.3125","2.78125","4.9375"
"1538480325850","16","-0.20117188","-0.55566406","0.3310547","120.46875","7.0","-3.1875"
"1538480325851","17","-0.2685547","-0.8359375","0.6425781","123.53125","13.71875","-6.65625"
"1538480325851","18","-0.021484375","-0.7050781","0.04296875","76.03125","11.15625","-11.71875"
"1538480325851","19","-0.14550781","-0.88183594","0.44628906","-6.5","-10.5625","-7.53125"
"1538480325852","20","-0.028320312","-0.80371094","0.16015625","-100.25","-37.625","-20.15625"
"1538480325852","21","0.125","-0.8876953","0.19140625","-173.1875","-62.75","-51.84375"
"1538480325853","22","0.32910156","-0.5361328","0.06933594","-133.75","-74.1875","-90.84375"
"1538480325853","23","0.54589844","-1.1845703","0.030273438","-260.625","-105.53125","-131.90625"
"1538480325854","24","0.32617188","0.0048828125","-0.119140625","-225.0","-113.1875","-187.5625"
"1538480326048","25","0.6640625","-0.5878906","-0.21484375","-41.34375","-78.09375","-208.5"
"1538480326049","26","0.78125","-1.3242188","-0.044921875","-136.0625","-113.71875","-244.53125"
"1538480326049","27","0.8222656","-1.0449219","-0.14941406","-62.8125","-66.40625","-246.09375"
"1538480326049","28","0.82128906","-0.79785156","-0.23828125","11.34375","-30.59375","-221.625"
"1538480326050","29","0.6425781","-1.0556641","-0.2705078","46.96875","-18.21875","-205.65625"
"1538480326247","30","0.7949219","-1.2509766","-0.39160156","101.125","28.0625","-183.96875"
"1538480326248","31","0.5878906","-1.1523438","-0.30859375","44.90625","11.8125","-135.5"
"1538480326248","32","0.34765625","-0.7763672","-0.3876953","53.15625","40.28125","-98.09375"
"1538480326248","33","0.28027344","-1.0810547","-0.3955078","132.0625","46.3125","-32.71875"
"1538480326249","34","0.4033203","-1.1152344","-0.47265625","10.0625","42.28125","25.375"
"1538480326448","35","0.99902344","-1.4628906","-0.43945312","-79.53125","55.96875","83.78125"
"1538480326449","36","2.0","-1.6074219","-0.25097656","-137.65625","76.71875","172.09375"
"1538480326450","37","2.0","-1.4609375","-0.083984375","-145.34375","-29.875","233.9375"
"1538480326450","38","1.8603516","-0.76953125","-0.12890625","-89.75","-40.53125","240.03125"
"1538480326450","39","1.1621094","-0.3876953","-0.10546875","-46.34375","-30.21875","189.9375"
"1538480326645","40","0.7675781","0.12597656","-0.091796875","-116.53125","-25.53125","107.34375"
"1538480326645","41","0.47460938","0.7519531","-0.016601562","-68.625","-9.53125","62.25"
"1538480326645","42","0.40527344","0.76171875","0.19824219","-7.9375","-9.40625","14.15625"
"1538480326646","43","0.43066406","0.7832031","0.08203125","15.0","-29.25","-40.25"
"1538480326646","44","0.7138672","0.4189453","-0.053710938","98.0625","-21.375","-100.78125"
"1538480326844","45","1.5283203","-0.9091797","0.0029296875","153.71875","-25.96875","-153.53125"
"1538480326844","46","2.0","-1.9316406","-0.6064453","78.34375","-87.34375","-123.125"
"1538480326844","47","1.8945312","-2.0","-0.6064453","129.6875","-101.75","-79.1875"
"1538480326845","48","0.82421875","-1.6025391","-0.58691406","94.96875","-129.21875","-48.46875"
"1538480326846","49","0.036132812","-0.9404297","-0.5859375","67.5","-96.875","-24.96875"
"1538480327240","50","-0.2529297","-0.6201172","-0.3564453","25.8125","-62.8125","0.78125"
"1538480327240","51","-0.49902344","-0.25097656","-0.4423828","17.8125","-38.46875","14.5"
"1538480327241","52","-0.48339844","-0.31835938","-0.34765625","48.3125","2.0","41.625"
"1538480327242","53","-0.3564453","-0.44921875","-0.5","62.84375","41.5","79.4375"
"1538480327245","54","0.018554688","-1.6064453","-0.59765625","54.3125","69.625","101.96875"
"1538480327246","55","1.6679688","-2.0","-0.66503906","-78.5","146.78125","164.28125"
"1538480327246","56","1.7900391","-2.0","-0.4423828","-55.3125","-21.75","176.125"
"1538480327246","57","1.5673828","-1.4277344","-0.515625","-73.625","49.0","161.71875"
"1538480327246","58","0.8339844","-0.25390625","-0.44921875","-93.40625","24.34375","120.34375"
"1538480327440","59","0.5517578","0.32617188","-0.036132812","-61.90625","37.75","75.3125"
"1538480327441","60","0.5800781","0.6660156","-0.0146484375","-69.96875","13.34375","10.90625"
"1538480327441","61","0.42285156","0.8857422","0.0087890625","5.0","-10.21875","-49.34375"
"1538480327441","62","0.5605469","0.5136719","-0.0048828125","39.65625","-33.71875","-112.125"
"1538480327443","63","0.85253906","0.038085938","-0.19433594","101.71875","-64.21875","-193.375"
"1538480327640","64","2.0","-1.5976562","-0.49121094","139.5625","-48.71875","-237.75"
"1538480327641","65","2.0","-2.0","-0.70996094","97.03125","-120.6875","-185.8125"
"1538480327641","66","1.7197266","-2.0","-0.59765625","74.4375","-115.125","-167.3125"
"1538480327641","67","0.6855469","-1.1699219","-0.60058594","86.90625","-119.78125","-141.3125"
"1538480327641","68","0.2998047","-1.1689453","-0.49414062","60.96875","-87.59375","-83.375"
"1538480328038","69","-0.35253906","-0.70410156","-0.52246094","0.40625","-57.875","-38.46875"
"1538480328039","70","-0.5390625","-0.3828125","-0.390625","-37.0625","-17.90625","0.28125"
"1538480328039","71","-0.515625","-0.5761719","-0.38867188","-53.0625","6.09375","36.375"
"1538480328039","72","-0.3359375","-0.828125","-0.31933594","-24.96875","31.71875","61.15625"
"1538480328039","73","0.23535156","-1.8525391","-0.3779297","-24.625","71.625","97.03125"
"1538480328040","74","2.0","-2.0","-0.35546875","-122.9375","213.84375","175.65625"
"1538480328040","75","1.8222656","-2.0","-0.28125","-113.46875","17.375","200.5"
"1538480328041","76","1.8447266","-1.2001953","-0.06738281","-149.125","96.46875","187.0"
"1538480328041","77","0.8359375","-0.09667969","-0.08691406","-180.1875","36.96875","150.3125"
"1538480328234","78","0.58203125","0.8222656","0.21289062","-50.84375","24.03125","31.0625"
"1538480328234","79","0.35546875","0.8095703","0.0703125","-8.1875","7.4375","-15.75"
"1538480328235","80","0.39160156","0.47070312","-0.11425781","13.96875","4.4375","-90.40625"
"1538480328236","81","0.8486328","0.0146484375","-0.3671875","85.875","19.46875","-164.4375"
"1538480328237","82","2.0","-1.8808594","-0.5878906","88.375","65.21875","-209.1875"
"1538480328435","83","2.0","-1.9277344","-0.8642578","25.5625","-33.78125","-160.15625"
"1538480328435","84","1.4023438","-1.7148438","-0.4140625","64.5625","-21.875","-137.78125"
"1538480328436","85","0.4326172","-0.921875","-0.62890625","75.125","-39.8125","-123.3125"
"1538480328436","86","0.041015625","-1.0410156","-0.5390625","2.0625","-29.5625","-53.375"
"1538480328436","87","-0.44921875","-0.64453125","-0.59765625","-39.03125","-11.375","-16.1875"
"1538480328632","88","-0.4873047","-0.6328125","-0.45117188","-21.375","18.46875","31.125"
"1538480328633","89","-0.36816406","-0.68652344","-0.46289062","-41.28125","40.5","79.6875"
"1538480328634","90","0.028320312","-1.1132812","-0.46679688","-13.375","78.84375","131.28125"
"1538480328634","91","1.0234375","-2.0","-0.8251953","-91.15625","128.78125","192.25"
"1538480328634","92","2.0","-2.0","-0.0390625","-192.34375","64.125","222.15625"
"1538480328830","93","1.7119141","-1.5908203","-0.28320312","-97.96875","4.0625","217.15625"
"1538480328830","94","1.359375","-0.6923828","-0.20703125","-55.125","-15.53125","164.53125"
"1538480328832","95","0.7910156","0.11816406","-0.046875","-73.8125","17.8125","108.375"
"1538480328832","96","0.54589844","0.51171875","0.2841797","-68.3125","21.84375","45.46875"
"1538480328833","97","0.44921875","1.1582031","0.30664062","-1.40625","5.1875","-19.71875"
"1538480329029","98","0.4482422","0.81152344","0.19433594","49.125","22.5","-91.5625"
"1538480329030","99","0.6298828","0.62109375","-0.11425781","77.6875","-0.75","-174.21875"
"1538480329030","100","1.6074219","-0.9892578","-0.3701172","152.28125","19.875","-234.28125"
"1538480329030","101","2.0","-2.0","-0.53222656","160.15625","-41.53125","-212.90625"
"1538480329031","102","2.0","-2.0","-0.6904297","80.96875","-49.21875","-115.625"
"1538480329228","103","1.0449219","-1.7753906","-0.4892578","67.0","-92.90625","-71.90625"
"1538480329228","104","0.14257812","-1.0771484","-0.5371094","76.78125","-67.21875","-33.40625"
"1538480329229","105","-0.35058594","-0.703125","-0.5410156","27.15625","-32.84375","6.09375"
"1538480329230","106","-0.6279297","-0.32226562","-0.49414062","-21.6875","-9.96875","29.28125"
"1538480329230","107","-0.609375","-0.38964844","-0.52246094","-38.96875","11.21875","61.15625"
"1538480329429","108","-0.45410156","-0.42089844","-0.4482422","-46.21875","30.5","86.78125"
"1538480329625","109","-0.14550781","-0.95996094","-0.44628906","-9.0","57.71875","119.6875"
"1538480329626","110","0.9501953","-2.0","-0.73046875","-24.625","128.71875","156.46875"
"1538480329627","111","2.0","-2.0","-0.29492188","-117.25","88.375","174.71875"
"1538480329628","112","1.6230469","-1.7470703","-0.4013672","-55.0625","42.90625","176.25"
"1538480329629","113","1.1767578","-0.8261719","-0.3076172","-56.96875","35.5","135.125"
"1538480329629","114","0.69628906","0.10449219","-0.19140625","-96.15625","41.625","67.0625"
"1538480329629","115","0.4951172","0.5732422","0.08203125","-32.84375","40.4375","19.09375"
"1538480329631","116","0.5410156","0.7988281","-0.001953125","-24.0","16.03125","-30.71875"
"1538480329631","117","0.5292969","0.68652344","-0.037109375","32.875","-18.8125","-97.5"
"1538480329824","118","0.7626953","0.28710938","-0.203125","99.65625","-27.96875","-167.375"
"1538480329825","119","1.7167969","-1.4931641","-0.4326172","137.0625","-31.5","-205.21875"
"1538480329825","120","2.0","-2.0","-0.66503906","169.71875","-96.6875","-141.375"
"1538480329827","121","1.6152344","-2.0","-0.5263672","103.0","-108.65625","-81.0"
"1538480329827","122","0.3642578","-1.6357422","-0.56640625","96.90625","-129.21875","-61.96875"
"1538480330024","123","-0.08886719","-1.0117188","-0.52441406","78.40625","-61.96875","-26.3125"
"1538480330025","124","-0.38867188","-0.5722656","-0.46191406","-1.96875","-43.59375","-5.375"
"1538480330025","125","-0.5732422","-0.28808594","-0.3671875","-7.9375","-9.71875","21.84375"
"1538480330025","126","-0.51660156","-0.33398438","-0.38476562","-13.875","20.96875","46.125"
"1538480330026","127","-0.296875","-0.57128906","-0.3330078","-18.3125","58.09375","64.3125"
"1538480330222","128","0.18457031","-1.3544922","-0.5029297","6.9375","103.875","86.90625"
"1538480330222","129","1.6279297","-2.0","-0.296875","-77.28125","172.53125","131.5625"
"1538480330223","130","1.8955078","-2.0","-0.26757812","-66.84375","44.28125","140.71875"
"1538480330224","131","1.5634766","-1.3779297","-0.3046875","-26.0625","74.09375","131.34375"
"1538480330224","132","0.8408203","-0.8173828","-0.41015625","-56.84375","41.25","78.65625"
"1538480330420","133","0.3466797","0.005859375","-0.34375","-92.59375","28.0","26.28125"
"1538480330421","134","0.21289062","0.51171875","-0.13085938","-78.625","38.125","10.0625"
"1538480330422","135","0.19042969","0.75390625","-0.07910156","-55.1875","6.40625","-6.4375"
"1538480330423","136","0.3466797","0.46484375","-0.06640625","10.59375","4.5625","-45.90625"
"1538480330423","137","0.8730469","-0.072265625","-0.11328125","78.28125","-30.09375","-105.3125"
"1538480330623","138","1.8769531","-1.4091797","-0.068359375","85.8125","-39.625","-164.625"
"1538480330623","139","1.828125","-1.5185547","-0.8251953","119.96875","-48.1875","-147.40625"
"1538480330623","140","1.6650391","-2.0","-0.5859375","-1.53125","-75.6875","-108.65625"
"1538480330623","141","0.60058594","-1.4023438","-0.54589844","56.6875","-97.65625","-99.625"
"1538480330623","142","0.18554688","-1.7910156","-0.5595703","24.59375","-88.28125","-73.1875"
"1538480330819","143","-0.44335938","-0.9423828","-0.5136719","-40.84375","-63.96875","-24.5625"
"1538480330819","144","-0.9765625","-0.9394531","-0.31933594","-35.71875","-6.4375","59.96875"
"1538480330819","145","-0.7265625","-1.1103516","-0.29785156","-125.75","62.0625","112.59375"
"1538480330819","146","-0.28125","-1.1992188","-0.034179688","-118.1875","122.78125","161.125"
"1538480330821","147","0.953125","-2.0","0.21679688","-227.875","222.03125","158.90625"
"1538480331017","148","2.0","-1.5458984","0.6347656","-228.90625","154.53125","150.5625"
"1538480331017","149","1.2724609","-1.7148438","0.328125","-165.0","129.5625","142.0625"
"1538480331019","150","1.3574219","-1.0996094","0.4658203","-149.5","85.125","98.9375"
"1538480331019","151","1.0722656","-0.3330078","0.44335938","-63.375","87.75","63.03125"
"1538480331019","152","0.8154297","0.013671875","0.18945312","-13.625","100.5625","54.1875"
"1538480331215","153","0.44921875","0.4921875","-0.040039062","-21.9375","106.125","24.71875"
"1538480331215","154","0.37890625","0.2578125","-0.14355469","44.1875","126.75","-7.53125"
"1538480331217","155","0.66015625","0.0703125","-0.45703125","83.65625","118.03125","-49.34375"
"1538480331218","156","0.96972656","-0.7607422","-0.39941406","78.71875","115.46875","-81.8125"
"1538480331218","157","1.6933594","-1.1601562","-0.2529297","65.34375","89.28125","-100.84375"
"1538480331415","158","1.9316406","-1.8662109","-0.11425781","92.34375","13.96875","-69.78125"
"1538480331812","159","1.2841797","-1.8603516","-0.27539062","6.5","-74.0625","-46.78125"
"1538480331812","160","0.43554688","-1.3037109","-0.36621094","67.78125","-85.03125","-26.875"
"1538480331812","161","-0.07714844","-0.9667969","-0.3798828","96.71875","-44.9375","1.4375"
"1538480331813","162","-0.46191406","-0.5390625","-0.4580078","32.46875","-20.59375","38.375"
"1538480331820","163","-0.6044922","-0.20605469","-0.4638672","24.34375","24.65625","65.84375"
"1538480332013","164","-0.1796875","-0.26953125","-0.61035156","26.09375","60.59375","100.21875"
"1538480332013","165","0.28808594","-1.1533203","-0.25976562","44.53125","80.25","128.59375"
"1538480332013","166","1.5126953","-2.0","0.10253906","-28.15625","74.75","125.84375"
"1538480332014","167","1.3876953","-2.0","-0.34570312","21.03125","-27.84375","132.90625"
"1538480332015","168","0.7519531","0.52246094","-0.109375","46.5","-64.03125","-107.1875"
"1538480332016","169","0.9082031","-0.06542969","-0.21289062","92.9375","-116.84375","-162.25"
"1538480332017","170","1.9248047","-1.7099609","-0.107421875","130.0625","-107.125","-207.21875"
"1538480332017","171","2.0","-2.0","-0.5205078","122.0625","-162.3125","-161.5"
"1538480332017","172","1.5146484","-2.0","-0.3203125","110.8125","-141.3125","-122.15625"
"1538480332210","173","0.44921875","-1.3662109","-0.43066406","92.5625","-132.65625","-108.0"
"1538480332210","174","0.080078125","-0.9501953","-0.4169922","70.0625","-58.90625","-74.1875"
"1538480332210","175","-0.32226562","-0.66015625","-0.47265625","16.15625","-39.375","-29.0625"
"1538480332212","176","-0.8173828","-0.4345703","-0.4189453","5.0625","-4.34375","17.0625"
"1538480332408","177","-0.5761719","-0.6464844","-0.4345703","-38.59375","39.84375","62.96875"
"1538480332408","178","-0.27246094","-0.8730469","-0.3173828","-55.8125","57.40625","99.71875"
"1538480332409","179","0.5078125","-2.0","-0.37695312","-44.03125","102.78125","138.40625"
"1538480332410","180","2.0","-2.0","-0.0546875","-163.71875","140.65625","174.96875"
"1538480332410","181","1.7832031","-2.0","-0.21679688","-91.9375","35.03125","182.59375"
"1538480332607","182","1.6523438","-1.1035156","-0.19433594","-79.65625","58.28125","159.28125"
"1538480332607","183","0.75","-0.13769531","-0.25195312","-93.71875","56.75","108.25"
"1538480332607","184","0.5078125","0.2734375","0.15527344","-79.25","75.0","50.65625"
"1538480332608","185","0.5078125","0.8251953","-0.013671875","-86.375","46.0625","3.34375"
"1538480332608","186","0.4453125","0.8564453","0.053710938","-19.96875","22.3125","-34.5"
"1538480332806","187","0.5986328","0.5019531","-0.06542969","30.625","-6.96875","-100.46875"
"1538480332806","188","1.0214844","0.20996094","-0.072265625","140.5625","-25.65625","-183.84375"
"1538480332806","189","2.0","-2.0","-0.34960938","105.28125","-55.75","-209.375"
"1538480332807","190","2.0","-2.0","-0.6982422","122.46875","-91.15625","-151.125"
"1538480332807","191","1.1748047","-2.0","-0.48828125","100.375","-118.25","-92.25"
"1538480333007","192","0.0390625","-1.1601562","-0.5439453","54.71875","-96.09375","-49.15625"
"1538480333008","193","-0.28222656","-0.7285156","-0.38378906","25.0","-59.65625","-2.09375"
"1538480333009","194","-0.578125","-0.51660156","-0.37304688","-11.5625","-44.28125","20.1875"
"1538480333009","195","-0.5410156","-0.36328125","-0.34179688","-36.15625","-13.0625","42.34375"
"1538480333009","196","-0.3935547","-0.5078125","-0.33496094","-13.03125","25.3125","74.3125"
"1538480333203","197","-0.11230469","-1.0146484","-0.35839844","43.1875","75.0","108.9375"
"1538480333204","198","1.1142578","-2.0","-0.3984375","-48.0625","171.5","143.96875"
"1538480333204","199","2.0","-2.0","0.18359375","-148.4375","59.90625","147.375"
"1538480333204","200","1.3134766","-1.3730469","-0.41308594","-59.15625","74.9375","160.625"
"1538480333402","201","0.94433594","-0.7597656","-0.45507812","-48.46875","64.75","111.875"
"1538480333402","202","0.47460938","-0.05078125","-0.2919922","-120.0","88.65625","56.125"
"1538480333402","203","0.5107422","0.6582031","0.064453125","-113.40625","65.40625","24.09375"
"1538480333404","204","0.43359375","0.91015625","0.17480469","-28.9375","20.1875","2.4375"
"1538480333404","205","0.57421875","0.5888672","0.17285156","54.78125","-20.46875","-52.5"
"1538480333405","206","0.6855469","0.48535156","-0.10546875","119.78125","-65.4375","-118.125"
"1538480334001","207","1.5888672","-1.5742188","0.029296875","227.40625","-82.21875","-163.90625"
"1538480334001","208","2.0","-2.0","-0.64160156","184.4375","-116.84375","-132.59375"
"1538480334001","209","1.4365234","-2.0","-0.5019531","158.0","-119.40625","-62.8125"
"1538480334001","210","0.4033203","-1.7265625","-0.28222656","75.59375","-145.09375","-66.0625"
"1538480334004","211","-0.0078125","-0.8535156","-0.39648438","43.5","-85.78125","-39.3125"
"1538480334004","212","-0.27148438","-0.6816406","-0.39746094","39.78125","-67.21875","-3.0"
"1538480334004","213","-0.5097656","-0.33203125","-0.27441406","-10.5625","-31.9375","21.59375"
"1538480334004","214","-0.515625","-0.14746094","-0.4140625","-30.65625","4.1875","38.875"
"1538480334004","215","-0.33203125","-0.3203125","-0.35253906","40.6875","46.75","60.15625"
"1538480334200","216","-0.16308594","-1.1025391","-0.29296875","64.125","76.875","85.875"
"1538480334200","217","0.5419922","0.49023438","-0.025390625","-66.375","50.46875","13.96875"
"1538480334201","218","0.5107422","0.87109375","0.03515625","-20.15625","10.65625","-13.1875"
"1538480334201","219","0.6035156","0.62109375","-0.061523438","45.09375","-29.5625","-52.375"
"1538480334201","220","0.68847656","0.38476562","-0.16308594","114.96875","-81.1875","-101.46875"
"1538480334201","221","1.3974609","-1.5341797","0.15820312","221.46875","-115.90625","-147.0625"
"1538480334396","222","2.0","-2.0","-0.3642578","115.09375","-154.6875","-151.03125"
"1538480334396","223","1.4189453","-2.0","-0.421875","139.3125","-156.875","-66.3125"
"1538480334396","224","0.48632812","-1.8886719","-0.17675781","66.6875","-173.84375","-61.59375"
"1538480334397","225","-0.16601562","-0.91503906","-0.3701172","59.125","-123.5625","-43.96875"
"1538480334397","226","-0.3671875","-0.69921875","-0.27929688","58.40625","-100.84375","-18.8125"
"1538480334597","227","-0.61328125","-0.36328125","-0.25585938","-4.96875","-58.3125","3.65625"
"1538480334597","228","-0.6298828","-0.18261719","-0.3720703","-16.8125","-10.9375","35.5625"
"1538480334598","229","-0.4423828","-0.5185547","-0.2783203","24.59375","42.28125","63.59375"
"1538480334598","230","-0.23828125","-1.4472656","-0.29589844","-0.0625","72.25","84.625"
"1538480334598","231","0.7373047","-2.0","-0.24414062","-140.8125","147.6875","109.53125"
"1538480334793","232","2.0","-2.0","-0.0029296875","-141.1875","117.40625","130.96875"
"1538480334794","233","1.2060547","-1.5273438","-0.23828125","-71.5625","60.84375","131.09375"
"1538480334794","234","0.7919922","-0.75683594","-0.46289062","-62.5625","79.21875","93.84375"
"1538480334795","235","0.56640625","-0.028320312","-0.34375","-126.53125","91.65625","52.28125"
"1538480334795","236","0.50878906","0.5839844","0.060546875","-81.1875","71.46875","21.09375"
"1538480334994","237","0.5175781","0.8417969","0.107421875","-1.78125","43.25","-5.9375"
"1538480334994","238","0.6152344","0.5488281","-0.09472656","35.5","1.09375","-52.875"
"1538480334995","239","0.7451172","0.26367188","-0.16308594","105.75","-36.6875","-123.1875"
"1538480334995","240","1.5166016","-1.5976562","0.08691406","182.34375","-82.65625","-174.6875"
"1538480334996","241","2.0","-2.0","-0.53222656","121.6875","-128.6875","-154.125"
"1538480335191","242","1.6025391","-2.0","-0.39941406","161.84375","-154.5","-81.625"
"1538480335191","243","0.32128906","-1.8603516","-0.29296875","131.34375","-179.34375","-67.875"
"1538480335192","244","-0.19042969","-1.2236328","-0.36328125","81.65625","-114.6875","-44.03125"
"1538480335192","245","-0.50683594","-0.78222656","-0.30664062","6.03125","-103.78125","-13.5625"
"1538480335192","246","-0.7265625","-0.44726562","-0.3486328","-27.84375","-59.09375","30.125"
"1538480335390","247","-0.6767578","-0.1171875","-0.2734375","-57.6875","-11.90625","55.84375"
"1538480335390","248","-0.48632812","-0.2890625","-0.29101562","-39.375","37.46875","80.3125"
"1538480335390","249","-0.37890625","-1.1347656","-0.2421875","32.21875","80.25","91.46875"
"1538480335390","250","0.91796875","-2.0","-0.29882812","-137.21875","195.46875","117.0"
"1538480335391","251","2.0","-2.0","0.029296875","-143.5","117.1875","135.125"
"1538480335588","252","0.9091797","-1.4394531","-0.2421875","-56.34375","116.125","133.09375"
"1538480335590","253","0.73339844","-0.6875","-0.3388672","-98.21875","113.03125","86.65625"
"1538480335590","254","0.4658203","0.18457031","-0.048828125","-99.9375","111.25","42.34375"
"1538480335590","255","0.47558594","0.4453125","0.072265625","-61.59375","76.53125","9.03125"
"1538480335591","256","0.56933594","0.8964844","0.021484375","-35.59375","44.71875","-16.5625"
"1538480335787","257","0.6640625","0.5234375","-0.013671875","54.0625","-3.96875","-67.34375"
"1538480335787","258","0.8798828","0.022460938","-0.25195312","151.40625","-53.1875","-141.6875"
"1538480335789","259","2.0","-2.0","-0.25683594","84.40625","-91.4375","-193.125"
"1538480335789","260","1.8740234","-2.0","-0.9199219","125.09375","-145.46875","-134.96875"
"1538480335790","261","1.1054688","-2.0","-0.60546875","88.125","-118.59375","-83.21875"
"1538480335988","262","0.10058594","-1.2392578","-0.47460938","9.875","-117.4375","-78.5625"
"1538480335988","263","-0.234375","-0.67871094","-0.4111328","14.21875","-67.8125","-52.09375"
"1538480335989","264","-0.49316406","-0.5625","-0.3486328","-1.3125","-51.09375","-18.6875"
"1538480335990","265","-0.66015625","-0.3544922","-0.26757812","-42.625","-20.21875","17.3125"
"1538480335991","266","-0.61816406","-0.22851562","-0.33984375","-37.84375","19.9375","45.40625"
"1538480336185","267","-0.52246094","-0.4921875","-0.3046875","9.9375","62.125","61.25"
"1538480336186","268","0.15625","-2.0","-0.4169922","12.625","123.8125","77.375"
"1538480336186","269","2.0","-2.0","-0.39257812","-154.875","237.46875","139.4375"
"1538480336186","270","1.5869141","-2.0","-0.30859375","-90.78125","31.78125","153.96875"
"1538480336384","271","1.4160156","-0.95410156","-0.25585938","-94.125","78.46875","134.1875"
"1538480336384","272","0.78222656","-0.3125","-0.3046875","-84.90625","65.53125","96.53125"
"1538480336384","273","0.640625","0.3046875","0.028320312","-71.375","56.0625","52.09375"
"1538480336384","274","0.6123047","0.6621094","0.064453125","-44.3125","29.65625","20.90625"
"1538480336386","275","0.53808594","0.71777344","0.041015625","1.3125","-3.8125","-21.1875"
"1538480336386","276","0.61621094","0.47070312","-0.08300781","59.75","-33.21875","-80.8125"
"1538480336582","277","0.7939453","-0.03125","-0.19335938","166.5","-54.6875","-164.3125"
"1538480336582","278","1.9228516","-2.0","-0.359375","163.5","-62.5","-211.8125"
"1538480336582","279","2.0","-2.0","-0.8378906","122.96875","-127.15625","-144.84375"
"1538480336583","280","1.1660156","-2.0","-0.4873047","105.15625","-124.84375","-88.75"
"1538480336583","281","0.0703125","-1.5498047","-0.5029297","63.71875","-137.15625","-83.09375"
"1538480336781","282","-0.15332031","-0.8339844","-0.41796875","42.28125","-82.0","-53.46875"
"1538480336781","283","-0.50390625","-0.609375","-0.3779297","37.71875","-63.5","-20.15625"
"1538480336781","284","-0.58496094","-0.47558594","-0.36035156","-15.28125","-24.84375","8.03125"
"1538480336782","285","-0.49609375","-0.36132812","-0.38867188","-50.75","24.28125","43.4375"
"1538480336782","286","-0.35839844","-0.4501953","-0.3564453","-18.875","75.65625","80.5625"
"1538480336980","287","-0.051757812","-1.5693359","-0.38476562","13.65625","127.5625","98.375"
"1538480336981","288","1.6064453","-2.0","-0.19433594","-160.0625","246.4375","120.28125"
"1538480336981","289","2.0","-2.0","-0.17675781","-116.34375","26.0","138.53125"
"1538480336981","290","1.3994141","-1.3251953","-0.26953125","-52.75","101.5625","138.78125"
"1538480336983","291","0.7519531","-0.67285156","-0.40625","-71.3125","58.8125","109.375"
"1538480337179","292","0.51660156","0.009765625","-0.171875","-92.0625","89.875","75.3125"
"1538480337179","293","0.40039062","0.296875","0.015625","-55.9375","58.15625","34.53125"
"1538480337181","294","0.53222656","0.6435547","-0.041992188","-62.03125","46.0625","8.46875"
"1538480337182","295","0.53515625","0.6894531","-0.103515625","7.8125","5.34375","-19.5"
"1538480337182","296","0.6542969","0.3359375","-0.1875","127.0","-40.46875","-77.46875"
"1538480337377","297","1.3857422","-1.5810547","0.040039062","173.9375","-77.40625","-164.1875"
"1538480337377","298","2.0","-2.0","-0.67089844","85.4375","-98.96875","-178.375"
"1538480337378","299","1.5078125","-2.0","-0.7011719","147.09375","-105.0","-93.03125"
"1538480337378","300","0.5966797","-1.8691406","-0.5419922","-6.65625","-139.96875","-78.25"
"1538480337578","301","-0.22460938","-0.91308594","-0.59472656","29.53125","-130.4375","-40.65625"
"1538480337578","302","-0.52246094","-0.66503906","-0.3642578","-3.25","-103.78125","-5.15625"
"1538480337579","303","-0.8144531","-0.46875","-0.3330078","-54.46875","-65.03125","18.96875"
"1538480337579","304","-0.6767578","-0.23046875","-0.30371094","-52.125","-11.71875","31.65625"
"1538480337579","305","-0.3466797","-0.421875","-0.3466797","-23.875","33.0","56.125"
"1538480337775","306","-0.09277344","-1.0654297","-0.33984375","37.21875","91.84375","90.5625"
"1538480337976","307","1.0849609","-2.0","-0.4501953","-104.6875","196.09375","111.5625"
"1538480337976","308","2.0","-1.9521484","-0.0146484375","-176.21875","82.5","108.5"
"1538480337977","309","1.0878906","-1.3828125","-0.38085938","-24.25","88.84375","128.03125"
"1538480337977","310","0.9277344","-0.7236328","-0.3671875","-52.09375","86.21875","104.34375"
"1538480337977","311","0.3857422","0.14257812","-0.14550781","-70.5625","104.78125","70.3125"
"1538480337978","312","0.33984375","0.32128906","-0.029296875","-18.21875","83.53125","46.25"
"1538480338172","313","0.3955078","0.4404297","-0.13769531","-52.625","62.96875","20.125"
"1538480338172","314","0.3876953","0.5751953","-0.23828125","-8.6875","19.75","-8.25"
"1538480338173","315","0.6435547","0.109375","-0.23046875","89.65625","-9.28125","-88.09375"
"1538480338174","316","1.890625","-1.7753906","-0.31640625","102.40625","-5.09375","-197.03125"
"1538480338174","317","2.0","-1.7138672","-0.94628906","108.375","-91.4375","-158.875"
"1538480338175","318","1.2509766","-2.0","-0.8027344","64.375","-93.09375","-109.34375"
"1538480338175","319","0.45214844","-1.40625","-0.4658203","-31.8125","-122.5625","-108.59375"
"1538480338176","320","-0.13183594","-0.8222656","-0.48339844","-31.5","-74.34375","-58.78125"
"1538480338371","321","-0.4267578","-0.9238281","-0.4658203","-41.34375","-45.71875","-12.90625"
"1538480338371","322","-0.5878906","-0.9472656","-0.3095703","-117.03125","-1.84375","32.03125"
"1538480338371","323","-0.5263672","-0.59765625","-0.25195312","-97.71875","36.0625","78.0"
"1538480338372","324","-0.29101562","-0.85253906","-0.12890625","-38.28125","85.8125","117.65625"
"1538480338373","325","0.3232422","-2.0","-0.38183594","-71.375","145.3125","113.28125"
"1538480338571","326","2.0","-2.0","0.42773438","-236.96875","281.65625","126.28125"
"1538480338572","327","1.5839844","-2.0","-0.19726562","-102.125","69.0625","187.125"
"1538480338572","328","1.6904297","-1.15625","0.021484375","-107.3125","80.25","175.09375"
"1538480338572","329","0.88183594","-0.3017578","-0.087890625","-84.78125","80.625","162.28125"
"1538480338572","330","0.5996094","0.087890625","0.0146484375","-71.25","72.125","130.90625"
"1538480338769","331","0.29003906","0.4736328","-0.020507812","-83.5625","56.6875","97.875"
"1538480338769","332","0.23632812","0.7314453","-0.11230469","-70.875","56.375","57.78125"
"1538480338769","333","0.20703125","0.5234375","-0.23632812","-19.78125","57.40625","8.90625"
"1538480338769","334","0.49121094","-0.10839844","-0.42285156","42.09375","63.53125","-58.3125"
"1538480338970","335","1.5546875","-1.9003906","-0.4013672","59.5","83.0","-138.1875"
"1538480338970","336","2.0","-2.0","-0.79785156","41.5","18.53125","-124.03125"
"1538480338971","337","1.3964844","-2.0","-0.8935547","-31.5","29.28125","-60.375"
"1538480338971","338","0.17675781","-1.2011719","-0.4580078","-69.96875","-2.15625","-27.90625"
"1538480338971","339","-0.20117188","-0.7861328","-0.24316406","-70.6875","60.53125","3.34375"
"1538480338971","340","-0.3203125","-0.85253906","-0.36523438","-115.875","74.375","33.0"
"1538480339166","341","-0.32226562","-0.42089844","-0.030273438","-174.8125","103.1875","71.625"
"1538480339166","342","-0.27148438","-0.7138672","0.041992188","-91.25","123.09375","105.5625"
"1538480339167","343","-0.0146484375","-1.2939453","0.13476562","-89.25","171.3125","136.8125"
"1538480339167","344","1.0380859","-2.0","0.018554688","-155.40625","260.375","152.15625"
"1538480339167","345","2.0","-2.0","0.24804688","-225.0625","176.625","177.15625"
"1538480339365","346","1.7070312","-1.7685547","0.14941406","-143.21875","116.0","208.125"
"1538480339365","347","1.0058594","-0.86816406","0.09082031","-107.0625","60.78125","194.4375"
"1538480339366","348","0.8125","0.0234375","0.26367188","-103.71875","71.40625","140.71875"
"1538480339367","349","0.5888672","0.5","0.5810547","-75.5625","43.875","70.46875"
"1538480339367","350","0.46875","0.96484375","0.16601562","-55.5","54.96875","17.0625"
"1538480339563","351","0.50683594","0.82421875","0.009765625","32.6875","93.1875","-50.5"
"1538480339563","352","0.703125","0.43652344","-0.13867188","35.875","76.28125","-137.28125"
"1538480339564","353","1.3447266","-0.3466797","-0.3564453","111.3125","102.15625","-229.25"
"1538480339565","354","2.0","-2.0","-0.5498047","69.875","90.8125","-259.0"
"1538480339565","355","2.0","-2.0","-0.7714844","43.625","10.46875","-156.75"
"1538480339761","356","1.2783203","-1.9169922","-0.7138672","9.625","-24.75","-98.28125"
"1538480339762","357","0.25683594","-0.9091797","-0.5263672","-4.40625","-48.59375","-39.6875"
"1538480339762","358","-0.18652344","-0.74609375","-0.38867188","0.59375","-6.71875","19.46875"
"1538480339764","359","-0.38183594","-0.5761719","-0.4873047","-38.90625","6.75","43.75"
"1538480339764","360","-0.40625","-0.49609375","-0.35546875","-57.15625","32.6875","73.71875"
"1538480339960","361","-0.23828125","-0.5283203","-0.33496094","-69.34375","59.8125","117.96875"
"1538480340160","362","0.044921875","-0.8955078","-0.4404297","-49.09375","94.53125","147.9375"
"1538480340160","363","1.1015625","-2.0","-0.54003906","-123.71875","165.9375","169.25"
"1538480340161","364","2.0","-1.9804688","-0.0390625","-156.3125","71.625","167.59375"
"1538480340161","365","1.8603516","-1.6396484","-0.10449219","-80.28125","39.90625","174.4375"
"1538480340161","366","1.3564453","-0.66796875","-0.22460938","-75.28125","-5.09375","140.96875"
"1538480340162","367","0.77734375","0.11035156","-0.125","-60.1875","11.46875","82.6875"
"1538480340163","368","0.6953125","0.59375","0.14746094","-53.46875","28.25","19.625"
"1538480340163","369","0.50683594","1.0126953","0.14453125","-4.21875","-2.59375","-37.75"
"1538480340164","370","0.6953125","0.7529297","0.16699219","57.65625","-0.6875","-97.0"
"1538480340358","371","0.75","0.41503906","0.04296875","131.40625","-32.59375","-162.625"
"1538480340359","372","1.53125","-0.7578125","-0.111328125","188.875","-27.125","-240.8125"
"1538480340359","373","2.0","-2.0","-0.5361328","160.5625","-34.8125","-196.1875"
"1538480340360","374","1.9462891","-2.0","-0.59765625","144.03125","-50.75","-110.6875"
"1538480340360","375","0.85058594","-1.6181641","-0.48828125","90.75","-77.15625","-72.40625"
"1538480340557","376","0.1171875","-0.99609375","-0.5214844","104.78125","-32.96875","-35.0"
"1538480340557","377","-0.171875","-0.7529297","-0.50878906","65.46875","-29.0625","4.375"
"1538480340557","378","-0.56933594","-0.47753906","-0.4814453","27.9375","-6.0625","39.78125"
"1538480340558","379","-0.45996094","-0.5957031","-0.578125","-14.34375","22.1875","67.625"
"1538480340755","380","-0.22851562","-0.67089844","-0.46289062","-6.125","56.0","107.53125"
"1538480340956","381","0.3779297","-1.7216797","-0.72558594","-68.9375","92.8125","140.71875"
"1538480340956","382","2.0","-2.0","-0.234375","-156.15625","174.59375","163.9375"
"1538480340956","383","2.0","-1.8886719","-0.16210938","-99.75","-24.5625","174.25"
"1538480340957","384","1.7128906","-0.9941406","-0.28808594","-52.03125","1.4375","154.15625"
"1538480340958","385","0.81152344","-0.37402344","-0.35546875","-61.0625","-1.84375","108.75"
"1538480340958","386","0.38183594","0.27148438","-0.030273438","-61.84375","20.1875","40.15625"
"1538480340959","387","0.58203125","0.6044922","-0.0068359375","-59.71875","27.625","-9.96875"
"1538480340959","388","0.4892578","0.921875","0.055664062","-14.3125","0.15625","-45.4375"
"1538480340960","389","0.64941406","0.64160156","0.11230469","63.59375","-30.96875","-92.59375"
"1538480341154","390","2.0","-2.0","-0.17675781","149.71875","-104.25","-192.21875"
"1538480341155","391","2.0","-2.0","-0.6142578","146.46875","-178.25","-118.65625"
"1538480341155","392","1.1445312","-2.0","-0.48242188","135.90625","-153.46875","-71.0"
"1538480341155","393","0.12988281","-1.3105469","-0.43359375","71.34375","-149.84375","-75.46875"
"1538480341155","394","-0.26953125","-0.71777344","-0.3388672","56.1875","-98.65625","-49.8125"
"1538480341352","395","-0.56640625","-0.5517578","-0.26367188","51.5","-61.65625","-19.90625"
"1538480341353","396","-0.54296875","-0.6386719","-0.38476562","-9.125","-18.6875","22.5625"
"1538480341355","397","-0.57910156","-0.37890625","-0.3359375","-24.3125","24.65625","63.46875"
"1538480341550","398","-0.30566406","-0.89941406","-0.26171875","11.8125","78.21875","96.59375"
"1538480341552","399","0.5214844","-2.0","-0.5673828","-59.59375","157.5625","123.6875"
"1538480341553","400","2.0","-2.0","-0.07421875","-146.625","200.3125","171.5625"
"1538480341554","401","1.4003906","-1.7617188","-0.2685547","-78.8125","56.625","166.5"
"1538480341554","402","1.1806641","-0.88378906","-0.27929688","-75.8125","72.0","136.28125"
"1538480341555","403","0.6660156","-0.22265625","-0.20605469","-104.3125","72.25","84.40625"
"1538480341555","404","0.51660156","0.3388672","0.022460938","-92.53125","73.90625","34.46875"
"1538480341750","405","0.4736328","0.6855469","0.0078125","-65.1875","50.875","5.0625"
"1538480341750","406","0.54296875","0.7783203","0.0390625","-14.96875","13.90625","-49.875"
"1538480341750","407","0.6064453","0.51953125","-0.10644531","96.90625","-22.21875","-109.03125"
"1538480341752","408","1.2363281","-0.8613281","-0.22167969","167.03125","-68.8125","-187.8125"
"1538480341753","409","2.0","-2.0","-0.5","67.1875","-102.375","-193.0"
"1538480341948","410","1.7597656","-2.0","-0.7216797","118.34375","-163.40625","-116.90625"
"1538480341949","411","0.6464844","-1.9785156","-0.59375","73.90625","-169.09375","-101.28125"
"1538480341949","412","-0.18359375","-1.0751953","-0.6386719","17.9375","-110.625","-82.46875"
"1538480342346","413","-0.45214844","-0.6699219","-0.25976562","20.8125","-55.25","-47.5625"
"1538480342346","414","-0.7001953","-0.5361328","-0.3310547","-10.875","-8.125","4.0625"
"1538480342347","415","-0.67871094","-0.39160156","-0.32617188","-22.15625","33.625","45.40625"
"1538480342347","416","-0.4482422","-0.60546875","-0.29101562","-21.75","71.9375","83.1875"
"1538480342348","417","-0.24707031","-1.25","-0.31835938","7.0","105.5625","111.875"
"1538480342348","418","1.0341797","-2.0","-0.5078125","-140.8125","220.375","157.21875"
"1538480342349","419","2.0","-2.0","-0.013671875","-167.6875","139.15625","182.65625"
"1538480342349","420","1.6347656","-1.5322266","-0.06933594","-118.96875","99.34375","161.1875"
"1538480342350","421","1.0498047","-0.5605469","-0.25976562","-101.75","47.78125","117.59375"
"1538480342545","422","0.5292969","0.7265625","0.06542969","-2.75","19.03125","-29.9375"
"1538480342545","423","0.6582031","0.6503906","-0.033203125","41.71875","-11.6875","-82.46875"
"1538480342545","424","0.7421875","0.1953125","-0.12597656","137.8125","-40.25","-153.9375"
"1538480342545","425","1.7529297","-1.5849609","-0.37890625","186.1875","-64.84375","-199.84375"
"1538480342546","426","2.0","-2.0","-0.68359375","123.15625","-125.4375","-155.65625"
"1538480342547","427","1.5185547","-2.0","-0.39453125","105.625","-155.09375","-88.9375"
"1538480342746","428","0.38183594","-1.8330078","-0.46777344","87.6875","-167.0","-75.40625"
"1538480342746","429","-0.2529297","-1.078125","-0.3642578","57.78125","-106.71875","-53.40625"
"1538480342746","430","-0.53515625","-0.75390625","-0.265625","25.5","-54.53125","-22.59375"
"1538480342746","431","-0.71777344","-0.5390625","-0.26171875","-40.46875","-8.4375","20.5"
"1538480342942","432","-0.76171875","-0.31933594","-0.23242188","-39.4375","50.78125","57.0625"
"1538480342943","433","-0.47070312","-0.58496094","-0.22167969","-40.375","111.0625","94.71875"
"1538480342944","434","-0.2529297","-1.3242188","-0.38671875","-1.84375","146.96875","112.21875"
"1538480342944","435","1.2148438","-2.0","-0.2734375","-166.21875","266.9375","152.9375"
"1538480342944","436","2.0","-2.0","-0.046875","-160.0","95.3125","166.84375"
"1538480343140","437","1.3896484","-1.4746094","-0.20117188","-105.71875","122.3125","158.125"
"1538480343141","438","0.8544922","-0.6484375","-0.24804688","-126.78125","60.34375","115.34375"
"1538480343142","439","0.62597656","0.13574219","0.016601562","-93.9375","72.3125","71.53125"
"1538480343142","440","0.56933594","0.62597656","0.15917969","-61.21875","58.21875","31.46875"
"1538480343142","441","0.5703125","0.8359375","0.14550781","-29.375","25.5","-8.6875"
"1538480343340","442","0.6894531","0.62597656","0.09667969","42.71875","1.375","-74.1875"
"1538480343341","443","0.8125","0.4765625","-0.14648438","128.03125","-34.0","-152.125"
"1538480343343","444","1.8388672","-1.4404297","-0.22070312","221.125","-49.46875","-215.78125"
"1538480343344","445","2.0","-2.0","-0.80371094","122.46875","-113.53125","-173.1875"
"1538480343345","446","1.5576172","-2.0","-0.49804688","133.21875","-150.21875","-96.5625"
"1538480343539","447","0.26171875","-1.8583984","-0.45410156","99.28125","-163.90625","-89.0"
"1538480343539","448","-0.099609375","-1.1621094","-0.42773438","44.46875","-98.46875","-59.46875"
"1538480343539","449","-0.4716797","-0.58203125","-0.2919922","15.125","-69.40625","-30.21875"
"1538480343540","450","-0.6542969","-0.40625","-0.24414062","-1.3125","-6.375","14.28125"
"1538480343540","451","-0.74609375","-0.46972656","-0.31347656","-34.875","44.78125","49.0625"
"1538480343738","452","-0.45410156","-0.4404297","-0.3359375","-55.0625","90.75","74.9375"
"1538480343739","453","-0.140625","-1.2207031","-0.30371094","5.78125","127.71875","109.25"
"1538480343739","454","0.89160156","-2.0","-0.37695312","-104.1875","215.625","139.75"
"1538480343740","455","2.0","-2.0","0.068359375","-137.21875","145.4375","158.8125"
"1538480343741","456","1.3222656","-1.5634766","-0.23632812","-66.0625","85.5625","153.78125"
"1538480344135","457","0.9267578","-0.87890625","-0.32226562","-62.8125","69.1875","115.78125"
"1538480344136","458","0.5878906","-0.22460938","-0.22167969","-131.1875","85.75","63.40625"
"1538480344136","459","0.5986328","0.40820312","0.10546875","-93.59375","86.78125","22.5625"
"1538480344136","460","0.66503906","0.7578125","0.072265625","-55.125","61.03125","6.46875"
"1538480344138","461","0.6591797","0.62109375","0.07910156","9.25","15.1875","-32.71875"
"1538480344138","462","0.71191406","0.421875","0.001953125","75.84375","-25.03125","-94.0625"
"1538480344139","463","1.1552734","-0.28222656","-0.21582031","193.40625","-63.1875","-163.84375"
"1538480344139","464","2.0","-2.0","-0.14648438","173.09375","-113.40625","-188.4375"
"1538480344333","465","1.765625","-2.0","-0.75683594","128.28125","-160.46875","-122.4375"
"1538480344333","466","-0.11035156","-1.5917969","-0.47851562","68.96875","-137.71875","-67.09375"
"1538480344334","467","-0.2685547","-0.9785156","-0.4482422","7.0625","-73.75","-30.34375"
"1538480344335","468","-0.61621094","-0.5332031","-0.30859375","-0.9375","-39.4375","6.34375"
"1538480344335","469","-0.7373047","-0.31152344","-0.26660156","-15.46875","15.25","33.125"
"1538480344335","470","-0.5732422","-0.20019531","-0.4404297","-37.84375","66.21875","58.34375"
"1538480344533","471","-0.390625","-0.5498047","-0.3203125","1.6875","104.59375","74.875"
"1538480344533","472","0.27734375","-2.0","-0.40039062","-34.0","152.875","98.1875"
"1538480344533","473","2.0","-2.0","-0.1328125","-155.53125","207.5","142.4375"
"1538480344533","474","1.4677734","-2.0","-0.1953125","-30.40625","56.4375","166.25"
"1538480344534","475","1.3154297","-1.2490234","-0.1796875","-37.375","74.25","152.03125"
"1538480344733","476","0.80371094","-0.421875","-0.19335938","-79.96875","61.625","106.96875"
"1538480344733","477","0.6533203","0.18359375","9.765625E-4","-99.9375","53.625","55.15625"
"1538480344733","478","0.56933594","0.7128906","0.07519531","-80.65625","35.03125","16.21875"
"1538480344734","479","0.5957031","0.77734375","0.06542969","-31.6875","11.46875","-29.5"
"1538480344734","480","0.67089844","0.5048828","0.043945312","9.09375","-6.3125","-103.53125"
"1538480344930","481","0.99902344","0.33496094","-0.060546875","122.0625","-28.8125","-213.40625"
"1538480344930","482","2.0","-1.9296875","-0.41015625","122.78125","-51.15625","-269.53125"
"1538480344930","483","2.0","-2.0","-0.984375","72.0","-107.3125","-204.59375"
"1538480344930","484","1.3876953","-2.0","-0.5917969","64.5","-136.375","-137.96875"
"1538480344931","485","0.095703125","-1.4160156","-0.65625","73.96875","-128.1875","-108.59375"
"1538480345130","486","-0.30273438","-0.98535156","-0.50097656","65.53125","-65.03125","-63.625"
"1538480345130","487","-0.51660156","-0.7470703","-0.4716797","-5.03125","-37.78125","-14.34375"
"1538480345131","488","-0.80371094","-0.47558594","-0.43066406","-9.53125","-7.46875","39.53125"
"1538480345131","489","-0.6767578","-0.50390625","-0.39160156","-26.4375","41.78125","83.71875"
"1538480345131","490","-0.3154297","-0.6972656","-0.47265625","-35.90625","77.5625","125.65625"
"1538480345327","491","0.21972656","-2.0","-0.62109375","-14.96875","129.125","143.0"
"1538480345327","492","2.0","-2.0","-0.36523438","-172.875","218.90625","169.65625"
"1538480345328","493","1.9697266","-1.9404297","-0.30273438","-122.6875","22.625","169.90625"
"1538480345328","494","1.4873047","-0.89453125","-0.25878906","-58.0","17.4375","157.625"
"1538480345329","495","0.6923828","-0.38964844","-0.21386719","-42.4375","15.0","106.1875"
"1538480345529","496","0.49023438","0.16015625","-0.037109375","-44.625","26.65625","49.78125"
"1538480345529","497","0.4921875","0.73339844","0.07128906","-46.21875","30.0625","12.1875"
"1538480345529","498","0.50097656","0.8886719","0.21679688","-11.84375","2.1875","-44.09375"
"1538480345529","499","0.59375","0.67285156","0.0625","96.53125","-5.75","-121.34375"
"1538480345530","500","1.1953125","-0.24121094","-0.12695312","204.875","-26.625","-215.46875"
"1538480345727","501","2.0","-2.0","-0.4736328","124.625","-69.96875","-226.5625"
"1538480345727","502","2.0","-2.0","-0.89453125","96.96875","-125.0625","-138.8125"
"1538480345727","503","0.8964844","-2.0","-0.52246094","108.5","-159.25","-86.875"
"1538480345727","504","-0.14355469","-1.2119141","-0.58984375","35.5625","-116.71875","-66.90625"
"1538480345728","505","-0.34960938","-0.65527344","-0.3251953","26.46875","-70.28125","-42.6875"
"1538480345923","506","-0.58496094","-0.42089844","-0.26464844","32.40625","-27.46875","-16.25"
"1538480345923","507","-0.61621094","-0.56640625","-0.39257812","-5.75","9.1875","24.34375"
"1538480345924","508","-0.49804688","-0.47753906","-0.328125","-30.03125","58.9375","59.8125"
"1538480346125","509","-0.2919922","-0.73828125","-0.3779297","-16.75","95.5","99.71875"
"1538480346125","510","0.43164062","-2.0","-0.69433594","-78.4375","152.6875","119.1875"
"1538480346125","511","2.0","-2.0","-0.13671875","-146.875","237.84375","158.125"
"1538480346125","512","1.6269531","-2.0","-0.31835938","-61.78125","56.8125","168.8125"
"1538480346126","513","1.3291016","-0.9267578","-0.2734375","-58.3125","69.6875","146.40625"
"1538480346126","514","0.61035156","-0.37695312","-0.2763672","-85.34375","62.96875","109.53125"
"1538480346126","515","0.52441406","0.15625","0.053710938","-84.0","66.5","73.96875"
"1538480346321","516","0.45410156","0.7939453","0.055664062","-77.40625","36.4375","40.15625"
"1538480346321","517","0.4814453","0.92285156","0.14355469","-18.875","3.84375","-3.4375"
"1538480346321","518","0.6435547","0.6044922","0.083984375","66.03125","-27.46875","-79.1875"
"1538480346322","519","0.95214844","0.115234375","-0.12695312","182.78125","-60.4375","-160.90625"
"1538480346322","520","2.0","-2.0","-0.25195312","146.15625","-81.625","-186.59375"
"1538480346521","521","1.9189453","-2.0","-0.81152344","115.53125","-156.625","-107.4375"
"1538480346522","522","0.8925781","-2.0","-0.29589844","117.78125","-163.21875","-69.59375"
"1538480346522","523","-0.07910156","-1.5976562","-0.47070312","52.40625","-144.84375","-68.875"
"1538480346720","524","-0.16894531","-0.9042969","-0.3251953","42.65625","-111.28125","-40.0625"
"1538480346721","525","-0.52734375","-0.6640625","-0.27148438","28.90625","-76.5625","-9.0625"
"1538480346721","526","-0.58984375","-0.39941406","-0.234375","-11.78125","-30.65625","20.25"
"1538480346721","527","-0.64453125","-0.19238281","-0.3388672","-31.5","20.1875","39.0"
"1538480346723","528","-0.38378906","-0.45214844","-0.26171875","12.25","83.46875","56.6875"
"1538480346724","529","-0.052734375","-1.5917969","-0.3779297","44.65625","128.21875","88.0625"
"1538480346724","530","1.0849609","-2.0","-0.38671875","-166.34375","226.71875","138.65625"
"1538480346917","531","2.0","-2.0","0.03125","-155.53125","129.1875","152.625"
"1538480346918","532","1.125","-1.5214844","-0.2607422","-84.0625","82.25","152.625"
"1538480346918","533","0.74609375","-0.71484375","-0.42382812","-97.375","70.96875","111.96875"
"1538480346919","534","0.44628906","-0.06640625","-0.20703125","-109.34375","87.625","74.3125"
"1538480346919","535","0.5673828","0.4482422","0.11816406","-90.84375","74.6875","38.9375"
"1538480347118","536","0.5546875","0.7480469","0.041992188","-60.8125","33.84375","9.9375"
"1538480347118","537","0.58691406","0.7548828","0.12792969","4.5","-1.34375","-47.75"
"1538480347118","538","0.7158203","0.59277344","0.015625","57.1875","-35.15625","-121.65625"
"1538480347118","539","1.2392578","-0.17285156","-0.18554688","253.40625","-58.4375","-214.5"
"1538480347118","540","2.0","-2.0","-0.24511719","150.9375","-114.6875","-259.125"
"1538480347315","541","1.7783203","-2.0","-0.921875","148.96875","-169.625","-174.15625"
"1538480347315","542","1.1103516","-2.0","-0.35742188","139.75","-150.96875","-138.8125"
"1538480347315","543","0.2265625","-1.4677734","-0.43847656","62.4375","-137.03125","-135.03125"
"1538480347316","544","0.040039062","-0.9482422","-0.3701172","71.34375","-93.59375","-85.40625"
"1538480347316","545","-0.5761719","-0.9003906","-0.33203125","30.8125","-70.28125","-37.75"
"1538480347514","546","-0.83203125","-0.58203125","-0.25878906","-39.9375","-16.8125","-1.71875"
"1538480347515","547","-0.7441406","-0.28027344","-0.28808594","-45.25","30.6875","25.9375"
"1538480347515","548","-0.3408203","-0.63378906","-0.3232422","6.03125","75.4375","69.8125"
"1538480347516","549","-0.08984375","-1.2490234","-0.29882812","32.9375","110.21875","114.375"
"1538480347516","550","0.87890625","-2.0","-0.38671875","-126.84375","175.28125","171.3125"
"1538480347721","551","2.0","-2.0","0.013671875","-145.53125","187.125","211.71875"
"1538480348112","552","1.7314453","-1.7587891","-0.15625","-56.21875","56.4375","221.59375"
"1538480348113","553","1.3574219","-1.0820312","-0.2705078","-43.84375","69.0625","187.0625"
"1538480348113","554","0.60253906","-0.4169922","-0.15917969","-14.46875","49.96875","133.78125"
"1538480348113","555","0.3388672","-0.24023438","-0.030273438","50.875","78.84375","107.21875"
"1538480348113","556","0.19042969","-0.16113281","-0.33984375","104.71875","64.9375","93.25"
"1538480348309","557","0.10644531","-0.021484375","-0.18945312","100.4375","82.625","122.0"
"1538480348309","558","0.2763672","-0.1171875","-0.18261719","95.3125","76.09375","132.90625"
"1538480348309","559","0.17675781","-0.33789062","-0.28710938","67.625","66.09375","133.53125"
"1538480348310","560","0.19433594","-1.0302734","0.048828125","38.125","17.875","121.03125"
"1538480348311","561","-0.103515625","-1.0205078","0.33496094","-14.40625","-42.5","-26.1875"
"1538480348312","562","-0.07714844","-0.7519531","0.009765625","28.71875","-15.53125","-14.46875"
"1538480348312","563","-0.171875","-0.7128906","0.17675781","16.59375","-4.96875","-7.8125"
"1538480348312","564","-0.087890625","-0.8798828","0.016601562","51.3125","29.09375","0.90625"
"1538480348313","565","-0.1953125","-0.515625","0.17773438","2.5625","30.375","12.9375"
"1538480348509","566","-0.23046875","-0.765625","0.15625","-11.6875","42.59375","15.625"
"1538480348509","567","-0.29492188","-0.81933594","0.22949219","-13.375","39.84375","24.09375"
"1538480348509","568","-0.296875","-0.8339844","0.28027344","-35.53125","39.0","19.21875"
"1538480348509","569","-0.35253906","-1.0908203","0.5449219","-31.6875","21.59375","-11.71875"
"1538480348509","570","-0.11621094","-0.92089844","0.23535156","-5.8125","8.21875","-14.96875"
