"# PDIoT walking data"
"# Start time: 20180924T140336"
"# Group: C"
"# Subject: TestCjoao"
"# Activity type: Running"
"# Sensor position: Torso"
"# Side of body: Left"
"# Sensor mounting: Body"
"# Number of steps: 100"
"# Notes: Blue side of sensor facing body, purple sensor
"
""
"timestamp","seq","accel_x","accel_y","accel_z","gyro_x","gyro_y","gyro_z"
"1537794216457","0","-0.9892578","-0.11328125","-0.10644531","-0.34375","-1.0","0.65625"
"1537794216458","1","-1.0","-0.111328125","-0.10058594","0.3125","-1.8125","1.09375"
"1537794216458","2","-0.9941406","-0.115234375","-0.09863281","0.8125","1.90625","0.96875"
"1537794216458","3","-0.99121094","-0.12792969","-0.11035156","1.21875","1.0625","2.90625"
"1537794216458","4","-0.9921875","-0.115234375","-0.10839844","1.0","-1.75","2.84375"
"1537794216655","5","-0.99121094","-0.111328125","-0.10449219","0.6875","-0.28125","2.90625"
"1537794216655","6","-0.9951172","-0.11328125","-0.10546875","2.15625","-1.5625","3.875"
"1537794216655","7","-0.99121094","-0.11035156","-0.099609375","3.4375","-2.28125","4.0625"
"1537794216655","8","-0.99316406","-0.11230469","-0.099609375","4.03125","-3.9375","4.75"
"1537794216656","9","-1.0058594","-0.09863281","-0.08886719","5.75","-3.75","6.5"
"1537794216853","10","-0.9980469","-0.09082031","-0.076171875","9.46875","-7.125","6.5625"
"1537794216853","11","-0.98828125","-0.09375","-0.068359375","13.3125","-7.3125","7.25"
"1537794217052","12","-1.0039062","-0.07128906","-0.07714844","17.34375","-7.90625","10.53125"
"1537794217053","13","-1.0361328","-0.0126953125","-0.087890625","18.4375","-12.3125","18.21875"
"1537794217053","14","-1.0146484","0.06347656","-0.10253906","26.75","-8.15625","22.1875"
"1537794217053","15","-0.89746094","0.07519531","-0.12109375","34.75","-11.4375","25.3125"
"1537794217053","16","-0.92578125","0.0029296875","-0.12792969","59.46875","-14.75","21.78125"
"1537794217054","17","-1.0859375","-0.11425781","-0.22265625","56.46875","-8.34375","20.65625"
"1537794217056","18","-1.0380859","-0.18652344","-0.13671875","55.0625","-13.78125","15.71875"
"1537794217056","19","-0.9658203","-0.015625","-0.13671875","34.4375","-25.0","16.8125"
"1537794217249","20","-0.9140625","0.034179688","-0.17773438","35.46875","-21.71875","15.59375"
"1537794217250","21","-0.8964844","0.0126953125","-0.17578125","39.75","-15.71875","11.8125"
"1537794217250","22","-0.953125","-0.00390625","-0.16894531","42.375","-16.28125","6.9375"
"1537794217449","23","-0.9951172","0.00390625","-0.1796875","38.875","-11.15625","2.25"
"1537794217449","24","-1.0556641","0.017578125","-0.18457031","35.34375","-13.40625","1.125"
"1537794217648","25","-1.0810547","0.043945312","-0.2265625","29.6875","-12.71875","-2.28125"
"1537794217648","26","-1.0722656","0.0546875","-0.25097656","26.0625","0.09375","-5.15625"
"1537794217648","27","-1.0712891","0.053710938","-0.17578125","37.25","-0.84375","-12.65625"
"1537794217649","28","-1.1445312","0.12695312","0.03125","65.8125","0.40625","-6.71875"
"1537794217650","29","-1.2119141","0.10058594","-0.06347656","46.09375","1.1875","-7.09375"
"1537794217650","30","-0.7988281","-0.07714844","0.07324219","42.71875","17.0625","-24.90625"
"1537794217650","31","-0.9785156","-0.11621094","0.24707031","28.09375","1.25","-1.46875"
"1537794217651","32","-1.0771484","0.005859375","0.22460938","26.3125","-19.03125","-7.40625"
"1537794217651","33","-1.0849609","0.12109375","-0.013671875","29.4375","-8.46875","-18.875"
"1537794217846","34","-1.0126953","-0.030273438","-0.018554688","39.0","-10.28125","-15.78125"
"1537794217846","35","-0.796875","-0.2109375","0.048828125","41.875","-24.09375","-9.46875"
"1537794217847","36","-0.72265625","-0.16796875","0.032226562","26.4375","-9.5625","2.0625"
"1537794217848","37","-0.7998047","-0.048828125","0.005859375","21.6875","-20.65625","4.125"
"1537794217848","38","-0.8652344","-0.034179688","-0.060546875","30.78125","-26.84375","2.0"
"1537794217849","39","-0.7910156","-0.14648438","-0.056640625","43.34375","-18.40625","6.875"
"1537794218045","40","-0.66308594","-0.28320312","0.015625","26.875","-19.3125","15.84375"
"1537794218045","41","-0.7421875","-0.22460938","0.041015625","8.0","-25.0","22.4375"
"1537794218045","42","-0.8798828","-0.1015625","-0.00390625","7.40625","-25.3125","27.5625"
"1537794218047","43","-1.1787109","-0.14648438","-0.048828125","16.4375","-28.84375","36.78125"
"1537794218047","44","-1.5126953","-0.21582031","0.0048828125","19.71875","-47.21875","42.09375"
"1537794218244","45","-1.5947266","-0.3935547","-0.20019531","21.0625","-57.59375","44.46875"
"1537794218245","46","-1.2685547","-0.47460938","0.056640625","8.90625","-32.9375","40.375"
"1537794218245","47","-0.67578125","0.07910156","0.5888672","-10.71875","-76.4375","50.46875"
"1537794218245","48","-0.6328125","0.83203125","0.27929688","-52.96875","-29.21875","44.78125"
"1537794218246","49","-1.0009766","0.5234375","0.22851562","-1.03125","5.34375","25.6875"
"1537794218444","50","-1.2001953","0.10546875","0.39648438","53.125","61.59375","37.8125"
"1537794218444","51","-1.5722656","0.42285156","0.30078125","-8.0","25.90625","48.125"
"1537794218444","52","-1.5556641","0.32714844","0.2109375","-11.84375","2.15625","17.0625"
"1537794218642","53","-1.4960938","0.14257812","0.19335938","29.4375","-36.53125","3.53125"
"1537794218642","54","-1.8476562","0.3408203","0.09082031","2.625","-1.625","-34.875"
"1537794218643","55","-1.3378906","0.38183594","0.08691406","48.90625","4.78125","-48.59375"
"1537794218645","56","-0.5595703","-0.005859375","-0.036132812","103.59375","-6.6875","-47.03125"
"1537794218645","57","0.3125","-0.15820312","0.28320312","56.96875","-4.0","-61.0"
"1537794218645","58","0.4404297","0.056640625","0.1171875","8.3125","-44.09375","-38.09375"
"1537794218646","59","-0.11230469","0.12207031","-0.09765625","9.65625","-8.15625","-40.96875"
"1537794218839","60","-0.5996094","0.5839844","0.4013672","51.53125","15.84375","-17.34375"
"1537794219038","61","-1.2324219","0.2705078","0.36132812","63.375","3.9375","64.9375"
"1537794219041","62","-1.9931641","-0.21972656","0.53125","41.5625","83.21875","57.40625"
"1537794219041","63","-1.9931641","-0.033203125","-0.08691406","-37.90625","-39.28125","-20.03125"
"1537794219041","64","-1.9707031","-0.6767578","0.51953125","-123.65625","8.3125","-20.40625"
"1537794219041","65","-1.6376953","0.034179688","0.4140625","-158.625","-45.375","5.34375"
"1537794219237","66","-0.64160156","0.34375","0.107421875","-189.75","-34.34375","18.0"
"1537794219435","67","0.26953125","0.12011719","0.55078125","-75.4375","31.59375","-25.03125"
"1537794219636","68","0.5839844","0.8251953","0.375","18.9375","6.90625","24.09375"
"1537794219636","69","-0.087890625","0.13378906","-0.22070312","29.6875","-4.5","52.15625"
"1537794219637","70","-0.24511719","-0.5859375","-0.091796875","49.03125","73.3125","28.53125"
"1537794219637","71","-0.140625","-0.055664062","0.6269531","94.78125","202.34375","-1.25"
"1537794219638","72","-1.9931641","1.7548828","0.9638672","-172.40625","215.46875","214.59375"
"1537794219640","73","-1.9931641","0.31054688","-0.9199219","-85.125","-19.5","-74.125"
"1537794219640","74","-1.8300781","0.43847656","0.96191406","80.15625","-20.90625","-37.25"
"1537794219640","75","-1.3603516","0.31933594","-0.087890625","64.875","-80.25","-31.8125"
"1537794219641","76","-0.53515625","0.16796875","-0.25195312","4.15625","-3.75","-17.71875"
"1537794219833","77","-1.4667969","-0.4111328","0.37304688","-132.6875","-48.1875","-31.09375"
"1537794219833","78","-1.7080078","0.29003906","0.3671875","-159.96875","-69.4375","1.5"
"1537794220033","79","-0.6582031","0.28125","-0.07324219","-198.1875","-86.09375","5.34375"
"1537794220234","80","0.9433594","0.4375","0.5878906","-86.125","41.21875","-19.1875"
"1537794220234","81","0.60058594","0.7294922","0.2578125","25.78125","-20.125","18.28125"
"1537794220235","82","-0.25097656","-0.060546875","0.037109375","64.9375","36.34375","72.1875"
"1537794220235","83","-0.36035156","0.024414062","0.7548828","63.96875","119.65625","50.34375"
"1537794220235","84","-1.265625","0.51953125","0.5136719","96.4375","112.03125","68.84375"
"1537794220235","85","-1.9931641","0.8466797","-0.6113281","-20.0625","-40.6875","65.40625"
"1537794220236","86","-1.8984375","0.265625","0.578125","98.03125","-4.96875","-42.8125"
"1537794220236","87","-1.2177734","0.5263672","0.22949219","78.0","-62.96875","-57.15625"
"1537794220236","88","-1.171875","-0.07128906","-0.22558594","140.21875","-106.40625","-60.875"
"1537794220430","89","-0.3671875","0.25976562","-0.15917969","-38.125","-19.125","1.1875"
"1537794220430","90","-1.296875","0.91015625","0.61328125","49.375","70.8125","29.34375"
"1537794220431","91","-1.9931641","0.12792969","0.27148438","96.125","-18.46875","152.6875"
"1537794220431","92","-1.9931641","-0.7265625","-0.7705078","-46.375","-52.40625","-58.5"
"1537794220432","93","-1.6865234","-0.20410156","0.5878906","-118.21875","-28.28125","-16.375"
"1537794220629","94","-1.6015625","0.23242188","0.4296875","-165.34375","-82.96875","7.5625"
"1537794220630","95","-0.38085938","0.34570312","-0.07324219","-133.34375","13.03125","-11.5"
"1537794220630","96","1.1269531","0.73046875","0.6953125","-4.3125","59.53125","-21.6875"
"1537794220632","97","0.34570312","0.65527344","-0.015625","6.28125","-35.375","51.0625"
"1537794220632","98","-0.2783203","-0.3251953","-0.0146484375","70.1875","57.21875","65.84375"
"1537794221031","99","-0.38378906","-0.17285156","0.7421875","41.15625","114.46875","21.34375"
"1537794221031","100","-1.1113281","0.64160156","0.734375","113.65625","111.96875","79.625"
"1537794221031","101","-1.9931641","1.0634766","-0.13378906","-6.28125","-1.875","-33.78125"
"1537794221031","102","-1.9931641","-0.08984375","0.4638672","86.0","-25.25","-69.0625"
"1537794221031","103","-1.4316406","0.58984375","0.091796875","26.125","-57.84375","-27.0"
"1537794221032","104","-0.8300781","-0.14746094","-0.15429688","111.46875","-93.0","-53.0625"
"1537794221032","105","0.32128906","-0.40429688","0.19628906","90.84375","37.4375","-99.4375"
"1537794221032","106","1.0039062","-0.41601562","0.19433594","-61.75","-21.8125","-62.15625"
"1537794221226","107","-0.08691406","0.17285156","0.046875","-86.1875","-56.96875","-39.5625"
"1537794221424","108","-0.2998047","0.5605469","-0.13378906","-35.5625","17.34375","-21.3125"
"1537794221424","109","-1.1298828","1.125","0.8652344","66.71875","88.84375","1.75"
"1537794221424","110","-1.9931641","-0.11816406","0.90722656","98.40625","-74.1875","164.34375"
"1537794221426","111","-1.9931641","-1.2568359","-0.2763672","14.53125","36.84375","-95.46875"
"1537794221426","112","-1.4853516","-0.29296875","0.32421875","-153.625","-50.875","-7.78125"
"1537794221426","113","-1.3554688","0.38671875","0.29785156","-172.65625","-89.28125","1.09375"
"1537794221427","114","-0.31152344","0.17382812","0.061523438","-129.15625","0.4375","-7.59375"
"1537794221428","115","1.2089844","0.7373047","0.80078125","-2.5","69.65625","2.0625"
"1537794221623","116","0.27539062","0.62890625","-0.08886719","22.21875","-36.46875","37.625"
"1537794221626","117","-1.9931641","1.5625","0.3408203","-17.9375","116.90625","165.625"
"1537794221626","118","-1.9931641","0.103515625","-1.1337891","35.53125","-115.03125","-71.96875"
"1537794221627","119","-1.9931641","-0.00390625","0.94140625","114.8125","-23.78125","-54.21875"
"1537794221627","120","-1.1376953","0.36523438","-0.1015625","43.34375","-45.625","-36.15625"
"1537794221628","121","-0.65234375","-0.22167969","-0.07519531","120.96875","-61.0","-78.03125"
"1537794221821","122","0.86816406","-0.20996094","0.35253906","34.3125","69.125","-59.03125"
"1537794221822","123","0.8046875","-0.10449219","0.25","-61.40625","-86.71875","-18.5"
"1537794221822","124","-0.16015625","0.5214844","0.0048828125","-34.125","-52.78125","-15.46875"
"1537794221822","125","-0.6611328","0.013671875","0.6015625","18.9375","33.46875","-7.90625"
"1537794221823","126","-1.9931641","1.2294922","0.9814453","77.15625","-64.5","184.4375"
"1537794222019","127","-1.9931641","-0.23046875","-0.58691406","-1.21875","-27.25","-73.5625"
"1537794222020","128","-1.9794922","-0.7373047","0.3076172","-156.65625","52.28125","3.09375"
"1537794222021","129","-1.6552734","-0.029296875","0.43945312","-146.53125","-96.28125","36.78125"
"1537794222021","130","-0.82128906","0.35742188","-0.26171875","-223.6875","-42.5625","10.65625"
"1537794222022","131","1.0224609","0.74316406","0.8173828","-64.8125","85.53125","-39.6875"
"1537794222220","132","0.8535156","0.8730469","0.27929688","39.6875","-18.59375","27.875"
"1537794222221","133","-0.28320312","-0.2998047","-0.2529297","59.34375","13.09375","79.75"
"1537794222221","134","-0.33984375","-0.63671875","0.2421875","16.78125","105.0625","25.6875"
"1537794222221","135","-0.3671875","0.3076172","0.7470703","34.375","193.6875","-3.875"
"1537794222221","136","-1.9931641","1.9882812","-0.6767578","45.125","-175.5","238.375"
"1537794222617","137","-1.9931641","-0.63183594","0.038085938","60.875","12.78125","-68.125"
"1537794222617","138","-1.5214844","0.31640625","0.4169922","67.5625","-28.1875","-70.21875"
"1537794222617","139","-0.9814453","0.078125","-0.26464844","90.59375","-53.4375","-37.5625"
"1537794222617","140","-0.09375","-0.27929688","0.26660156","84.40625","37.8125","-99.5"
"1537794222619","141","1.2011719","-0.1484375","0.22070312","-27.75","-39.53125","-36.03125"
"1537794222619","142","0.29003906","0.18457031","0.022460938","-64.25","-101.0625","-25.15625"
"1537794222620","143","-0.234375","0.5410156","-0.11816406","-28.75","-2.96875","-23.21875"
"1537794222620","144","-0.9326172","0.27929688","0.5498047","27.40625","52.15625","-2.40625"
"1537794222621","145","-1.9931641","0.1953125","1.3076172","70.8125","-103.6875","179.0625"
"1537794222814","146","-1.5820312","-0.33789062","0.42382812","-170.21875","7.71875","-9.90625"
"1537794222815","147","-1.40625","0.3623047","0.32128906","-171.625","-93.78125","22.875"
"1537794222815","148","-0.2705078","0.3935547","-0.016601562","-113.40625","4.125","-13.5625"
"1537794222815","149","1.0546875","0.78125","0.7324219","34.75","58.4375","-25.03125"
"1537794222816","150","0.31933594","0.5107422","0.0107421875","34.0625","-22.8125","40.625"
"1537794223015","151","-0.24707031","-0.3564453","-0.20214844","70.25","70.34375","54.59375"
"1537794223016","152","-0.18261719","-0.4248047","0.3388672","16.1875","122.8125","11.8125"
"1537794223016","153","-0.9248047","0.6279297","0.92285156","9.21875","159.09375","68.03125"
"1537794223016","154","-1.9931641","1.5878906","-0.58496094","21.25","-25.1875","18.0625"
"1537794223017","155","-1.9931641","-0.96972656","0.8183594","77.875","3.8125","-26.6875"
"1537794223212","156","-1.3251953","0.40722656","-0.0029296875","-10.0625","-80.71875","-37.1875"
"1537794223213","157","-1.2578125","0.009765625","-0.20703125","84.25","-66.75","-29.375"
"1537794223214","158","-0.38378906","-0.10253906","-0.0390625","128.96875","13.8125","-108.53125"
"1537794223215","159","1.5605469","-0.18261719","0.36328125","0.375","0.5625","-17.28125"
"1537794223215","160","0.16699219","-0.078125","0.0068359375","-81.0","-133.59375","-22.40625"
"1537794223411","161","-0.375","0.6953125","0.02734375","-56.15625","9.3125","-21.6875"
"1537794223412","162","-1.1123047","1.5205078","0.78125","49.09375","132.65625","9.1875"
"1537794223412","163","-1.9931641","-0.38476562","0.2841797","187.03125","-41.40625","140.25"
"1537794223412","164","-1.9931641","-1.5117188","-0.4794922","-48.03125","15.46875","-41.46875"
"1537794223413","165","-1.7255859","0.032226562","0.51660156","-114.75","-40.25","5.71875"
"1537794223809","166","-1.8955078","0.15234375","-0.017578125","-180.03125","-94.59375","5.34375"
"1537794223809","167","-0.3623047","0.056640625","-0.064453125","-134.4375","8.375","-19.0"
"1537794223810","168","1.390625","1.0761719","0.9941406","51.34375","111.0625","-45.75"
"1537794223810","169","0.39453125","0.5097656","-0.059570312","7.6875","-63.34375","56.375"
"1537794223811","170","-0.31640625","-0.4970703","-0.18359375","84.1875","48.0625","55.21875"
"1537794223812","171","-0.3935547","-0.58691406","0.34960938","5.0625","109.59375","-9.125"
"1537794223813","172","-0.5722656","0.6113281","-0.23632812","-35.75","255.53125","18.21875"
"1537794223813","173","-1.9931641","2.0058594","-0.3828125","57.8125","-205.125","242.96875"
"1537794223813","174","-1.9931641","-0.6425781","-0.10546875","61.46875","-10.78125","-73.4375"
"1537794224008","175","-1.0029297","-0.061523438","-0.21972656","80.40625","-41.90625","-22.3125"
"1537794224008","176","-0.3173828","-0.24316406","-0.040039062","112.625","-40.75","-77.46875"
"1537794224008","177","0.9716797","-0.017578125","0.3544922","-32.46875","13.5","-33.46875"
"1537794224009","178","0.6298828","-0.12402344","0.12207031","-96.625","-77.375","-38.03125"
"1537794224009","179","-0.13671875","0.7001953","0.041015625","-60.0","-6.9375","-40.84375"
"1537794224207","180","-1.2910156","0.42773438","0.44335938","26.6875","29.3125","-64.21875"
"1537794224208","181","-1.9931641","0.28320312","1.1650391","227.4375","-184.53125","210.4375"
"1537794224208","182","-1.9931641","-0.6689453","-0.5185547","-57.96875","32.3125","-115.6875"
"1537794224208","183","-1.2021484","-0.65234375","0.2919922","-140.96875","-8.21875","-65.75"
"1537794224209","184","-1.375","0.1875","0.1015625","-133.0625","-113.3125","42.21875"
"1537794224404","185","-0.9277344","-0.09082031","-0.19238281","-134.34375","-16.03125","104.34375"
"1537794224404","186","1.1708984","0.12011719","0.828125","-97.21875","119.40625","-48.53125"
"1537794224405","187","0.47851562","0.9121094","0.22753906","29.6875","-6.5625","-33.59375"
"1537794224406","188","-0.2626953","0.08984375","-0.021484375","66.65625","31.09375","31.90625"
"1537794224406","189","-0.28222656","-0.20605469","0.2265625","-75.78125","69.40625","55.03125"
"1537794224603","190","-0.9863281","0.35253906","0.5810547","-11.28125","175.1875","-5.625"
"1537794224605","191","-1.9931641","0.5576172","0.46289062","49.75","-76.21875","130.96875"
"1537794224605","192","-1.8964844","-1.9033203","-0.32910156","195.3125","-56.625","-111.84375"
"1537794224606","193","-0.15136719","-0.45996094","0.091796875","114.8125","13.09375","12.84375"
"1537794224606","194","-0.6015625","-0.46289062","-0.23828125","155.78125","-64.5625","63.625"
"1537794224802","195","-0.5576172","-0.0107421875","0.03515625","95.78125","-72.90625","29.9375"
"1537794224802","196","0.44433594","0.29003906","0.12207031","0.625","18.9375","-2.8125"
"1537794224803","197","0.6699219","-0.041015625","0.3076172","-33.125","-38.90625","-28.53125"
"1537794224803","198","-0.1015625","0.5683594","0.0048828125","-50.78125","-27.0625","-24.1875"
"1537794224804","199","-0.76464844","0.11328125","0.4091797","-4.25","63.0625","-8.4375"
"1537794225001","200","-1.9931641","0.6074219","1.1191406","113.84375","-158.3125","185.96875"
"1537794225002","201","-1.9931641","-0.8828125","-0.81933594","-12.875","-40.125","-46.84375"
"1537794225002","202","-1.9931641","-0.6064453","0.34375","-128.34375","-5.21875","-18.625"
"1537794225002","203","-1.7705078","-0.11816406","0.265625","-88.0","-130.71875","5.03125"
"1537794225200","204","-0.953125","0.14355469","-0.20898438","-125.78125","-56.0","9.0625"
"1537794225201","205","0.77246094","0.4609375","0.6328125","-70.65625","115.0","-38.09375"
"1537794225201","206","0.91015625","0.83203125","0.3232422","59.46875","-15.84375","1.4375"
"1537794225202","207","-0.08203125","0.083984375","-0.022460938","84.59375","-2.28125","63.53125"
"1537794225204","208","-0.35839844","-0.375","0.021484375","43.90625","74.0","34.78125"
"1537794225399","209","-0.13769531","0.5576172","1.3544922","4.59375","126.96875","-8.3125"
"1537794225399","210","-1.9931641","0.6503906","0.8876953","54.75","22.0625","227.8125"
"1537794225401","211","-1.9931641","0.20214844","-1.2705078","50.96875","-41.78125","-34.0625"
"1537794225401","212","-1.9931641","-0.52734375","0.74902344","105.28125","-46.0","-29.625"
"1537794225401","213","-1.2900391","0.2265625","-0.053710938","18.5","-59.0625","0.78125"
"1537794225597","214","-1.1230469","-0.083984375","-0.42773438","97.90625","-89.28125","-48.65625"
"1537794225599","215","0.11035156","-0.234375","0.3076172","55.3125","24.0","-60.1875"
"1537794225599","216","1.4882812","-0.15917969","0.056640625","-65.1875","-14.625","-19.0625"
"1537794225599","217","0.068359375","0.0390625","0.18554688","-73.90625","-71.6875","-48.1875"
"1537794225599","218","-0.4970703","0.5205078","-0.08105469","-53.15625","-16.6875","-17.21875"
"1537794225795","219","-1.3779297","0.76464844","0.61621094","-9.8125","132.15625","19.15625"
"1537794225796","220","-1.9931641","-0.5029297","0.51660156","146.125","-18.46875","93.78125"
"1537794225798","221","-1.9931641","-1.3193359","-0.56640625","-54.375","-26.71875","-8.625"
"1537794225798","222","-1.7412109","0.048828125","0.5029297","-109.3125","-32.9375","1.5625"
"1537794225798","223","-1.6376953","0.29882812","0.17578125","-103.6875","-129.8125","25.8125"
"1537794226194","224","-0.5576172","-0.02734375","-0.31640625","-77.75","-5.71875","-25.53125"
"1537794226195","225","0.8310547","0.36816406","0.87402344","-7.875","107.5","-42.375"
"1537794226196","226","0.69628906","0.80371094","0.068359375","20.34375","-13.03125","11.53125"
"1537794226196","227","-0.13769531","0.028320312","-0.24707031","58.125","34.09375","53.8125"
"1537794226197","228","-0.22265625","-0.4609375","0.16308594","45.1875","99.15625","5.59375"
"1537794226198","229","-0.5888672","0.7265625","0.33007812","-9.875","169.75","1.03125"
"1537794226198","230","-1.9931641","1.2802734","0.5253906","-16.71875","-115.5625","257.3125"
"1537794226198","231","-1.9560547","-0.049804688","-0.65722656","57.125","-11.75","-49.34375"
"1537794226199","232","-1.7851562","-0.0546875","0.609375","90.65625","-34.21875","-47.4375"
"1537794226392","233","-0.9199219","-0.19238281","-0.3486328","106.5","-83.84375","-72.34375"
"1537794226392","234","0.22167969","-0.2890625","0.3798828","42.6875","8.8125","-61.96875"
"1537794226393","235","1.5087891","-0.29101562","0.15039062","-76.34375","-32.3125","-31.03125"
"1537794226394","236","-0.08105469","0.26171875","0.16992188","-82.875","-78.03125","-31.40625"
"1537794226394","237","-0.625","0.4970703","0.09863281","-44.78125","-7.78125","-2.28125"
"1537794226591","238","-1.9931641","1.1474609","1.171875","22.71875","50.375","198.34375"
"1537794226592","239","-1.9931641","-0.54003906","-0.29003906","37.25","-47.15625","-44.03125"
"1537794226592","240","-1.9931641","-0.91503906","0.10058594","-146.71875","54.15625","12.90625"
"1537794226594","241","-1.6875","0.29882812","0.41503906","-48.9375","-57.90625","10.46875"
"1537794226594","242","-1.484375","-0.052734375","-0.12695312","-115.40625","-100.5","1.25"
"1537794226790","243","0.10253906","-0.24511719","0.022460938","-95.375","-2.84375","-26.375"
"1537794226790","244","1.2021484","1.0625","0.6269531","-10.3125","42.0625","-20.71875"
"1537794226790","245","0.1953125","0.58691406","0.024414062","44.3125","-5.65625","49.0625"
"1537794226791","246","-0.2919922","-0.35839844","-0.15722656","61.09375","72.71875","57.21875"
"1537794226791","247","-0.43066406","0.036132812","1.0253906","5.0625","129.125","6.625"
"1537794226990","248","-1.9931641","0.83984375","0.8125","17.40625","132.46875","94.84375"
"1537794226990","249","-1.9931641","0.875","-1.0966797","28.4375","-46.71875","-26.5625"
"1537794226991","250","-1.9931641","-0.67089844","0.9189453","137.40625","1.625","-13.1875"
"1537794226991","251","-1.4033203","0.4248047","0.09472656","24.84375","-66.25","-29.0625"
"1537794226991","252","-1.1230469","-0.16503906","-0.2939453","118.84375","-76.40625","-72.09375"
"1537794227188","253","-0.048828125","-0.41601562","0.3203125","109.3125","47.5","-106.15625"
"1537794227188","254","1.4833984","-0.037109375","0.29492188","-55.09375","11.3125","-8.75"
"1537794227189","255","0.11621094","-0.052734375","-0.103515625","-74.75","-103.625","-22.78125"
"1537794227189","256","-0.375","0.6308594","0.15429688","-47.90625","-1.0","-12.40625"
"1537794227190","257","-0.8847656","0.6748047","0.4345703","26.625","58.9375","15.3125"
"1537794227386","258","-1.9931641","-0.07128906","0.9589844","138.1875","-78.03125","154.71875"
"1537794227387","259","-1.9931641","-1.2539062","-0.62597656","-34.78125","-1.1875","-29.125"
"1537794227388","260","-1.6816406","-0.11230469","0.34765625","-134.03125","-0.78125","10.1875"
"1537794227389","261","-1.7392578","0.3388672","0.40429688","-80.5","-84.25","0.46875"
"1537794227389","262","-1.0605469","-0.0703125","-0.4267578","-94.28125","-79.03125","7.0"
"1537794227586","263","0.6142578","-0.3671875","0.47460938","-55.65625","59.0","-29.875"
"1537794227586","264","1.0302734","0.9267578","0.37109375","-8.09375","-9.8125","-2.875"
"1537794227588","265","-0.09765625","0.36816406","-0.15332031","8.0625","-0.21875","69.0625"
"1537794227588","266","-0.34960938","-0.12011719","0.16308594","17.34375","68.1875","59.78125"
"1537794227588","267","-0.4794922","0.5283203","0.6230469","9.40625","164.15625","17.25"
"1537794227984","268","-1.9931641","1.0214844","0.69433594","-76.53125","109.9375","211.84375"
"1537794227984","269","-1.9355469","0.08691406","-0.95410156","70.1875","-110.75","-58.375"
"1537794227985","270","-1.8544922","0.140625","0.7949219","99.4375","-28.0625","-29.6875"
"1537794227985","271","-1.5849609","0.17382812","-0.09667969","54.03125","-33.375","12.6875"
"1537794228182","272","-1.1152344","-0.16699219","-0.3623047","113.46875","-91.46875","-73.09375"
"1537794228182","273","0.09765625","-0.3232422","0.171875","60.75","7.84375","-78.625"
"1537794228184","274","1.5136719","0.009765625","0.28125","-31.125","9.90625","-24.1875"
"1537794228185","275","-0.026367188","-0.0068359375","-0.10546875","-65.65625","-70.09375","-34.125"
"1537794228185","276","-0.37890625","0.484375","0.12402344","-62.96875","13.5625","-10.28125"
"1537794228186","277","-1.9931641","1.3408203","1.8134766","51.875","-82.1875","166.96875"
"1537794228186","278","-1.9931641","-0.31445312","-0.8046875","-7.375","-57.46875","-65.6875"
"1537794228186","279","-1.9931641","-0.79296875","0.43652344","-179.75","97.4375","1.25"
"1537794228187","280","-1.5117188","0.37402344","0.3408203","-38.03125","-93.59375","-14.1875"
"1537794228380","281","0.4736328","-0.09863281","0.37304688","-44.25","85.78125","-20.21875"
"1537794228381","282","1.0244141","0.9238281","0.5644531","41.5","14.96875","-34.875"
"1537794228382","283","0.07128906","0.4345703","-0.041992188","60.625","8.3125","46.5625"
"1537794228383","284","-0.21679688","-0.31347656","-0.001953125","69.28125","95.1875","41.0"
"1537794228383","285","-0.5126953","0.051757812","0.5390625","-5.90625","159.21875","7.90625"
"1537794228581","286","-1.9931641","1.7314453","0.21582031","-19.9375","-47.28125","213.375"
"1537794228581","287","-1.9697266","-0.06738281","-0.38183594","78.125","-15.1875","-49.8125"
"1537794228581","288","-1.7421875","-0.10546875","0.66015625","100.90625","-47.9375","-31.75"
"1537794228582","289","-1.2939453","-0.078125","-0.15234375","40.15625","-40.1875","12.4375"
"1537794228582","290","-1.1904297","-0.24316406","-0.4765625","81.5625","-92.1875","-50.8125"
"1537794228777","291","0.11621094","-0.13769531","0.26464844","16.84375","24.1875","-60.5625"
"1537794228777","292","1.4833984","-0.041015625","0.08496094","-53.40625","-9.25","-24.90625"
"1537794228778","293","-0.06640625","-0.115234375","0.087890625","-71.65625","-55.34375","-56.15625"
"1537794228778","294","-0.3408203","0.4873047","0.27246094","-74.09375","-7.1875","-25.34375"
"1537794228779","295","-0.5361328","0.5283203","0.42089844","-18.125","43.125","-2.15625"
"1537794228975","296","-1.9931641","0.43652344","1.2675781","187.09375","-125.28125","169.71875"
"1537794228976","297","-1.9931641","-1.3017578","-0.63183594","-16.34375","-16.75","-45.5"
"1537794228976","298","-1.2158203","-0.22558594","0.46191406","-136.34375","29.875","12.375"
"1537794228977","299","-1.9931641","0.31445312","0.23242188","-61.21875","-84.875","3.59375"
"1537794228978","300","-1.4404297","-0.2548828","-0.30078125","-101.25","-84.09375","-7.84375"
"1537794229175","301","0.14160156","-0.20410156","0.22851562","-81.28125","76.3125","1.625"
"1537794229175","302","1.3476562","0.9453125","0.8222656","-29.59375","35.90625","-16.8125"
"1537794229177","303","0.11425781","0.82128906","-0.026367188","40.0","-31.15625","52.09375"
"1537794229177","304","-0.33203125","-0.29589844","0.0068359375","82.03125","71.375","51.8125"
"1537794229177","305","-0.75878906","-0.20800781","0.24707031","3.25","164.5625","13.90625"
"1537794229373","306","-1.9931641","1.4257812","1.1708984","-63.84375","-92.875","206.9375"
"1537794229373","307","-1.7607422","0.50097656","-0.7373047","58.25","-101.125","-75.15625"
"1537794229374","308","-1.9931641","-0.1640625","0.8144531","136.1875","-20.0","-17.34375"
"1537794229374","309","-1.5244141","-0.030273438","-0.27441406","52.4375","-48.5","13.46875"
"1537794229375","310","-1.0517578","-0.296875","-0.3486328","121.53125","-99.03125","-84.375"
"1537794229573","311","0.049804688","-0.3251953","0.12890625","43.78125","8.03125","-87.0"
"1537794229574","312","1.6386719","0.03515625","0.31933594","-74.09375","4.84375","-11.75"
"1537794229575","313","0.125","-0.06738281","-0.045898438","-86.0","-59.59375","-44.8125"
"1537794229575","314","-0.49316406","0.52441406","0.20019531","-72.6875","-3.03125","-27.375"
"1537794229575","315","-0.66015625","0.06933594","0.60253906","-8.96875","16.0625","-2.59375"
"1537794229771","316","-1.9931641","1.4414062","1.8730469","104.3125","-121.0625","194.9375"
"1537794229772","317","-1.9931641","-0.4111328","-0.75390625","80.03125","-82.0625","-75.40625"
"1537794229772","318","-1.9931641","-0.92871094","0.11816406","-154.03125","74.96875","26.21875"
"1537794229772","319","-1.6494141","-0.0078125","0.3828125","-33.25","-60.21875","-3.4375"
"1537794229773","320","-1.0537109","0.10644531","-0.15820312","-129.375","-124.84375","-8.4375"
"1537794229969","321","0.27539062","0.20703125","0.28027344","-35.21875","65.15625","-12.59375"
"1537794230169","322","1.1884766","0.9169922","0.4658203","63.71875","34.4375","-20.90625"
"1537794230170","323","0.16992188","0.27929688","-0.06542969","60.25","-8.75","39.46875"
"1537794230367","324","-0.33007812","-0.31152344","-0.01171875","62.15625","98.40625","33.625"
"1537794230567","325","-0.72558594","0.4501953","0.6142578","6.40625","178.75","12.84375"
"1537794230567","326","-1.9931641","0.97265625","0.6357422","-1.15625","-130.90625","162.59375"
"1537794230568","327","-1.7626953","0.16308594","-0.4951172","53.96875","-31.84375","-32.5625"
"1537794230569","328","-1.9355469","0.0068359375","0.57714844","87.78125","-22.3125","-20.78125"
"1537794230569","329","-1.4072266","-0.13574219","-0.025390625","34.4375","-54.78125","-6.625"
"1537794230569","330","-1.0546875","-0.20800781","-0.43652344","92.28125","-76.40625","-68.625"
"1537794230569","331","0.021484375","-0.20117188","0.21875","49.03125","34.875","-64.53125"
"1537794230570","332","1.5507812","0.10253906","0.17675781","-58.40625","6.5","-0.25"
"1537794230571","333","-0.66015625","0.25195312","0.51660156","-25.4375","35.25","4.3125"
"1537794230764","334","-1.5761719","-0.5439453","-0.25683594","-89.09375","-134.3125","-22.0625"
"1537794230963","335","-0.13378906","-0.12988281","-0.060546875","-80.3125","21.375","10.25"
"1537794230963","336","1.2841797","0.7753906","0.7421875","-34.96875","33.28125","-26.21875"
"1537794230964","337","0.375","0.74316406","0.034179688","17.46875","-41.90625","45.6875"
"1537794231165","338","-0.375","-0.032226562","-0.07324219","57.75","54.59375","61.4375"
"1537794231165","339","-0.38085938","0.030273438","0.75","46.46875","126.125","16.09375"
"1537794231166","340","-1.9462891","0.61621094","0.68066406","4.03125","159.25","79.15625"
"1537794231167","341","-1.9931641","0.8769531","-0.55078125","61.34375","62.90625","-13.875"
"1537794231167","342","-1.9931641","-0.3955078","0.7998047","90.53125","-18.03125","-9.65625"
"1537794231167","343","-1.7509766","0.20703125","-0.1015625","32.71875","-43.625","18.46875"
"1537794231167","344","-1.3330078","-0.13867188","-0.12695312","104.8125","-57.15625","-48.71875"
"1537794231167","345","-0.5576172","-0.29003906","-0.16113281","80.03125","-47.21875","-71.375"
"1537794231168","346","0.9814453","0.12890625","0.40820312","6.90625","8.03125","-53.0625"
"1537794231360","347","-0.5078125","0.52246094","0.036132812","-61.21875","5.21875","-9.71875"
"1537794231361","348","-1.2705078","1.1923828","0.92285156","10.5","113.5","42.03125"
"1537794231362","349","-1.9931641","-0.4267578","0.60058594","41.28125","-35.0625","15.3125"
"1537794231362","350","-1.9931641","-1.0273438","-0.095703125","-113.8125","32.8125","-8.0625"
"1537794231363","351","-1.9931641","-0.05859375","0.11328125","-37.90625","32.5","6.34375"
"1537794231560","352","-1.5371094","0.045898438","0.33398438","-53.6875","-105.0625","-35.40625"
"1537794231561","353","-0.6035156","0.013671875","-0.28027344","-106.0625","-97.625","8.59375"
"1537794231561","354","0.7236328","0.08496094","0.38183594","-23.71875","52.5625","-14.65625"
"1537794231563","355","0.7607422","0.6152344","0.30859375","21.6875","10.15625","14.09375"
"1537794231563","356","-0.14453125","0.31445312","-0.07324219","48.34375","31.6875","58.28125"
"1537794231759","357","-0.28320312","-0.1640625","-0.02734375","44.5625","86.6875","34.65625"
"1537794231760","358","-0.24414062","0.23046875","0.828125","23.375","145.03125","-10.9375"
"1537794231760","359","-1.9931641","0.4013672","1.4238281","-40.875","42.25","191.21875"
"1537794231761","360","-1.9541016","1.1054688","-1.5566406","29.6875","-59.1875","-35.90625"
"1537794231761","361","-1.9931641","-0.2705078","1.0869141","139.09375","-39.78125","-20.15625"
"1537794231958","362","-1.3144531","-0.16503906","0.0107421875","50.84375","-75.40625","-20.84375"
"1537794232355","363","-1.03125","-0.2783203","-0.32714844","61.40625","-75.78125","-53.125"
"1537794232356","364","-0.35546875","-0.28125","-0.015625","40.0","-16.5625","-61.125"
"1537794232356","365","1.0166016","0.35742188","0.31933594","-26.25","13.21875","-22.84375"
"1537794232356","366","0.6816406","-0.24121094","-0.059570312","-64.03125","-65.84375","-27.1875"
"1537794232356","367","-0.3232422","0.2734375","0.23144531","-57.1875","-22.0","-32.90625"
"1537794232357","368","-0.71191406","0.25878906","0.5576172","-56.25","55.1875","-1.59375"
"1537794232358","369","-1.9931641","1.1123047","0.9951172","39.25","-83.71875","181.8125"
"1537794232358","370","-1.9931641","-0.24316406","-0.4189453","13.6875","-0.21875","-55.25"
"1537794232359","371","-1.9882812","-0.4267578","0.5673828","-95.9375","49.875","8.53125"
"1537794232554","372","-1.8505859","0.2919922","0.31640625","-53.15625","-77.3125","-1.65625"
"1537794232556","373","-0.28125","0.009765625","-0.07324219","73.125","30.40625","50.40625"
"1537794232556","374","-0.3095703","-0.390625","0.19335938","43.46875","102.6875","17.375"
"1537794232556","375","-0.48828125","0.038085938","0.38085938","-29.28125","221.8125","1.5625"
"1537794232556","376","-1.9931641","1.921875","0.03125","82.28125","-50.09375","108.375"
"1537794232556","377","-1.7148438","-0.27441406","0.35058594","122.25","-21.09375","-58.375"
"1537794232752","378","-1.828125","0.005859375","0.3330078","54.34375","-58.3125","-14.4375"
"1537794232753","379","-1.2392578","-0.10253906","-0.13476562","81.4375","-91.21875","-35.78125"
"1537794232753","380","-0.90527344","-0.30371094","-0.3388672","84.71875","-82.0","-74.65625"
"1537794232753","381","0.3935547","0.09082031","0.21777344","17.46875","17.1875","-67.9375"
"1537794232754","382","1.3359375","-0.29785156","-0.08496094","-52.3125","-30.3125","-43.46875"
"1537794232951","383","-0.10644531","-0.17578125","0.35351562","-36.625","-67.46875","-61.3125"
"1537794232951","384","-0.5488281","0.48339844","0.125","-61.34375","-15.1875","-23.8125"
"1537794232953","385","-0.8378906","0.3671875","0.41210938","-23.0","80.59375","-7.21875"
"1537794232953","386","-1.9931641","1.015625","1.4550781","80.5","-29.5625","148.78125"
"1537794232953","387","-1.9931641","-0.6845703","-0.53515625","46.53125","-15.1875","-63.8125"
"1537794233150","388","-1.9931641","-0.43847656","0.18261719","-125.34375","63.0","10.78125"
"1537794233151","389","-1.5673828","0.15429688","0.15917969","13.5625","-69.90625","-29.9375"
"1537794233152","390","-1.28125","-0.049804688","-0.15429688","-77.3125","-86.21875","-9.1875"
"1537794233152","391","-0.095703125","-0.0625","-0.015625","-46.8125","-6.5625","-17.96875"
"1537794233152","392","1.09375","0.7548828","0.53125","-7.3125","34.5625","-13.3125"
"1537794233348","393","0.3154297","0.6767578","0.11230469","79.40625","-6.25","32.8125"
"1537794233349","394","-0.2919922","-0.08203125","0.109375","92.40625","68.09375","45.5"
"1537794233350","395","-0.4951172","0.45898438","0.63378906","61.40625","137.34375","19.21875"
"1537794233350","396","-1.9931641","1.2294922","0.29296875","24.3125","26.03125","181.0"
"1537794233351","397","-1.5664062","0.3486328","-0.9003906","187.4375","-51.1875","-61.0"
"1537794233547","398","-1.5263672","0.11816406","0.765625","158.03125","-38.125","-36.6875"
"1537794233548","399","-1.6962891","-0.05859375","-0.16113281","103.21875","-57.96875","6.375"
"1537794233549","400","-1.1972656","-0.27539062","-0.38085938","137.09375","-64.78125","-74.46875"
"1537794233550","401","-0.13183594","-0.09472656","0.07714844","104.9375","-30.6875","-84.3125"
"1537794233550","402","1.3769531","0.22460938","0.055664062","32.90625","-4.25","-10.15625"
"1537794233747","403","0.2783203","-0.515625","0.09472656","-30.4375","-49.46875","-42.5"
"1537794233944","404","-0.4404297","0.17382812","0.18652344","-69.09375","-6.4375","-34.1875"
"1537794234145","405","-0.9316406","0.90234375","0.38964844","-53.6875","103.125","16.53125"
"1537794234146","406","-1.9931641","0.515625","0.82714844","178.65625","-104.46875","119.90625"
"1537794234146","407","-1.9931641","-0.953125","-0.45410156","2.4375","-9.0","-51.53125"
"1537794234147","408","-1.6152344","-0.07128906","0.41210938","-73.34375","9.3125","18.09375"
"1537794234147","409","-1.8828125","0.3564453","0.26757812","-59.625","-69.8125","16.8125"
"1537794234147","410","-1.4003906","-0.041992188","-0.076171875","-40.53125","-114.65625","-21.625"
"1537794234148","411","0.043945312","-0.22558594","-0.024414062","-57.84375","14.90625","-20.84375"
"1537794234149","412","1.0058594","0.3408203","0.578125","-22.5","73.5","-28.59375"
"1537794234342","413","0.3330078","0.80078125","0.076171875","35.09375","5.875","42.8125"
"1537794234343","414","-1.7119141","-0.31933594","0.6123047","122.25","-13.65625","-44.40625"
"1537794234344","415","-1.9023438","-0.025390625","0.080078125","21.0","-25.375","33.0625"
"1537794234344","416","-1.4482422","-0.099609375","-0.23046875","51.53125","-45.625","-23.59375"
"1537794234344","417","-0.79785156","-0.10253906","-0.15625","49.875","-55.28125","-57.5"
"1537794234345","418","0.33984375","-0.041015625","0.13769531","24.78125","-25.84375","-51.78125"
"1537794234542","419","1.3974609","0.009765625","0.08691406","-29.03125","9.65625","-21.5625"
"1537794234542","420","0.043945312","0.12402344","0.103515625","-17.9375","-46.84375","-36.09375"
"1537794234543","421","-0.41015625","0.24902344","-0.11816406","-36.1875","10.03125","-7.46875"
"1537794234543","422","-1.2255859","0.4169922","0.7597656","-23.375","101.90625","15.375"
"1537794234544","423","-1.9931641","-0.11035156","0.7871094","42.25","-95.6875","77.3125"
"1537794234742","424","-1.9931641","-0.9248047","-0.16113281","-54.75","10.09375","-41.59375"
"1537794234742","425","-1.9931641","-0.27734375","0.23535156","-153.375","57.46875","12.4375"
"1537794234742","426","-1.6953125","0.018554688","0.4404297","-96.4375","-11.21875","-24.4375"
"1537794234742","427","-1.2011719","-0.05859375","9.765625E-4","-119.0625","-96.46875","-6.25"
"1537794234743","428","-0.10449219","-0.13867188","-0.068359375","-134.625","-10.40625","4.3125"
"1537794234940","429","0.9003906","0.79785156","0.59375","-39.40625","63.8125","-15.78125"
"1537794234940","430","0.5107422","0.8066406","0.203125","66.53125","18.40625","16.46875"
"1537794234941","431","-0.19726562","-0.10546875","-0.028320312","48.84375","59.84375","62.3125"
"1537794234941","432","-0.5761719","-0.34179688","0.48242188","-7.5625","141.25","30.5625"
"1537794234941","433","-1.9931641","0.18847656","0.68652344","-113.9375","124.53125","76.09375"
"1537794235137","434","-1.9931641","0.7294922","-1.0185547","31.875","-14.1875","-4.28125"
"1537794235139","435","-1.9931641","-0.47753906","0.8183594","105.65625","23.9375","-7.46875"
"1537794235139","436","-1.5830078","-0.30371094","0.049804688","-10.90625","-26.84375","17.0"
"1537794235139","437","-1.2871094","-0.28125","-0.1015625","-6.15625","-19.4375","-13.8125"
"1537794235335","438","-0.80566406","-0.14257812","-0.12011719","-23.71875","-27.8125","-38.03125"
"1537794235336","439","0.45507812","0.053710938","0.2109375","-52.1875","18.6875","-12.53125"
"1537794235337","440","1.359375","-0.15332031","0.043945312","-79.15625","-14.6875","-22.34375"
"1537794235338","441","-0.025390625","0.18261719","0.203125","-73.40625","-42.34375","-22.59375"
"1537794235338","442","-0.44140625","0.22949219","0.22070312","-89.40625","9.0625","6.21875"
"1537794235535","443","-1.8037109","0.71484375","1.2646484","-85.25","26.875","84.625"
"1537794235536","444","-1.9931641","-0.38183594","0.18554688","-85.9375","69.65625","9.875"
"1537794235536","445","-1.9931641","-0.8076172","0.32910156","-171.6875","20.09375","-4.0"
"1537794235537","446","-1.9931641","-0.0029296875","0.5488281","-113.6875","23.03125","34.40625"
"1537794235538","447","-1.3574219","-0.30273438","0.30566406","-116.1875","-76.8125","-3.8125"
"1537794235933","448","-0.6201172","-0.3701172","-0.27734375","-190.3125","-37.8125","31.28125"
"1537794235933","449","0.40820312","0.0078125","0.5361328","-139.40625","80.53125","4.6875"
"1537794235933","450","0.92285156","1.4326172","0.47265625","13.25","50.4375","20.84375"
"1537794235934","451","0.0625","0.43164062","-0.078125","49.09375","37.8125","75.40625"
"1537794235934","452","-0.296875","-0.43164062","0.22265625","45.78125","75.78125","51.625"
"1537794235935","453","-1.078125","-0.5361328","0.20703125","-50.09375","181.90625","2.84375"
"1537794236131","454","-1.9931641","0.66308594","0.4716797","-23.84375","59.28125","89.8125"
"1537794236131","455","-1.6416016","-0.17773438","-0.09863281","-95.6875","-6.75","-21.875"
"1537794236132","456","-1.9931641","-0.359375","0.4375","-34.84375","4.65625","44.40625"
"1537794236133","457","-1.3720703","0.021484375","-0.16601562","-29.96875","-39.40625","-20.09375"
"1537794236133","458","0.057617188","-0.140625","0.14355469","-13.90625","23.46875","-24.1875"
"1537794236330","459","1.3164062","0.11230469","0.08691406","-56.5625","22.53125","-0.9375"
"1537794236330","460","0.2529297","-0.14453125","-0.13378906","-74.34375","-36.71875","-50.4375"
"1537794236330","461","-0.328125","-0.2607422","-0.013671875","-99.34375","-0.46875","-61.46875"
"1537794236332","462","-0.5410156","-0.48242188","1.7675781","-99.0625","54.84375","-56.0625"
"1537794236332","463","-1.9931641","-0.18261719","1.1289062","-156.59375","-97.03125","172.65625"
"1537794236332","464","-1.9931641","-0.13867188","0.2939453","-68.34375","-44.03125","-144.3125"
"1537794236333","465","-1.4892578","-0.44335938","0.5917969","-262.3125","79.25","55.9375"
"1537794236334","466","-1.4873047","-0.115234375","0.48828125","-160.5625","-64.71875","0.65625"
"1537794236531","467","-0.8496094","-0.115234375","-0.22753906","-254.3125","-9.0625","-18.4375"
"1537794236531","468","0.35351562","0.3544922","0.52246094","-161.96875","84.5","-21.0625"
"1537794236531","469","0.98339844","1.1484375","0.16894531","9.34375","36.40625","-4.65625"
"1537794236531","470","0.1328125","0.33789062","0.3125","61.21875","63.875","69.0"
"1537794236531","471","-0.5019531","-0.21386719","0.32617188","50.84375","135.71875","38.3125"
"1537794236728","472","-1.9931641","-0.6826172","1.9052734","-87.75","110.0","-23.09375"
"1537794236728","473","-1.6552734","0.73339844","-0.20800781","38.40625","-38.0","-0.1875"
"1537794236728","474","-1.703125","-0.38671875","0.6123047","-82.5","-6.875","-20.84375"
"1537794236729","475","-1.9931641","-0.65234375","0.23925781","-56.9375","-9.5","27.3125"
"1537794236729","476","-1.6035156","-0.68066406","0.0703125","-127.625","14.71875","26.53125"
"1537794236927","477","-1.0527344","-0.6669922","0.087890625","-154.28125","-17.125","-3.6875"
"1537794236927","478","-0.31835938","-0.0068359375","0.41015625","-190.0625","16.3125","-22.25"
"1537794236928","479","0.60058594","0.7871094","0.15332031","-158.75","13.15625","-15.46875"
"1537794236928","480","0.58203125","0.22753906","0.13671875","-94.15625","-35.3125","16.71875"
"1537794236929","481","-0.11621094","-0.30566406","0.12890625","-133.28125","-45.75","32.9375"
"1537794237124","482","-0.49316406","-0.42382812","0.859375","-198.1875","7.46875","34.71875"
"1537794237124","483","-1.9931641","0.6230469","1.3955078","-264.21875","-110.4375","113.8125"
"1537794237126","484","-1.9931641","0.8408203","0.421875","-88.96875","37.375","19.75"
"1537794237323","485","-1.9521484","-0.8173828","0.5683594","-125.71875","44.9375","7.96875"
"1537794237323","486","-1.9375","-0.9824219","0.8642578","-86.71875","33.90625","69.3125"
"1537794237324","487","-1.2880859","0.171875","0.22753906","-147.15625","-111.4375","74.625"
"1537794237326","488","-0.96191406","9.765625E-4","0.38183594","-131.46875","-51.3125","32.5625"
"1537794237326","489","-0.20703125","0.4580078","0.265625","-32.03125","-9.1875","39.78125"
"1537794237326","490","0.33007812","0.3623047","-0.0146484375","16.5","58.9375","54.65625"
"1537794237327","491","0.13769531","-0.013671875","0.09863281","45.96875","81.9375","50.34375"
"1537794237524","492","-0.28808594","-0.34472656","0.08496094","19.65625","178.1875","27.5"
"1537794237525","493","-1.9931641","0.5654297","1.0107422","-158.625","76.3125","170.625"
"1537794237721","494","-1.6640625","0.41308594","-0.119140625","-162.71875","-12.375","20.5"
"1537794237722","495","-1.4003906","0.3876953","0.6972656","-102.84375","3.75","-52.6875"
"1537794237722","496","-1.9931641","0.78222656","0.11621094","-54.8125","-28.78125","24.40625"
"1537794237723","497","-1.6162109","0.46777344","-0.037109375","63.78125","-62.40625","-25.46875"
"1537794237723","498","-0.18261719","-0.13085938","-0.10546875","92.21875","-88.34375","-76.625"
"1537794237723","499","1.0019531","-0.12402344","0.37597656","0.125","-48.5","-80.9375"
"1537794237725","500","-0.16503906","0.18066406","-0.27441406","-63.65625","-66.375","-43.90625"
"1537794237725","501","-0.37402344","0.034179688","0.2705078","-60.84375","23.71875","-28.9375"
"1537794237921","502","-1.0761719","1.0488281","0.7783203","29.5","61.4375","16.28125"
"1537794237921","503","-1.9931641","0.66503906","0.7158203","85.03125","-12.625","88.65625"
"1537794237921","504","-1.9931641","-0.78808594","0.21777344","-35.40625","-14.25","-114.9375"
"1537794237922","505","-1.4433594","-0.6904297","0.5175781","-108.5625","-58.03125","-36.625"
"1537794237922","506","-1.4150391","0.4169922","0.4248047","-195.4375","-74.875","47.90625"
"1537794238118","507","0.0048828125","0.2109375","0.1796875","-100.21875","-22.6875","-26.25"
"1537794238119","508","0.19921875","0.6152344","0.4970703","-37.28125","-60.28125","-17.96875"
"1537794238318","509","-0.15722656","0.6699219","-0.13378906","46.03125","22.78125","34.53125"
"1537794238318","510","0.076171875","-0.44628906","0.060546875","41.5","128.375","49.71875"
"1537794238516","511","0.11230469","-0.4453125","1.2802734","87.09375","156.65625","-39.15625"
"1537794238517","512","-1.9931641","1.8203125","0.41992188","-54.375","245.9375","211.71875"
"1537794238517","513","-1.9189453","0.51953125","0.22363281","22.09375","15.71875","-49.03125"
"1537794238518","514","-1.3056641","0.5576172","0.71875","68.0","-34.34375","-61.53125"
"1537794238518","515","-1.7666016","0.53222656","0.20996094","67.5","-70.59375","-40.1875"
"1537794238519","516","-1.5449219","-0.12988281","-0.11816406","123.78125","-40.875","-56.71875"
"1537794238520","517","-0.055664062","0.044921875","0.048828125","131.0","-40.375","-85.34375"
"1537794238521","518","1.7402344","-0.5859375","0.19921875","32.71875","16.3125","-69.65625"
"1537794238521","519","-0.09667969","-0.057617188","-0.15234375","-46.5625","-96.59375","-42.8125"
"1537794238715","520","-0.4501953","0.4345703","-0.0546875","-36.90625","11.9375","-19.25"
"1537794238715","521","-1.6240234","0.9667969","0.8613281","103.46875","-74.0","63.09375"
"1537794238717","522","-1.9931641","-0.546875","0.53125","2.28125","60.625","-19.4375"
"1537794238717","523","-1.9072266","-0.06347656","-0.03125","-58.40625","-12.3125","-10.34375"
"1537794238718","524","-1.9931641","-0.06640625","0.484375","-145.3125","-15.0625","-7.65625"
"1537794238718","525","-1.0058594","0.25390625","0.3984375","-124.0","-83.78125","8.84375"
"1537794238914","526","0.19335938","0.1953125","-0.17871094","-153.125","-66.375","11.28125"
"1537794238914","527","0.31347656","0.8222656","0.5361328","-4.15625","-2.0","9.125"
"1537794238915","528","0.03125","0.39257812","0.13183594","52.75","34.09375","46.96875"
"1537794238916","529","-0.2734375","-0.30078125","-0.060546875","45.40625","137.53125","25.3125"
"1537794238916","530","-0.12597656","0.29785156","0.67089844","77.40625","160.90625","-28.46875"
"1537794239113","531","-1.9462891","1.3369141","0.5888672","4.71875","30.78125","86.90625"
"1537794239113","532","-1.9931641","1.0888672","-0.5439453","-16.78125","-79.3125","-14.65625"
"1537794239113","533","-1.8320312","0.0107421875","0.9638672","144.34375","7.03125","-51.15625"
"1537794239113","534","-1.3691406","0.17773438","0.17871094","89.375","-47.40625","-62.21875"
"1537794239114","535","-1.1630859","-0.026367188","-0.22851562","111.53125","-62.90625","-50.1875"
"1537794239312","536","-0.036132812","-0.13183594","0.2109375","111.40625","-15.59375","-65.03125"
"1537794239313","537","1.1806641","-0.0068359375","0.1484375","35.90625","40.78125","-42.1875"
"1537794239313","538","0.09277344","-0.029296875","-0.068359375","8.625","-72.71875","-35.1875"
"1537794239313","539","-0.37304688","0.19433594","0.025390625","-14.6875","-1.5","-3.875"
"1537794239314","540","-0.31835938","-0.13867188","0.6015625","-12.875","9.71875","-18.09375"
"1537794239509","541","-1.3886719","1.1230469","0.43945312","-22.75","45.25","62.65625"
"1537794239510","542","-1.9931641","0.10546875","0.6191406","-5.0","-23.53125","102.46875"
"1537794239511","543","-1.9931641","-0.7578125","0.29785156","-27.875","64.46875","-65.03125"
"1537794239511","544","-1.4794922","-0.09863281","0.3251953","-174.78125","-85.78125","-23.46875"
"1537794239512","545","-1.6572266","0.01171875","-0.17480469","-156.59375","-106.375","41.5"
"1537794239709","546","-0.029296875","-0.08886719","0.3466797","-141.46875","77.46875","8.28125"
"1537794239710","547","0.8388672","0.85839844","0.74316406","-11.59375","39.625","-26.625"
"1537794239710","548","0.14355469","0.46875","-0.048828125","36.3125","-6.9375","43.0625"
"1537794239710","549","-0.21875","-0.2939453","0.056640625","69.15625","53.625","59.6875"
"1537794239712","550","-0.14160156","0.030273438","0.703125","27.15625","100.96875","13.40625"
"1537794239907","551","-0.51171875","0.66503906","0.4140625","87.84375","99.9375","25.875"
"1537794239908","552","-1.9931641","1.1416016","-0.33789062","52.1875","-76.5","147.875"
"1537794239909","553","-1.9931641","-0.43554688","0.3017578","145.75","-40.125","-42.75"
"1537794239909","554","-1.3613281","0.36816406","0.24511719","6.125","-36.46875","-40.90625"
"1537794239909","555","-1.4423828","0.026367188","-0.18652344","101.875","-75.65625","-26.875"
"1537794240108","556","-0.3251953","-0.25097656","-0.06347656","85.34375","-41.65625","-61.40625"
"1537794240108","557","0.8798828","0.026367188","0.28808594","11.375","27.5625","-54.53125"
"1537794240108","558","0.6308594","-0.016601562","0.11816406","-14.34375","-83.71875","-33.90625"
"1537794240108","559","-1.6201172","2.0058594","0.81152344","-32.28125","-12.5625","4.5625"
"1537794240306","560","-0.6425781","0.059570312","0.4736328","16.84375","24.4375","-8.875"
"1537794240306","561","-1.6386719","0.6230469","0.22265625","8.5","16.9375","41.3125"
"1537794240307","562","-1.9931641","0.06738281","0.42773438","13.0625","-29.40625","-12.09375"
"1537794240307","563","-1.6894531","-1.2109375","-0.11621094","-116.8125","-33.96875","-62.875"
"1537794240307","564","-1.7216797","0.47851562","0.38867188","-166.0625","-67.90625","-32.96875"
"1537794240504","565","-1.0439453","-0.053710938","-0.11328125","-111.6875","-119.3125","120.09375"
"1537794240504","566","0.22753906","-0.5058594","0.44726562","-60.28125","66.375","117.28125"
"1537794240504","567","0.9589844","0.6035156","0.47265625","-69.9375","18.8125","39.59375"
"1537794240505","568","-0.21582031","0.26660156","0.14550781","-28.0","-13.28125","2.3125"
"1537794240506","569","-0.42578125","0.10449219","0.078125","13.125","17.25","38.96875"
"1537794240704","570","-0.24414062","0.53125","0.6328125","16.65625","98.34375","-4.09375"
"1537794240705","571","-1.4248047","0.67578125","0.5605469","131.0","124.0625","-95.78125"
"1537794240705","572","-1.9931641","0.31054688","0.33203125","34.6875","-12.84375","-1.46875"
"1537794240705","573","-1.9931641","-0.31933594","0.14257812","103.46875","-52.65625","12.0"
"1537794240705","574","-0.9013672","-0.22753906","0.31835938","86.375","-20.65625","-70.8125"
"1537794240901","575","-1.0214844","-0.043945312","0.11816406","59.59375","-77.78125","-36.28125"
"1537794240901","576","-0.7128906","-0.09472656","-0.08984375","78.4375","-91.53125","28.0"
"1537794240902","577","0.48242188","0.45898438","0.28125","37.3125","50.75","38.5"
"1537794240903","578","0.453125","-0.01171875","-0.022460938","16.0","-3.6875","-32.625"
"1537794240903","579","-0.08105469","0.08203125","-0.1328125","-6.65625","6.90625","-14.3125"
"1537794241100","580","-1.1923828","0.69140625","0.5957031","-40.15625","108.65625","16.75"
"1537794241100","581","-1.9931641","-0.021484375","0.8808594","39.5625","-37.28125","107.46875"
"1537794241101","582","-1.9931641","-0.40429688","0.25097656","-68.59375","61.84375","-15.15625"
"1537794241101","583","-1.6621094","0.38085938","0.19433594","-125.0","-65.15625","-59.09375"
"1537794241101","584","-1.5175781","0.4345703","0.14257812","-54.125","-142.8125","20.90625"
"1537794241300","585","-1.1611328","-0.05859375","-0.080078125","-60.84375","-67.59375","47.40625"
"1537794241301","586","0.2548828","-0.20117188","0.18066406","-84.15625","37.5","1.875"
"1537794241301","587","0.6152344","0.7001953","0.5673828","-19.09375","18.75","-15.40625"
"1537794241301","588","0.032226562","0.5078125","-0.17773438","60.3125","2.71875","31.40625"
"1537794241301","589","-0.018554688","-0.15820312","0.16894531","85.15625","73.8125","26.40625"
"1537794241498","590","-0.32226562","-0.020507812","0.3232422","38.21875","75.78125","-7.65625"
"1537794241498","591","-1.9931641","1.5419922","0.18261719","-49.375","184.15625","213.3125"
"1537794241498","592","-1.9931641","0.38085938","-0.31640625","65.6875","-85.4375","-57.03125"
"1537794241498","593","-1.5244141","0.265625","0.55859375","70.375","-43.6875","-52.625"
"1537794241499","594","-1.4658203","0.11230469","0.19335938","56.59375","-90.90625","-24.8125"
"1537794241696","595","-1.4160156","-0.10058594","-0.17382812","76.3125","-78.46875","-46.15625"
"1537794241696","596","-0.30371094","-0.12402344","0.028320312","96.625","-3.9375","-71.1875"
"1537794241698","597","1.2314453","-0.032226562","0.051757812","4.65625","4.1875","-49.34375"
"1537794241698","598","0.16796875","-0.2705078","0.18359375","-41.625","-71.625","-59.59375"
"1537794241698","599","-0.29492188","0.3359375","0.4326172","-79.53125","-29.8125","-36.09375"
"1537794242094","600","-1.2382812","1.6767578","0.48242188","-21.90625","91.46875","40.9375"
"1537794242292","601","-1.9931641","0.11816406","0.66796875","70.875","-33.59375","67.125"
"1537794242292","602","-1.9931641","-0.14257812","0.21972656","-15.8125","83.75","-29.4375"
"1537794242293","603","-1.9648438","0.10546875","0.1015625","-31.65625","-26.21875","3.21875"
"1537794242293","604","-1.9931641","-0.42578125","0.16894531","-81.40625","-129.25","21.46875"
"1537794242294","605","-0.70410156","0.11425781","0.3232422","-90.25","15.71875","4.1875"
"1537794242295","606","0.061523438","0.31835938","0.265625","-73.59375","26.75","-11.5625"
"1537794242295","607","0.51171875","0.90527344","0.14257812","43.40625","38.53125","-17.15625"
"1537794242297","608","0.359375","0.41503906","0.2421875","96.625","59.21875","17.8125"
"1537794242492","609","-0.17285156","0.24804688","0.18554688","44.125","103.34375","-52.9375"
"1537794242492","610","-1.5224609","0.28808594","-0.21679688","109.4375","-68.09375","-69.34375"
"1537794242492","611","-0.81640625","0.296875","-0.265625","125.875","-87.1875","-78.28125"
"1537794242492","612","-0.09082031","-0.36132812","-0.0546875","129.9375","-76.09375","-96.09375"
"1537794242493","613","0.7626953","-0.33398438","0.18945312","-18.375","-68.8125","-91.875"
"1537794242493","614","0.14160156","0.12109375","0.23339844","-123.90625","-62.0","-57.03125"
"1537794242690","615","0.0087890625","0.4873047","0.17285156","-43.375","-45.75","-36.21875"
"1537794242691","616","-0.7402344","1.6572266","0.68066406","67.34375","50.75","-7.59375"
"1537794242691","617","-1.9931641","0.68066406","0.85253906","178.78125","-51.125","173.9375"
"1537794242692","618","-1.9931641","-1.0507812","0.15136719","101.21875","1.25","-80.21875"
"1537794242692","619","-1.9931641","0.25195312","-0.27539062","37.65625","-49.71875","-16.125"
"1537794242888","620","-1.9931641","0.043945312","-0.044921875","6.71875","-69.8125","-32.625"
"1537794242889","621","-1.0996094","-0.29589844","0.038085938","9.59375","-77.5625","-72.90625"
"1537794242889","622","-0.3046875","0.16992188","0.0859375","-43.15625","-117.21875","-56.0625"
"1537794242889","623","0.20410156","0.5673828","0.39746094","-30.9375","-46.4375","1.5625"
"1537794242890","624","0.095703125","0.7871094","0.16796875","38.28125","17.0","34.71875"
"1537794243087","625","-0.044921875","0.07714844","0.099609375","94.0625","99.34375","35.6875"
"1537794243088","626","-0.20410156","0.375","0.66503906","142.09375","133.09375","-26.5"
"1537794243090","627","-1.9931641","0.66503906","0.3330078","14.71875","98.84375","145.3125"
"1537794243091","628","-1.8632812","0.45703125","-0.25195312","110.3125","-39.40625","-51.65625"
"1537794243091","629","-1.3378906","0.6513672","0.578125","137.9375","-2.28125","-27.90625"
"1537794243286","630","-1.5429688","0.3544922","0.15917969","180.71875","-50.21875","-24.4375"
"1537794243288","631","-1.5361328","-0.23046875","-0.0546875","199.59375","-42.46875","-45.4375"
"1537794243288","632","-0.49902344","0.09472656","0.053710938","152.65625","-30.5625","-23.40625"
"1537794243288","633","0.68066406","-0.3779297","0.27539062","106.875","-23.28125","-12.96875"
"1537794243289","634","0.58496094","-0.125","-0.15625","23.5","-58.3125","-35.25"
"1537794243485","635","-0.3125","-0.24804688","0.059570312","4.40625","-8.875","-41.78125"
"1537794243486","636","-1.0771484","0.82714844","0.65625","-9.8125","66.125","-32.375"
"1537794243486","637","-1.9931641","0.50390625","0.5517578","42.96875","-42.15625","95.5"
"1537794243487","638","-1.9931641","0.078125","0.0390625","-19.78125","9.78125","-39.21875"
"1537794243487","639","-1.9931641","0.3359375","0.16503906","-62.0","-10.90625","-18.28125"
"1537794243684","640","-1.8085938","-0.22753906","0.5136719","-80.5","-52.46875","-23.59375"
"1537794243684","641","-1.1181641","-0.0029296875","0.0703125","-126.15625","-67.96875","-7.71875"
"1537794243684","642","0.17578125","0.17089844","0.12890625","-142.25","57.875","-5.5625"
"1537794243685","643","0.7421875","0.94140625","0.5683594","-14.46875","29.4375","-24.125"
"1537794243685","644","0.18261719","0.40527344","-0.036132812","26.3125","13.28125","50.40625"
"1537794243884","645","-0.25878906","-0.3642578","0.1171875","44.625","37.5","59.25"
"1537794243885","646","-0.20605469","0.30566406","0.6904297","1.09375","88.78125","-15.09375"
"1537794243885","647","-0.7373047","0.7578125","0.56152344","30.15625","44.28125","13.34375"
"1537794243885","648","-1.9931641","0.9375","0.0","-36.25","19.9375","66.15625"
"1537794243886","649","-1.9931641","-0.015625","0.42285156","71.40625","0.875","-34.1875"
"1537794244081","650","-1.6083984","0.5800781","0.22070312","-49.1875","-4.84375","-44.6875"
"1537794244280","651","-1.640625","0.12988281","0.076171875","79.0625","-31.21875","-82.125"
"1537794244677","652","-0.6142578","0.12011719","0.08886719","47.375","58.375","-90.0"
"1537794244678","653","0.79296875","-0.022460938","0.11816406","42.3125","42.875","-70.21875"
"1537794244678","654","0.5449219","-0.1015625","-0.17480469","21.75","-57.09375","-52.4375"
"1537794244678","655","-0.22167969","0.05078125","0.15625","5.625","-7.96875","-45.96875"
"1537794244679","656","-0.30664062","0.19140625","-0.017578125","34.6875","-32.8125","-28.03125"
"1537794244680","657","-0.49902344","-0.4892578","0.66503906","44.25","-6.1875","-40.1875"
"1537794244681","658","-1.9931641","2.0058594","1.2128906","173.40625","30.84375","130.84375"
"1537794244681","659","-1.9931641","-0.026367188","-0.4501953","55.96875","-82.4375","-55.125"
"1537794244682","660","-1.9931641","-1.8876953","0.07421875","-146.21875","112.03125","15.0"
"1537794244875","661","-1.9931641","-0.265625","0.7685547","120.75","42.375","-8.0625"
"1537794244876","662","-1.3232422","-0.17578125","0.14160156","64.53125","-25.625","-31.28125"
"1537794244877","663","-1.0585938","-0.29003906","-0.140625","73.6875","-47.8125","-37.625"
"1537794244877","664","-0.51660156","-0.0078125","-0.06738281","34.0625","-3.09375","-72.03125"
"1537794244878","665","0.9511719","-0.021484375","0.08886719","-18.375","11.625","-21.125"
"1537794245076","666","0.6894531","-0.013671875","0.19335938","-47.84375","-35.25","-17.09375"
"1537794245076","667","-0.24902344","0.47070312","0.05859375","-23.6875","-31.78125","-25.65625"
"1537794245077","668","-0.5908203","1.1523438","0.9033203","30.84375","41.71875","-0.4375"
"1537794245077","669","-1.9931641","-0.25976562","0.3330078","93.28125","-98.59375","146.28125"
"1537794245077","670","-1.9931641","-1.0146484","-0.16113281","-97.9375","25.0625","-55.3125"
"1537794245274","671","-1.9394531","0.21289062","0.31640625","-57.59375","-24.8125","55.09375"
"1537794245275","672","-1.7177734","0.08886719","0.49804688","-102.46875","-55.34375","2.65625"
"1537794245276","673","-1.4833984","-0.1328125","-0.19726562","-103.9375","-109.96875","38.5"
"1537794245276","674","-0.049804688","-0.22851562","0.12402344","-104.1875","31.875","2.1875"
"1537794245473","675","0.84765625","0.87109375","0.57714844","-52.0625","56.53125","-12.65625"
"1537794245473","676","0.2890625","0.8105469","-0.051757812","47.96875","0.75","46.125"
"1537794245473","677","-0.123046875","-0.2685547","-0.06738281","69.84375","46.65625","49.40625"
"1537794245473","678","-0.31152344","0.083984375","0.42773438","38.53125","114.21875","-24.0"
"1537794245474","679","-1.9931641","1.0761719","-0.36328125","-47.125","180.9375","122.65625"
"1537794245671","680","-1.8203125","0.734375","-0.3486328","27.28125","72.28125","-66.125"
"1537794245671","681","-1.9931641","-0.041992188","0.5126953","127.5","-25.1875","-21.3125"
"1537794245672","682","-1.7021484","0.32421875","0.047851562","47.96875","-31.53125","4.1875"
"1537794245673","683","-1.421875","-0.07910156","-0.25195312","118.65625","-40.6875","-43.96875"
"1537794245673","684","-0.41601562","-0.15332031","-0.017578125","122.5","-7.1875","-62.75"
"1537794246069","685","0.7763672","0.19726562","0.37402344","41.5","15.28125","-51.65625"
"1537794246070","686","1.0400391","-0.375","0.072265625","-13.84375","-64.1875","-31.09375"
"1537794246070","687","-0.23925781","0.13769531","0.045898438","-22.75","-51.90625","-28.875"
"1537794246071","688","-0.6015625","-0.045898438","0.6328125","-27.875","-1.9375","0.96875"
"1537794246071","689","-1.9169922","0.953125","0.75878906","-44.0625","0.625","147.8125"
"1537794246071","690","-1.9931641","-0.2421875","0.076171875","-51.125","-10.15625","-22.65625"
"1537794246072","691","-1.9931641","-0.3359375","0.22851562","-146.0625","52.03125","9.5"
"1537794246073","692","-1.5566406","0.13574219","0.76660156","-115.28125","-3.03125","-6.84375"
"1537794246073","693","-1.4755859","-0.1015625","0.16699219","-115.15625","-124.5","2.125"
"1537794246269","694","0.68359375","0.58984375","0.5957031","-69.875","33.03125","11.9375"
"1537794246270","695","0.4580078","0.8535156","0.12011719","39.875","-4.25","26.03125"
"1537794246270","696","-0.115234375","-0.0146484375","-0.08300781","42.71875","30.84375","65.09375"
"1537794246271","697","-0.33398438","-0.076171875","0.64941406","16.90625","86.9375","21.53125"
"1537794246271","698","-1.1279297","0.28027344","0.38671875","1.28125","95.90625","18.09375"
"1537794246466","699","-1.9931641","1.0546875","0.087890625","3.375","22.5","38.5"
"1537794246667","700","-1.9931641","0.041992188","0.578125","112.75","-13.59375","-22.53125"
"1537794246668","701","-1.6152344","0.31152344","0.21386719","21.375","-34.875","-5.03125"
"1537794246668","702","-1.5917969","-0.18359375","-0.06542969","83.8125","-69.5625","-24.90625"
"1537794246668","703","-0.67871094","-0.13671875","-0.059570312","54.6875","-34.34375","-61.84375"
"1537794246669","704","0.44628906","0.06640625","0.11328125","20.6875","-13.46875","-47.625"
"1537794246670","705","1.1611328","-0.24414062","0.14257812","-18.71875","-32.4375","-37.3125"
"1537794246670","706","-0.10839844","0.125","-0.0078125","-31.84375","-49.0625","-34.4375"
"1537794246670","707","-0.5488281","0.005859375","0.18847656","-44.78125","9.78125","-6.125"
"1537794246670","708","-1.7480469","1.0478516","0.7607422","-21.40625","55.6875","78.84375"
"1537794246864","709","-1.9931641","-0.123046875","0.53222656","7.03125","15.28125","31.71875"
"1537794246864","710","-1.9931641","-0.63964844","0.0390625","-87.34375","2.03125","-11.375"
"1537794246865","711","-1.5566406","-0.0029296875","0.4892578","-75.78125","-63.8125","-16.5"
"1537794246866","712","-1.5214844","-0.015625","0.21191406","-126.46875","-129.0","12.375"
"1537794246866","713","-0.7236328","0.020507812","-0.07910156","-92.28125","8.21875","5.09375"
"1537794247065","714","0.5419922","0.19042969","0.5888672","-73.90625","70.21875","-4.0625"
"1537794247065","715","0.7314453","0.91503906","0.18847656","2.5625","8.25","14.5625"
"1537794247066","716","0.0390625","0.16308594","-0.013671875","38.65625","1.90625","59.71875"
"1537794247066","717","-0.3154297","-0.13574219","0.37597656","37.125","54.71875","44.53125"
"1537794247067","718","-0.9140625","0.01953125","0.81933594","60.9375","109.34375","-5.09375"
"1537794247460","719","-1.9931641","1.3759766","0.203125","43.34375","30.59375","158.0625"
"1537794247460","720","-1.9931641","0.046875","0.3203125","167.0","-59.125","-44.625"
"1537794247460","721","-1.546875","0.31445312","0.24609375","43.53125","-30.75","-17.09375"
"1537794247462","722","-1.6230469","-0.15136719","0.053710938","125.75","-63.09375","-36.40625"
"1537794247462","723","-0.8251953","-0.2421875","-0.203125","106.28125","-30.5","-64.34375"
"1537794247463","724","0.2548828","-0.14355469","0.18945312","51.875","-0.71875","-64.90625"
"1537794247463","725","1.2509766","-0.06542969","0.20117188","-8.59375","1.5625","-30.53125"
"1537794247464","726","-0.0390625","0.15136719","-0.04296875","7.03125","-64.3125","-35.96875"
"1537794247659","727","-0.69921875","0.00390625","0.29882812","-2.8125","-1.5625","-1.71875"
"1537794247660","728","-1.9931641","-0.2890625","0.45703125","24.84375","-62.71875","-9.28125"
"1537794247661","729","-1.9931641","-0.3095703","0.25585938","-112.0625","45.0","-13.4375"
"1537794247661","730","-1.5947266","0.20019531","0.33007812","-78.71875","-37.15625","8.84375"
"1537794247661","731","-1.7128906","0.015625","0.28222656","-86.1875","-90.75","-11.25"
"1537794247661","732","-0.76171875","-0.07519531","-0.17773438","-99.28125","-44.65625","6.03125"
"1537794247857","733","0.38867188","-0.04296875","0.23632812","-77.6875","60.5","-6.5625"
"1537794247861","734","0.72558594","0.89453125","0.36035156","-1.5625","36.34375","-24.0625"
"1537794247861","735","0.033203125","0.4716797","-0.036132812","41.5","32.8125","25.1875"
"1537794247861","736","-0.42871094","0.24414062","0.65625","80.6875","112.5","17.25"
"1537794247861","737","-1.9931641","0.044921875","0.40820312","1.71875","228.53125","48.125"
"1537794248056","738","-1.6523438","0.27539062","-0.24121094","72.28125","40.625","-50.0625"
"1537794248057","739","-1.6201172","0.095703125","0.64160156","106.09375","-14.0625","-36.09375"
"1537794248057","740","-1.4345703","0.032226562","0.05078125","14.84375","-19.125","19.375"
"1537794248058","741","-1.515625","-0.25976562","-0.1953125","50.125","-43.6875","-30.78125"
"1537794248058","742","-0.5703125","-0.20898438","-0.07519531","41.4375","-44.90625","-101.75"
"1537794248256","743","0.19628906","-0.061523438","-0.032226562","-7.25","-1.5","-58.96875"
"1537794248256","744","0.9609375","-0.017578125","0.15039062","-25.5","1.71875","-17.0"
"1537794248256","745","-0.032226562","0.083984375","0.16796875","-74.75","-30.0625","-6.1875"
"1537794248257","746","-0.69921875","-0.01171875","0.7753906","-73.40625","30.90625","2.0625"
"1537794248259","747","-1.9931641","1.0205078","0.7080078","-74.625","74.3125","169.46875"
"1537794248455","748","-1.9931641","0.0068359375","0.08691406","-21.15625","29.125","-24.625"
"1537794248455","749","-1.7011719","-0.013671875","0.061523438","-135.5","-12.3125","9.875"
"1537794248456","750","-1.1923828","0.061523438","-0.043945312","-40.59375","-43.0625","18.21875"
"1537794248456","751","-0.93359375","-0.4873047","-0.0078125","-59.4375","-8.65625","16.59375"
"1537794248457","752","-0.39746094","0.034179688","0.16015625","-21.96875","70.09375","-11.8125"
"1537794248653","753","0.5566406","0.09375","0.2626953","-8.34375","57.75","-55.8125"
"1537794248654","754","0.6464844","0.44433594","0.5488281","20.28125","26.40625","-14.3125"
"1537794248654","755","-0.35058594","1.1757812","0.31152344","9.53125","37.875","59.96875"
"1537794248654","756","-1.9931641","1.4277344","2.0888672","57.9375","-50.34375","204.625"
"1537794248655","757","-1.3916016","-0.19140625","0.13476562","86.96875","-0.59375","-65.625"
"1537794248851","758","-1.3955078","-0.140625","0.8935547","-56.375","-76.6875","-66.78125"
"1537794248852","759","-1.8535156","-0.23046875","0.24121094","-122.25","-31.90625","91.21875"
"1537794248852","760","-1.390625","-0.119140625","-0.078125","-154.28125","-17.3125","3.8125"
"1537794248852","761","-0.5605469","-0.20507812","0.17578125","-196.9375","-40.3125","-6.5"
"1537794248854","762","0.25195312","-0.2109375","0.10058594","-193.84375","-35.3125","3.65625"
"1537794249050","763","0.8466797","-0.484375","0.19433594","-253.59375","9.59375","22.25"
"1537794249050","764","0.05078125","-0.3642578","0.609375","-312.0625","-6.8125","19.15625"
"1537794249051","765","-0.49023438","0.36621094","0.83496094","-264.15625","57.09375","10.65625"
"1537794249051","766","-1.9931641","0.85546875","1.5097656","-147.6875","-46.90625","147.1875"
"1537794249052","767","-1.4648438","-0.63378906","0.43554688","-102.71875","-3.40625","-4.40625"
"1537794249448","768","-1.2353516","-0.9238281","0.3564453","-214.84375","-17.84375","-16.8125"
"1537794249449","769","-1.1074219","-0.39941406","0.69140625","-201.59375","-34.09375","35.5625"
"1537794249450","770","-0.9003906","-0.38378906","0.66308594","-268.71875","21.15625","42.65625"
"1537794249451","771","-0.62597656","-0.0107421875","0.52734375","-235.65625","-23.78125","8.21875"
"1537794249451","772","-0.72753906","-0.055664062","0.4189453","-174.625","-25.0625","20.0"
"1537794249451","773","-0.6826172","-0.07128906","0.33496094","-164.65625","14.4375","54.1875"
"1537794249451","774","-0.8955078","-0.041015625","0.22460938","-136.96875","8.5625","54.25"
"1537794249452","775","-0.9628906","-0.00390625","0.22363281","-105.53125","9.5","40.8125"
"1537794249646","776","-0.71972656","-0.051757812","0.16601562","-67.3125","16.375","41.90625"
"1537794249646","777","-0.9169922","-0.5419922","0.028320312","-24.84375","22.90625","80.65625"
"1537794249648","778","-1.0263672","-0.74121094","0.15429688","-37.15625","34.25","80.25"
"1537794249648","779","-1.0058594","-0.6640625","0.1171875","-64.25","-5.40625","75.78125"
"1537794249648","780","-0.8125","-0.49609375","0.03515625","-79.34375","-79.625","80.71875"
"1537794249649","781","-0.33789062","-0.06933594","0.5605469","-113.8125","-9.3125","30.1875"
"1537794249845","782","-0.46972656","0.76660156","0.73046875","-120.84375","-36.65625","-12.96875"
"1537794249845","783","-1.9013672","1.140625","0.43554688","-91.375","15.78125","77.75"
"1537794249845","784","-1.5371094","0.50097656","0.0","-110.53125","49.40625","52.53125"
"1537794249846","785","-1.4746094","0.12988281","0.44628906","-70.375","36.03125","61.75"
"1537794249847","786","-1.5830078","0.578125","0.29003906","-32.59375","-35.375","50.34375"
"1537794250043","787","-1.7373047","0.4892578","0.20800781","-39.71875","-12.125","50.8125"
"1537794250043","788","-1.7324219","0.19726562","0.16503906","24.90625","-24.6875","-22.84375"
"1537794250044","789","-1.3007812","0.28027344","0.17089844","76.96875","12.59375","-49.59375"
"1537794250045","790","-0.4013672","0.36132812","0.14355469","65.125","-39.46875","-14.5"
"1537794250046","791","0.09472656","-0.4736328","-0.049804688","49.21875","-39.40625","-26.8125"
"1537794250244","792","0.3203125","-0.33496094","-0.055664062","-44.0","-60.53125","-38.53125"
"1537794250245","793","-0.3076172","-0.052734375","-0.15429688","-47.0625","-22.5","-67.09375"
"1537794250245","794","-1.1035156","1.3046875","1.1796875","-2.375","26.8125","-11.8125"
"1537794250245","795","-1.5644531","0.14550781","0.91796875","65.625","-12.90625","87.0625"
"1537794250246","796","-1.9931641","-0.33203125","0.45898438","-89.21875","42.625","-22.25"
"1537794250641","797","-1.8779297","0.18066406","0.45996094","-74.625","-48.3125","-35.84375"
"1537794250641","798","-1.6708984","0.09863281","0.734375","-151.65625","-34.09375","8.46875"
"1537794250641","799","-0.7216797","0.23144531","0.33496094","-148.5625","25.84375","4.875"
"1537794250641","800","0.00390625","0.21191406","0.0068359375","-91.84375","-9.0625","-12.90625"
"1537794250643","801","0.18847656","0.4736328","0.39257812","-21.34375","22.1875","7.96875"
"1537794250643","802","0.087890625","0.5136719","0.08300781","40.34375","48.0625","38.90625"
"1537794250643","803","0.09082031","-0.17382812","0.18457031","58.46875","77.90625","40.5625"
"1537794250644","804","-0.18457031","0.18066406","0.6425781","63.0","99.625","-22.90625"
"1537794250645","805","-1.3388672","0.6328125","0.21777344","57.4375","98.40625","26.34375"
"1537794251236","806","-1.9931641","0.9736328","-0.22460938","2.5625","29.8125","-0.3125"
"1537794251237","807","-1.7851562","0.21972656","0.49414062","128.0625","-21.9375","-74.46875"
"1537794251238","808","-1.4199219","0.4814453","0.2783203","45.90625","-29.15625","-41.875"
"1537794251238","809","-1.3076172","-0.08203125","-0.10644531","118.78125","-50.03125","-31.28125"
"1537794251239","810","-0.40527344","-0.28710938","-0.115234375","96.375","-42.53125","-78.8125"
"1537794251239","811","1.0283203","-0.1015625","0.21484375","7.21875","12.46875","-54.875"
"1537794251241","812","0.5595703","0.04296875","0.14746094","-45.21875","-62.65625","-38.09375"
"1537794251241","813","-0.31835938","0.3203125","-0.09765625","-36.84375","-17.1875","-23.09375"
"1537794251241","814","-0.6142578","-0.16113281","0.5957031","-23.96875","55.125","-16.3125"
"1537794251434","815","0.8046875","0.6875","0.6044922","10.15625","55.8125","-23.53125"
"1537794251434","816","0.20800781","0.5839844","-0.15332031","63.0625","0.09375","43.4375"
"1537794251435","817","-0.0390625","-0.25878906","-0.048828125","88.875","63.25","35.9375"
"1537794251436","818","-0.068359375","-0.32617188","0.71484375","41.03125","92.125","-16.625"
"1537794251634","819","-1.1289062","0.12011719","0.78808594","8.75","134.96875","47.28125"
"1537794251635","820","-1.9931641","1.671875","0.22167969","100.21875","-99.875","80.375"
"1537794251637","821","-1.9931641","-0.12109375","0.5449219","122.8125","-6.25","-41.84375"
"1537794251637","822","-1.6142578","0.23535156","0.20800781","49.09375","-44.28125","-27.65625"
"1537794251637","823","-1.5146484","-0.23144531","-0.107421875","107.84375","-63.75","-36.21875"
"1537794251638","824","-0.7373047","-0.17480469","-0.0859375","80.28125","-30.6875","-64.40625"
"1537794251833","825","0.671875","0.072265625","0.30371094","11.96875","13.15625","-47.125"
"1537794252031","826","1.2851562","-0.21582031","0.0703125","-23.78125","-58.875","-16.25"
"1537794252032","827","-0.20410156","0.13964844","0.064453125","-9.375","-61.1875","-29.75"
"1537794252032","828","-0.59472656","-0.10839844","0.42871094","-48.5625","7.78125","1.03125"
"1537794252033","829","-1.9931641","1.2568359","0.77246094","-72.5","51.78125","150.4375"
"1537794252034","830","-1.9931641","0.2109375","0.2705078","-56.9375","41.78125","-38.96875"
"1537794252034","831","-1.9931641","-0.6611328","0.29785156","-111.8125","54.46875","3.59375"
"1537794252034","832","-1.6523438","0.34765625","0.64941406","-105.46875","-91.71875","4.1875"
"1537794252035","833","-1.6992188","0.013671875","-0.20605469","-126.34375","-114.65625","14.1875"
"1537794252035","834","-0.08203125","-0.18457031","-0.034179688","-88.3125","39.21875","-31.9375"
"1537794252230","835","0.8779297","0.4658203","0.6582031","-54.75","31.9375","-13.4375"
"1537794252232","836","0.328125","0.8222656","0.045898438","-9.5625","-26.71875","53.25"
"1537794252232","837","-0.1484375","0.17578125","-0.16796875","45.53125","40.3125","69.375"
"1537794252232","838","-0.125","-0.3671875","0.22851562","45.65625","94.5","17.0625"
"1537794252232","839","-0.5566406","-0.16894531","0.43359375","6.46875","146.625","-27.96875"
"1537794252428","840","-1.9931641","1.8925781","0.32714844","72.34375","-124.65625","243.21875"
"1537794252429","841","-1.9931641","-0.061523438","-0.07714844","112.75","-21.9375","-51.71875"
"1537794252429","842","-1.6259766","0.11425781","0.51171875","72.15625","-40.4375","-17.40625"
"1537794252430","843","-1.4140625","-0.052734375","-0.07519531","93.6875","-54.71875","4.5"
"1537794252430","844","-0.8388672","-0.12695312","-0.25097656","83.375","-57.71875","-40.90625"
"1537794252627","845","0.16503906","-0.16308594","0.30664062","48.90625","-26.65625","-45.0625"
"1537794252629","846","1.4785156","-0.234375","-0.013671875","-20.875","-29.40625","-48.3125"
"1537794252629","847","-0.045898438","-0.0107421875","0.043945312","-57.0625","-78.09375","-27.5"
"1537794252629","848","-0.5439453","0.05859375","0.4736328","-73.46875","13.09375","-1.65625"
"1537794252630","849","-1.9931641","0.8251953","0.45703125","-59.5625","73.8125","116.9375"
"1537794253026","850","-1.9931641","-0.013671875","0.3798828","-28.0625","16.5","-17.65625"
"1537794253026","851","-1.9931641","-0.7089844","0.20507812","-130.71875","59.34375","-0.1875"
"1537794253026","852","-1.4492188","0.041015625","0.7685547","-98.625","-115.625","-5.6875"
"1537794253027","853","-1.359375","0.28125","-0.056640625","-141.15625","-93.65625","32.28125"
"1537794253028","854","0.16796875","0.024414062","-0.01171875","-104.125","9.4375","-9.25"
"1537794253028","855","0.67089844","0.67578125","0.5732422","-18.90625","5.75","-16.875"
"1537794253028","856","0.07714844","0.5986328","-0.043945312","28.75","14.6875","51.25"
"1537794253028","857","-0.103515625","-0.19042969","-0.13183594","51.71875","85.59375","57.15625"
"1537794253029","858","-0.2109375","-0.2607422","0.6933594","32.125","127.90625","-6.4375"
"1537794253224","859","-1.9931641","1.3369141","-0.7626953","47.75","9.84375","18.96875"
"1537794253225","860","-1.9931641","-0.2705078","1.0419922","176.28125","-0.28125","-24.5"
"1537794253621","861","-1.3066406","0.21972656","0.2783203","55.4375","-43.0","-42.4375"
"1537794253621","862","-1.1113281","-0.2685547","-0.2548828","107.5625","-75.96875","-26.15625"
"1537794253623","863","-0.5439453","-0.27441406","-0.07714844","76.0625","-27.75","-50.1875"
"1537794253623","864","0.72753906","0.18847656","0.21679688","11.1875","27.3125","-38.90625"
"1537794253624","865","0.875","-0.23339844","0.0087890625","-24.40625","-42.5625","-35.84375"
"1537794253625","866","-0.16894531","0.21875","0.125","-7.375","-32.3125","-22.53125"
"1537794253625","867","-0.5859375","0.20214844","0.5830078","-6.65625","-2.71875","3.53125"
"1537794253625","868","-1.7919922","1.2978516","0.8798828","-5.25","16.3125","137.8125"
"1537794253820","869","-1.9931641","-0.26953125","0.27246094","-60.59375","32.1875","-39.25"
"1537794253821","870","-1.6767578","-0.12890625","0.4404297","-81.0","66.0625","34.46875"
"1537794253821","871","1.03125","0.49023438","0.7421875","-102.96875","66.4375","-37.96875"
"1537794253822","872","0.33789062","1.0068359","0.1640625","-1.53125","-45.03125","40.1875"
"1537794253822","873","-0.24023438","0.0546875","-0.015625","30.78125","30.84375","87.3125"
"1537794253823","874","-0.26660156","-0.26660156","0.4013672","18.375","93.71875","14.625"
"1537794253823","875","-0.46679688","0.06738281","0.9189453","45.78125","132.28125","-53.4375"
"1537794254018","876","-1.9931641","1.4394531","0.65722656","156.375","-11.03125","168.875"
"1537794254019","877","-1.9931641","-0.28222656","0.40820312","98.875","-39.03125","-28.34375"
"1537794254019","878","-1.8837891","0.46484375","0.091796875","10.4375","-42.03125","-18.875"
"1537794254020","879","-1.7216797","0.10546875","0.043945312","109.125","-65.53125","-36.75"
"1537794254020","880","-0.68847656","-0.10449219","-0.09082031","88.03125","-6.4375","-59.28125"
"1537794254217","881","0.3935547","-0.20898438","0.37890625","59.21875","8.21875","-58.6875"
"1537794254218","882","1.0117188","-0.52246094","0.09277344","-54.0","-59.65625","-33.40625"
"1537794254219","883","-0.27246094","0.17871094","-0.07714844","-95.21875","-33.0625","-36.21875"
"1537794254219","884","-0.265625","0.23339844","-0.07421875","-51.75","23.71875","-13.8125"
"1537794254219","885","-0.5253906","1.2089844","0.9765625","12.53125","69.46875","-2.59375"
"1537794254416","886","-1.9931641","-0.32128906","0.7001953","106.15625","-55.28125","154.34375"
"1537794254416","887","-1.9931641","-0.96484375","-0.49414062","-60.59375","57.53125","-48.125"
"1537794254417","888","-1.6728516","-0.5517578","0.5576172","-94.21875","-21.59375","-11.4375"
"1537794254617","889","-1.3066406","0.05859375","0.52246094","-159.65625","-124.0","20.375"
"1537794254618","890","-0.47851562","0.40234375","-0.049804688","-97.09375","34.6875","23.65625"
"1537794254618","891","0.5126953","0.40722656","0.7089844","-34.46875","30.46875","7.5"
"1537794254618","892","0.4560547","0.7705078","0.0068359375","42.4375","9.71875","21.84375"
"1537794254619","893","0.03125","-0.16699219","-0.20605469","60.6875","83.46875","66.5625"
"1537794254620","894","0.013671875","-0.55078125","0.6201172","10.5","121.71875","14.6875"
"1537794254620","895","-1.125","0.2265625","0.8613281","24.1875","150.40625","19.5625"
"1537794254814","896","-1.9931641","1.2451172","-0.013671875","-43.6875","34.875","36.59375"
"1537794254815","897","-1.9931641","-0.6015625","0.55566406","62.8125","16.5","-19.90625"
"1537794254815","898","-1.5712891","0.21289062","0.390625","-17.9375","1.625","-40.96875"
"1537794254817","899","-1.3730469","-0.19238281","-0.24023438","40.09375","-41.1875","-8.125"
"1537794254817","900","-0.5800781","-0.026367188","-0.041015625","27.71875","27.78125","-66.4375"
"1537794255213","901","0.6191406","0.42089844","0.45507812","15.4375","54.34375","-38.84375"
"1537794255213","902","1.4072266","-0.18261719","0.1953125","3.5","-53.75","-24.1875"
"1537794255410","903","-0.061523438","0.068359375","0.06933594","-29.28125","-53.1875","-12.21875"
"1537794255410","904","-0.43066406","-0.048828125","0.2529297","-30.5625","-22.25","-2.9375"
"1537794255410","905","-1.9931641","1.3505859","0.5029297","-61.09375","4.90625","127.46875"
"1537794255411","906","-1.9931641","0.056640625","0.38183594","-114.125","75.59375","29.34375"
"1537794255411","907","-1.9931641","-0.89453125","0.25976562","-152.46875","70.53125","-14.59375"
"1537794255412","908","-1.984375","-0.46484375","0.7871094","-152.03125","-72.96875","13.34375"
"1537794255413","909","-1.4042969","-0.3642578","-0.06542969","-233.21875","-78.71875","32.4375"
"1537794255414","910","0.14746094","0.20605469","0.6484375","-172.90625","141.5625","-19.5"
"1537794255414","911","0.91308594","1.4931641","0.57714844","-15.875","27.25","-20.21875"
"1537794255611","912","-0.7626953","0.4189453","0.3486328","-73.21875","165.5","-1.375"
"1537794255612","913","-1.9931641","1.390625","0.75390625","-4.09375","-25.4375","161.84375"
"1537794255809","914","-1.9931641","-0.38476562","0.08203125","-69.03125","46.28125","-40.25"
"1537794255810","915","-1.78125","0.18164062","0.46289062","-11.03125","-1.125","-43.59375"
"1537794255810","916","-1.1943359","-0.005859375","-0.12695312","43.34375","-46.1875","-38.59375"
"1537794255810","917","-0.7871094","-0.32421875","-0.15234375","21.0625","-25.0","-70.15625"
"1537794255810","918","0.6386719","0.087890625","0.4326172","-29.15625","16.9375","-64.96875"
"1537794255810","919","1.2578125","0.020507812","0.0546875","-97.15625","-49.96875","-49.53125"
"1537794255811","920","-0.08984375","0.14550781","0.033203125","-56.375","-46.90625","-44.40625"
"1537794255811","921","-0.375","0.19238281","-0.10058594","-44.4375","-30.125","-21.5"
"1537794256006","922","-0.8222656","1.0371094","1.1533203","-14.15625","62.59375","8.90625"
"1537794256007","923","-1.9931641","-0.16796875","1.0234375","49.5","-92.25","136.46875"
"1537794256008","924","-1.9931641","-1.1386719","-0.53125","-54.625","13.03125","-21.875"
"1537794256009","925","-1.8652344","-0.45898438","0.26757812","-93.8125","34.9375","-29.75"
"1537794256009","926","-1.6660156","-0.17675781","0.3515625","-111.4375","-134.25","-23.875"
"1537794256205","927","-0.69628906","-0.02734375","-0.028320312","-167.90625","-59.5","26.90625"
"1537794256206","928","0.66308594","0.15136719","0.4345703","-110.53125","7.15625","-1.4375"
"1537794256206","929","0.6484375","1.1220703","0.4111328","-15.625","-15.84375","12.8125"
"1537794256206","930","0.09277344","0.28125","0.017578125","47.90625","21.03125","62.59375"
"1537794256207","931","-0.1953125","-0.47460938","0.045898438","15.875","79.5625","46.6875"
"1537794256404","932","-0.34277344","-0.21582031","0.31445312","-42.65625","155.53125","-21.75"
"1537794256404","933","-1.9931641","1.6337891","0.8417969","-79.46875","-26.15625","236.6875"
"1537794256404","934","-1.5","0.5371094","-0.7001953","10.5","-1.875","-58.0"
"1537794256405","935","-1.9931641","-0.26464844","0.6767578","124.21875","-26.65625","-3.4375"
"1537794256405","936","-1.5908203","0.09472656","0.06542969","64.46875","-71.25","-5.03125"
"1537794256603","937","-1.2724609","-0.09667969","-0.34765625","65.1875","-64.5","-58.78125"
"1537794256603","938","-0.12207031","-0.119140625","0.25683594","50.0","16.875","-51.71875"
"1537794256603","939","1.3994141","0.28222656","0.16308594","21.5625","-21.21875","-27.25"
"1537794256603","940","0.3173828","-0.31640625","-0.076171875","-26.125","-63.625","-25.65625"
"1537794256604","941","-0.359375","0.0703125","0.15332031","-57.65625","-13.59375","-18.9375"
"1537794256801","942","-0.21191406","0.2685547","-0.080078125","-44.53125","-8.75","-6.5625"
"1537794256803","943","-0.46679688","1.4208984","1.9042969","49.75","74.71875","-1.53125"
"1537794256803","944","-1.9931641","-0.6191406","0.6074219","83.375","-38.78125","163.25"
"1537794256803","945","-1.9931641","-0.99609375","-0.16308594","-112.90625","13.4375","-42.0625"
"1537794256805","946","-1.5683594","-0.20996094","0.5566406","-69.5","-43.0625","-13.25"
"1537794257000","947","-1.7431641","0.036132812","0.029296875","-153.25","-146.28125","22.1875"
"1537794257000","948","-0.8330078","-0.022460938","-0.18066406","-139.75","47.3125","7.96875"
"1537794257001","949","0.83496094","0.3017578","0.7919922","-93.1875","66.84375","-27.78125"
"1537794257398","950","0.88183594","1.0996094","0.33691406","13.375","-21.09375","19.09375"
"1537794257398","951","-0.12695312","0.20214844","-0.19238281","47.25","30.84375","85.75"
"1537794257398","952","-0.1875","-0.52734375","0.16503906","58.125","87.4375","24.40625"
"1537794257399","953","-0.57421875","-0.36328125","0.46191406","-27.53125","158.59375","-34.03125"
"1537794257399","954","-1.9931641","1.7519531","0.43554688","21.90625","-52.90625","295.21875"
"1537794257400","955","-1.9931641","0.09082031","-0.22167969","73.3125","-59.25","-78.6875"
"1537794257400","956","-1.671875","0.125","0.6201172","97.40625","-51.84375","-30.21875"
"1537794257401","957","-1.5429688","-0.049804688","0.18066406","92.78125","-49.53125","-34.625"
"1537794257402","958","-1.09375","-0.36328125","-0.3515625","74.34375","-36.34375","-74.90625"
"1537794257596","959","-0.40429688","0.19433594","0.030273438","-49.75","-24.21875","-9.40625"
"1537794257597","960","-0.5488281","-0.057617188","0.4794922","-24.53125","31.75","-5.4375"
"1537794257598","961","-1.9931641","1.4638672","1.3964844","31.1875","-79.5625","166.25"
"1537794257598","962","-1.9931641","-0.07324219","-0.3642578","-28.8125","-26.65625","-66.0"
"1537794257599","963","-1.9423828","-1.0615234","0.41210938","-98.6875","87.96875","-1.84375"
"1537794257794","964","-1.6640625","0.07910156","0.35058594","-104.0","-128.875","2.3125"
"1537794257795","965","-1.6601562","0.00390625","-0.26367188","-132.75","-88.78125","23.53125"
"1537794257795","966","0.21875","-0.046875","0.359375","-111.75","87.125","-12.21875"
"1537794257797","967","1.1611328","1.0712891","0.61621094","-31.65625","27.1875","-28.59375"
"1537794257797","968","0.15722656","0.7753906","-0.1015625","40.59375","-6.09375","73.15625"
"1537794258194","969","-0.16601562","-0.3779297","-0.036132812","81.0625","70.8125","61.5625"
"1537794258195","970","-0.3046875","-0.00390625","0.9794922","21.0625","104.625","-11.96875"
"1537794258195","971","-1.9931641","1.1669922","-0.19433594","-78.59375","112.34375","143.46875"
"1537794258195","972","-1.6416016","0.66308594","-1.1025391","48.84375","-7.0625","-69.21875"
"1537794258196","973","-1.9931641","-0.18261719","0.67285156","164.125","-30.96875","-10.59375"
"1537794258197","974","-1.5976562","0.12890625","-0.10546875","42.78125","-40.25","11.34375"
"1537794258197","975","-1.5283203","-0.06933594","-0.39160156","115.0625","-76.625","-63.875"
"1537794258198","976","-0.18847656","-0.14453125","0.21777344","68.78125","-7.78125","-81.8125"
"1537794258198","977","1.5009766","0.328125","0.21875","-0.40625","-16.03125","-36.40625"
"1537794258391","978","-0.43652344","0.14550781","0.1171875","-18.84375","-24.9375","-17.90625"
"1537794258392","979","-0.31152344","0.09277344","0.3046875","-22.875","-9.0","7.71875"
"1537794258392","980","-1.8925781","1.5996094","0.74902344","19.0625","-57.65625","93.1875"
"1537794258392","981","-1.9931641","-0.4267578","0.7597656","6.84375","55.09375","23.59375"
"1537794258393","982","-1.9931641","-1.0839844","0.16699219","-111.875","70.46875","-11.3125"
"1537794258592","983","-1.4921875","0.21875","0.38476562","-108.8125","-51.96875","-10.625"
"1537794258593","984","-1.9931641","-0.0048828125","0.01953125","-139.34375","-131.625","13.84375"
"1537794258594","985","-0.4873047","-0.064453125","0.107421875","-74.21875","80.03125","-9.0625"
"1537794258594","986","1.1611328","0.54785156","0.7949219","-71.34375","71.5625","-58.90625"
"1537794258594","987","0.61621094","1.0419922","0.07324219","16.4375","-41.28125","38.0"
"1537794258789","988","-0.43164062","0.068359375","-0.203125","63.375","21.8125","80.5625"
"1537794258789","989","-0.24316406","-0.55566406","0.01953125","33.59375","117.6875","20.71875"
"1537794258789","990","-0.53027344","-0.11230469","0.1015625","-79.46875","130.8125","-15.8125"
"1537794258789","991","-1.9931641","2.0058594","0.3642578","38.78125","-57.15625","236.125"
"1537794258790","992","-1.9931641","-0.09765625","-0.0068359375","77.15625","21.625","-42.4375"
"1537794259385","993","-1.8222656","0.080078125","0.3408203","84.25","-26.40625","-60.375"
"1537794259386","994","-1.2685547","-0.10644531","-0.053710938","115.5","-38.71875","-62.34375"
"1537794259386","995","-0.8066406","-0.38671875","-0.13574219","111.8125","-25.5625","-73.9375"
"1537794259386","996","0.5410156","0.13964844","0.3701172","27.40625","45.125","-60.03125"
"1537794259392","997","1.1171875","-0.15625","0.0703125","-35.40625","-62.15625","6.9375"
"1537794259392","998","-0.17871094","-0.03125","-0.016601562","-29.09375","-72.0","-37.8125"
"1537794259392","999","-0.3515625","0.34960938","-0.04296875","-29.78125","-3.34375","-12.46875"
"1537794259392","1000","-0.5439453","0.31933594","0.5097656","-26.3125","55.09375","-11.0625"
"1537794259392","1001","-1.9931641","0.33789062","1.0849609","141.0625","-79.3125","169.84375"
"1537794259782","1002","-0.119140625","0.46777344","-0.13574219","30.09375","15.71875","66.9375"
"1537794259783","1003","-0.15136719","-0.39648438","0.18164062","47.375","98.84375","42.28125"
"1537794259783","1004","-0.4326172","0.60253906","0.5566406","-2.8125","123.75","-16.625"
"1537794259783","1005","-1.9931641","1.828125","0.71972656","-81.21875","86.625","263.96875"
"1537794259784","1006","-1.9931641","0.23632812","-0.98046875","105.90625","-18.90625","-96.53125"
"1537794259786","1007","-1.8203125","-0.12402344","0.8105469","168.15625","-19.09375","-34.125"
"1537794259787","1008","-1.4101562","-0.051757812","-0.06738281","76.5625","-32.375","-33.90625"
"1537794259787","1009","-1.0039062","-0.1640625","-0.33691406","102.78125","-54.71875","-76.75"
"1537794259787","1010","0.2861328","-0.18164062","0.24121094","48.65625","27.3125","-85.53125"
"1537794259982","1011","-0.038085938","0.0107421875","0.037109375","-53.65625","-84.75","-41.78125"
"1537794259982","1012","-0.40234375","0.33496094","0.0048828125","-51.25","-22.375","-17.53125"
"1537794259982","1013","-0.6826172","1.0517578","0.6689453","-13.53125","66.4375","11.28125"
"1537794259982","1014","-1.9931641","-0.22070312","1.1357422","161.5625","-158.53125","152.75"
"1537794259984","1015","-1.9931641","-1.390625","-0.42871094","-47.78125","39.8125","-22.53125"
"1537794260179","1016","-1.5400391","-0.09472656","0.328125","-88.4375","47.875","-11.8125"
"1537794260180","1017","-1.7275391","0.18066406","0.53808594","-42.03125","-125.71875","-34.125"
"1537794260180","1018","-1.1806641","-0.24316406","-0.40234375","-112.84375","-84.4375","14.6875"
"1537794260379","1019","0.57128906","-0.005859375","0.31835938","-84.03125","59.90625","-10.21875"
"1537794260380","1020","0.9511719","1.0087891","0.37402344","-12.75","12.65625","-22.90625"
"1537794260577","1021","-0.04296875","0.51171875","-0.0546875","42.5","6.5","53.5"
"1537794260578","1022","-0.1953125","-0.17285156","0.06542969","54.28125","80.21875","51.0625"
"1537794260578","1023","-0.2783203","0.46972656","0.93066406","24.78125","139.3125","-2.28125"
"1537794260578","1024","-1.9931641","0.7089844","0.9013672","-31.90625","16.25","240.71875"
"1537794260579","1025","-1.7910156","0.8828125","-1.0830078","93.15625","-65.65625","-47.75"
"1537794260579","1026","-1.9931641","-0.22460938","0.81347656","180.6875","-48.5","-33.09375"
"1537794260580","1027","-1.3730469","-0.072265625","-0.22070312","68.375","-83.90625","-28.9375"
"1537794260581","1028","-1.0117188","-0.20703125","-0.29003906","111.71875","-55.09375","-82.59375"
"1537794260581","1029","-0.10253906","-0.18457031","0.14257812","81.5","-14.75","-88.875"
"1537794260776","1030","1.2861328","-0.29589844","0.11425781","-44.96875","-10.65625","-29.9375"
"1537794260777","1031","0.07519531","-0.072265625","-0.08691406","-79.6875","-67.78125","-46.40625"
"1537794260974","1032","-0.34570312","0.47558594","0.18945312","-60.46875","4.59375","-24.3125"
"1537794260975","1033","-0.5859375","0.42285156","0.52246094","-14.53125","27.78125","6.34375"
"1537794260976","1034","-1.9931641","2.0058594","1.3564453","86.9375","-25.125","186.03125"
"1537794260977","1035","-1.9931641","-0.11230469","-0.38867188","46.09375","-3.6875","-57.15625"
"1537794260977","1036","-1.9931641","-0.7109375","0.2578125","-89.59375","58.9375","3.53125"
"1537794260977","1037","-1.7021484","0.15332031","0.119140625","-58.15625","-103.0","-0.1875"
"1537794260978","1038","-1.8369141","-0.0859375","-0.30273438","-62.5625","-91.59375","-4.34375"
"1537794260979","1039","-0.56152344","0.040039062","0.10253906","-34.46875","45.875","-27.0"
"1537794261174","1040","1.1464844","0.41992188","0.5810547","-31.71875","60.09375","-52.21875"
"1537794261175","1041","0.640625","0.6875","0.18652344","50.65625","-19.125","39.03125"
"1537794261177","1042","-0.2890625","0.072265625","-0.030273438","70.875","24.5","68.15625"
"1537794261177","1043","-0.33984375","0.24609375","0.6298828","66.65625","107.09375","11.625"
"1537794261177","1044","-1.1572266","0.5751953","0.40234375","70.5","110.0625","47.78125"
"1537794261374","1045","-1.9931641","0.8808594","-0.009765625","72.21875","16.25","20.90625"
"1537794261374","1046","-1.5742188","-0.13769531","0.61816406","167.0","-14.375","-65.21875"
"1537794261374","1047","-1.7353516","0.42089844","-0.099609375","67.40625","-71.15625","-6.84375"
"1537794261374","1048","-1.5332031","0.10253906","-0.22753906","150.78125","-38.5625","-48.59375"
"1537794261374","1049","-0.6074219","-0.17285156","-0.015625","175.53125","-7.46875","-67.40625"
"1537794261571","1050","0.94921875","-0.41210938","0.3408203","60.375","28.28125","-51.53125"
"1537794261572","1051","0.7246094","-0.3232422","-0.13378906","-32.34375","-55.34375","-18.6875"
"1537794261572","1052","-0.3232422","0.13574219","0.021484375","-16.65625","-41.65625","-33.21875"
"1537794261573","1053","-0.5878906","0.34179688","0.5517578","-7.5","12.65625","-3.6875"
"1537794261573","1054","-1.8242188","1.3955078","0.54589844","29.90625","82.3125","110.875"
"1537794261771","1055","-1.9931641","-0.8408203","0.33789062","-10.0","-52.65625","-16.4375"
"1537794261771","1056","-1.9931641","-0.7138672","-0.0078125","-123.84375","90.1875","2.0625"
"1537794261968","1057","-1.6601562","0.4423828","0.5029297","-149.59375","3.9375","15.0"
"1537794261969","1058","-1.6806641","-0.17578125","0.047851562","-86.71875","-55.875","-0.5"
"1537794261969","1059","-0.16992188","-0.20410156","-0.09667969","-135.71875","-15.59375","5.96875"
"1537794261970","1060","0.7548828","0.3828125","0.62402344","-81.34375","81.8125","-30.71875"
"1537794261970","1061","0.41015625","0.96191406","0.12207031","18.9375","25.46875","23.59375"
"1537794261971","1062","-0.061523438","-0.0546875","-0.13574219","36.09375","57.46875","69.125"
"1537794261971","1063","-0.33007812","-0.26171875","0.19921875","35.15625","85.78125","9.5"
"1537794261972","1064","-0.12597656","-0.0126953125","0.08496094","-58.53125","107.625","-5.375"
"1537794262167","1065","-1.9931641","1.0576172","0.8144531","-105.75","42.875","193.40625"
"1537794262168","1066","-1.5703125","0.029296875","-0.32714844","-5.59375","-0.84375","-31.34375"
"1537794262168","1067","-1.9931641","-0.09863281","0.65527344","-7.6875","3.8125","-3.3125"
"1537794262366","1068","-1.5537109","0.0126953125","-0.14746094","-6.9375","-34.09375","34.46875"
"1537794262367","1069","-1.2949219","-0.11230469","-0.19140625","24.59375","-36.15625","-22.53125"
"1537794262368","1070","-0.19628906","-0.17773438","0.17578125","-29.34375","17.34375","-53.375"
"1537794262368","1071","1.4736328","0.07910156","0.013671875","-59.9375","-23.40625","-30.78125"
"1537794262370","1072","0.26953125","0.234375","0.1171875","-37.78125","-49.21875","-22.125"
"1537794262370","1073","-0.46679688","0.20019531","0.038085938","-45.9375","-7.65625","-0.9375"
"1537794262370","1074","-0.5673828","-0.33984375","0.78515625","-34.125","25.28125","12.1875"
"1537794262564","1075","-1.9931641","0.203125","0.8095703","6.40625","-51.125","108.0625"
"1537794262565","1076","-1.9931641","-0.10449219","0.4296875","-121.5","42.03125","-2.9375"
"1537794262565","1077","-1.9931641","-0.14648438","0.051757812","-145.5","35.59375","13.65625"
"1537794262566","1078","-1.9931641","-0.6464844","0.72753906","-151.25","-19.8125","-5.5"
"1537794262566","1079","-1.3144531","-0.5488281","-0.08496094","-203.84375","-35.875","19.875"
"1537794262766","1080","-0.22070312","-0.091796875","0.42285156","-180.28125","52.15625","11.21875"
"1537794262767","1081","0.9121094","1.0527344","0.6191406","-100.75","58.5","-26.625"
"1537794262768","1082","0.48046875","0.9638672","0.083984375","57.3125","6.375","55.09375"
"1537794262768","1083","-0.13183594","-0.44433594","-0.055664062","46.03125","60.75","66.03125"
"1537794262768","1084","-0.7246094","-0.23144531","0.2548828","-13.71875","182.03125","-7.90625"
"1537794262962","1085","-1.9931641","0.06347656","1.6289062","-73.59375","-64.78125","139.8125"
"1537794262963","1086","-1.7832031","0.5908203","-0.9638672","-49.1875","-46.0","-21.75"
"1537794262963","1087","-1.9931641","-0.51464844","0.79296875","23.15625","-20.0625","2.78125"
"1537794262964","1088","-1.3740234","-0.36816406","0.10546875","-61.9375","-8.03125","12.0625"
"1537794262965","1089","-1.2265625","-0.2841797","-0.07421875","-32.9375","-18.71875","-33.84375"
"1537794263162","1090","-0.69433594","-0.1171875","9.765625E-4","-62.3125","15.15625","-72.59375"
"1537794263163","1091","0.73535156","0.083984375","0.13671875","-87.875","51.78125","-22.59375"
"1537794263163","1092","1.1933594","0.123046875","0.18164062","-89.65625","-9.25","-11.375"
"1537794263164","1093","-0.0146484375","0.28027344","0.23046875","-91.3125","-36.34375","-25.71875"
"1537794263360","1094","-0.51171875","-0.19726562","0.84277344","-86.125","-5.15625","-18.8125"
"1537794263360","1095","-1.9931641","0.6503906","2.2353516","-112.96875","-160.9375","183.5"
"1537794263361","1096","-1.9228516","0.37890625","-0.2998047","-120.15625","-1.8125","3.53125"
"1537794263362","1097","-1.9931641","-0.81640625","0.016601562","-121.03125","31.03125","16.9375"
"1537794263559","1098","-1.9931641","-0.85839844","0.6015625","-96.625","26.34375","32.375"
"1537794263560","1099","-1.4423828","-0.3564453","0.29785156","-175.59375","-67.53125","6.28125"
"1537794263560","1100","-0.7626953","-0.052734375","0.109375","-193.28125","-3.40625","33.4375"
"1537794263560","1101","0.73535156","0.38085938","0.5439453","-122.5625","77.78125","12.5625"
"1537794263560","1102","1.0908203","1.4394531","0.4580078","81.6875","70.59375","-0.5625"
"1537794263561","1103","0.09277344","-0.08203125","0.11328125","73.6875","62.59375","53.375"
"1537794263561","1104","-0.20898438","-0.4580078","0.44726562","40.21875","147.96875","3.65625"
"1537794263757","1105","-1.9931641","0.35546875","0.9941406","-165.21875","62.59375","3.9375"
"1537794263759","1106","-1.6757812","0.5107422","-0.2763672","-32.8125","-6.75","15.59375"
"1537794263759","1107","-1.8681641","-0.61621094","0.6269531","-48.875","2.90625","-18.75"
"1537794263759","1108","-1.9921875","-0.37695312","-0.060546875","-82.8125","-21.09375","59.4375"
"1537794263759","1109","-1.5263672","-0.37597656","0.05859375","-91.84375","12.0625","20.0625"
"1537794263956","1110","-0.6923828","-0.115234375","0.080078125","-113.53125","-1.875","-23.625"
"1537794263956","1111","0.2607422","0.15722656","0.0087890625","-76.78125","-10.0","-6.3125"
"1537794263957","1112","0.9140625","0.09667969","0.13476562","-61.875","-18.34375","-9.0625"
"1537794263957","1113","0.4765625","-0.083984375","0.29589844","-130.4375","-36.0625","-11.0625"
"1537794263958","1114","-0.18457031","-0.016601562","0.5498047","-143.84375","-25.90625","-18.6875"
"1537794264155","1115","-1.2490234","0.4560547","1.1572266","-111.8125","-44.09375","6.375"
"1537794264155","1116","-1.9931641","0.10058594","0.328125","-126.875","162.625","103.6875"
"1537794264156","1117","-1.9931641","-0.5","0.27734375","-106.3125","60.9375","-6.71875"
"1537794264157","1118","-1.9931641","-0.7314453","0.9199219","-101.5","12.78125","-5.875"
"1537794264157","1119","-1.2431641","-0.15136719","0.19824219","-191.75","-106.0","71.34375"
"1537794264354","1120","-0.37597656","-0.11230469","0.16601562","-160.875","-0.84375","31.34375"
"1537794264355","1121","0.46484375","0.46972656","0.60253906","-79.09375","31.21875","-6.4375"
"1537794264356","1122","0.49121094","1.0029297","0.13964844","22.71875","49.71875","36.125"
"1537794264356","1123","0.23925781","-0.041992188","0.05859375","34.4375","65.5625","63.53125"
"1537794264356","1124","-0.27539062","-0.22070312","0.24414062","11.96875","135.9375","8.46875"
"1537794264554","1125","-1.9931641","0.29785156","0.7001953","-66.21875","199.90625","62.84375"
"1537794264555","1126","-1.9931641","0.328125","-0.73828125","-140.3125","7.46875","21.21875"
"1537794264555","1127","-1.9931641","-0.20605469","1.2685547","30.40625","-5.09375","3.28125"
"1537794264555","1128","-1.9707031","0.58203125","0.17578125","-79.65625","-54.84375","-7.03125"
"1537794264556","1129","-1.4199219","0.125","-0.037109375","25.53125","46.46875","18.09375"
"1537794264751","1130","-0.4814453","0.17089844","0.19238281","77.53125","-12.84375","-35.53125"
"1537794264752","1131","0.7626953","-0.018554688","0.13378906","57.5","0.5","-23.03125"
"1537794264752","1132","0.7451172","-0.6298828","0.036132812","-29.21875","-83.71875","-36.9375"
"1537794264753","1133","-0.31640625","-0.11035156","-0.1015625","-113.9375","-37.34375","-41.65625"
"1537794264754","1134","-0.3359375","0.3017578","0.4951172","-83.25","18.53125","-42.5625"
"1537794265149","1135","-0.94921875","1.2597656","0.9511719","29.125","4.125","64.75"
"1537794265150","1136","-1.9931641","-0.41503906","1.0048828","4.40625","-23.28125","15.0"
"1537794265150","1137","-1.8564453","-0.31445312","0.17675781","-81.0","62.59375","-33.28125"
"1537794265151","1138","-1.9931641","-0.18164062","1.0527344","-142.03125","-52.34375","20.375"
"1537794265151","1139","-1.2626953","0.034179688","-0.1484375","-223.9375","-37.875","45.875"
"1537794265152","1140","0.09765625","0.018554688","0.47070312","-126.15625","40.5625","-6.4375"
"1537794265154","1141","0.5449219","1.0917969","0.71875","-37.78125","-29.46875","-5.34375"
"1537794265155","1142","0.00390625","0.6513672","-0.13378906","68.75","32.75","72.5625"
"1537794265155","1143","0.12597656","-0.6035156","-0.14453125","66.0","98.96875","46.96875"
"1537794265348","1144","-1.9931641","1.1220703","-0.16601562","-83.0","119.28125","124.625"
"1537794265348","1145","-1.9052734","0.8300781","-0.7246094","-79.09375","-12.96875","-27.1875"
"1537794265349","1146","-1.9726562","0.33691406","0.9482422","66.53125","-13.78125","-36.59375"
"1537794265349","1147","-1.6240234","0.52734375","0.14355469","31.6875","-28.125","-56.78125"
"1537794265546","1148","-1.0722656","-0.07421875","0.09472656","99.9375","-32.9375","-39.25"
"1537794265547","1149","0.18652344","0.099609375","0.20019531","68.6875","14.71875","-75.875"
"1537794265547","1150","1.3066406","-0.26367188","0.3017578","31.8125","11.375","-59.21875"
"1537794265547","1151","0.12988281","-0.19433594","-0.23925781","-44.4375","-107.03125","-42.125"
"1537794265548","1152","-0.375","-0.032226562","-0.14941406","-56.375","-3.5625","-22.25"
"1537794265549","1153","-1.2822266","1.5166016","0.6972656","-9.28125","81.9375","-13.9375"
"1537794265745","1154","-1.9931641","0.109375","0.9609375","85.03125","-7.40625","146.78125"
"1537794265746","1155","-1.9931641","-0.6455078","-0.14550781","-67.75","33.96875","-63.375"
"1537794265747","1156","-1.9931641","-0.4189453","0.3720703","-94.96875","-24.21875","-11.5"
"1537794265747","1157","-1.734375","-0.005859375","0.43554688","-187.0625","-109.71875","7.625"
"1537794265944","1158","-0.19628906","0.21582031","-0.13183594","-195.1875","18.625","-16.0625"
"1537794265944","1159","0.63671875","0.6816406","0.83984375","-76.96875","4.65625","2.0625"
"1537794265944","1160","0.0234375","1.1972656","0.13574219","30.15625","-24.8125","40.8125"
"1537794265945","1161","-0.051757812","-0.16992188","-0.35742188","91.0625","86.875","54.5"
"1537794265946","1162","0.19921875","-0.7548828","0.4296875","51.28125","112.875","-22.53125"
"1537794266143","1163","-0.3154297","-0.15039062","1.1289062","18.25","95.3125","-38.34375"
"1537794266143","1164","-1.9931641","1.5351562","0.4169922","-6.8125","-2.1875","288.3125"
"1537794266144","1165","-1.9931641","0.0126953125","0.18847656","63.125","41.09375","-62.34375"
"1537794266144","1166","-1.6435547","0.3486328","0.5","52.8125","-12.5","-74.125"
"1537794266146","1167","-1.4550781","-0.051757812","-0.053710938","104.6875","-51.6875","-29.625"
"1537794266341","1168","-0.4794922","-0.076171875","-0.13867188","65.1875","-27.4375","-60.75"
"1537794266341","1169","0.62890625","0.17675781","0.39941406","42.3125","5.28125","-55.0"
"1537794266342","1170","0.9345703","-0.40820312","-0.015625","-20.0625","-67.84375","-43.78125"
"1537794266342","1171","-0.31640625","0.038085938","0.009765625","-44.84375","-31.96875","-20.28125"
"1537794266343","1172","-0.20410156","0.13183594","0.08496094","-33.375","21.03125","-11.90625"
"1537794266540","1173","-0.96484375","1.4814453","1.1992188","34.0","-26.9375","36.78125"
"1537794266540","1174","-1.9931641","-0.7558594","1.2294922","43.78125","0.34375","135.40625"
"1537794266540","1175","-1.9931641","-0.6767578","-0.5917969","-38.0625","30.46875","-65.21875"
"1537794266542","1176","-1.5390625","-0.35839844","0.51660156","-119.75","-65.78125","-39.4375"
"1537794266542","1177","-1.875","-0.2109375","-0.041015625","-160.28125","-128.9375","30.5625"
"1537794266938","1178","-0.11035156","0.28027344","0.5292969","-98.5","113.4375","-4.65625"
"1537794266938","1179","0.9404297","1.0068359","0.8105469","-46.8125","-5.59375","-26.15625"
"1537794266938","1180","0.06542969","0.7861328","0.018554688","58.34375","-50.15625","51.0"
"1537794266938","1181","-0.12402344","-0.4345703","-0.083984375","95.34375","87.71875","74.5"
"1537794266940","1182","-0.171875","-0.32128906","0.27246094","21.90625","113.1875","-3.0625"
"1537794266941","1183","-1.9931641","1.2275391","-0.119140625","-59.4375","131.5","116.125"
"1537794266941","1184","-1.9931641","0.46191406","-0.34960938","-34.96875","-165.0","-28.40625"
"1537794266941","1185","-1.8242188","0.17871094","0.6279297","99.5625","-19.5","-72.96875"
"1537794266942","1186","-1.4277344","0.33789062","0.3642578","62.3125","-42.75","-58.78125"
"1537794267137","1187","0.19433594","-0.12597656","0.2607422","73.875","37.0625","-63.375"
"1537794267138","1188","1.0820312","0.036132812","0.17285156","18.9375","-12.96875","-46.53125"
"1537794267139","1189","0.0546875","-0.0390625","-0.12207031","-1.34375","-80.34375","-45.0"
"1537794267139","1190","-0.23242188","0.020507812","0.08496094","-8.90625","-27.0625","-6.0"
"1537794267139","1191","-0.115234375","0.115234375","0.5488281","-6.71875","-2.21875","-16.0625"
"1537794267334","1192","-1.4697266","1.6542969","0.87402344","62.75","-22.3125","126.4375"
"1537794267336","1193","-1.9931641","0.3671875","0.66308594","20.21875","-92.5","10.0625"
"1537794267337","1194","-1.9804688","-0.95996094","0.234375","-52.53125","76.4375","-36.9375"
"1537794267337","1195","-1.6777344","-0.08496094","0.45507812","-155.21875","-97.875","-28.40625"
"1537794267337","1196","-1.8691406","-0.001953125","-0.26171875","-157.875","-63.9375","23.28125"
"1537794267534","1197","0.040039062","-0.017578125","0.3876953","-129.6875","49.59375","-9.90625"
"1537794267535","1198","0.96191406","1.1123047","0.7392578","-46.875","-15.21875","-14.4375"
"1537794267535","1199","-0.07421875","0.83691406","-0.18945312","71.25","-22.625","47.71875"
"1537794267536","1200","0.0126953125","-0.5888672","-0.064453125","87.03125","86.4375","66.03125"
"1537794267537","1201","-0.13769531","-0.29589844","0.78222656","8.75","101.46875","3.03125"
"1537794267732","1202","-1.2412109","1.1523438","0.21777344","-10.0","84.125","77.625"
"1537794267733","1203","-1.9931641","0.9951172","-0.42382812","-19.15625","-12.84375","-11.5"
"1537794267733","1204","-1.9931641","0.052734375","0.47070312","115.96875","1.84375","-26.3125"
"1537794267734","1205","-1.7197266","0.54003906","0.16699219","39.5","-61.375","-26.4375"
"1537794267734","1206","-1.4296875","0.033203125","-0.23046875","123.59375","-79.5625","-36.53125"
"1537794267931","1207","-0.25585938","-9.765625E-4","-0.140625","92.96875","-45.15625","-87.40625"
"1537794267932","1208","1.3759766","0.08203125","0.38085938","42.625","34.4375","-59.59375"
"1537794267932","1209","0.2783203","-0.21289062","-0.072265625","-22.21875","-103.96875","-50.1875"
"1537794267933","1210","-0.4013672","0.21289062","-0.11328125","-37.21875","14.71875","-8.625"
"1537794267933","1211","-0.26464844","0.009765625","0.6298828","-10.125","10.875","-2.59375"
"1537794268131","1212","-1.2519531","1.7207031","0.87402344","27.0","-33.0","113.3125"
"1537794268132","1213","-1.9931641","-0.29785156","0.73339844","12.71875","-19.5","54.65625"
"1537794268132","1214","-1.9931641","-0.59765625","-0.0546875","-67.5","58.4375","-28.78125"
"1537794268132","1215","-1.7929688","-0.060546875","0.4404297","-160.4375","-16.75","-35.46875"
"1537794268132","1216","-1.5126953","0.099609375","0.13867188","-135.6875","-123.5625","-24.8125"
"1537794268329","1217","-0.041015625","0.16601562","-0.037109375","-143.25","-11.75","14.03125"
"1537794268532","1218","0.71484375","0.98046875","0.9560547","-47.40625","24.5625","-2.53125"
"1537794268726","1219","0.23242188","0.7763672","-0.13574219","82.96875","-23.03125","43.625"
"1537794268728","1220","0.026367188","-0.5878906","-0.11328125","84.46875","90.0625","58.75"
"1537794268728","1221","-0.140625","-0.3173828","0.79589844","24.4375","97.1875","-13.8125"
"1537794268728","1222","-1.2646484","1.0146484","0.11816406","-6.9375","134.78125","46.0625"
"1537794268730","1223","-1.9931641","1.4072266","-0.4111328","3.71875","-108.75","-10.09375"
"1537794268925","1224","-1.9931641","-0.2685547","0.6015625","110.90625","-25.4375","-17.90625"
"1537794268926","1225","-1.5263672","0.33691406","0.25390625","50.1875","-67.84375","-54.34375"
"1537794268927","1226","-1.4648438","0.005859375","-0.30371094","121.78125","-46.1875","-40.0"
"1537794268927","1227","-0.26171875","0.07128906","0.16601562","108.28125","25.53125","-70.9375"
"1537794268927","1228","-1.7607422","1.8701172","0.7441406","30.59375","-77.25","135.90625"
"1537794268928","1229","-1.9931641","-0.14550781","1.0986328","0.0625","2.03125","43.6875"
"1537794268929","1230","-1.9931641","-0.7841797","0.21679688","-57.65625","131.90625","-25.84375"
"1537794268929","1231","-1.5390625","-0.03515625","0.56347656","-141.53125","-85.59375","-17.46875"
"1537794268929","1232","-1.9589844","0.15234375","-0.18554688","-161.3125","-120.8125","57.53125"
"1537794269124","1233","-0.18457031","0.09472656","0.37402344","-77.125","144.1875","-4.40625"
"1537794269124","1234","1.0234375","1.1074219","0.89746094","-40.15625","16.75","-19.6875"
"1537794269124","1235","0.29589844","0.80566406","-0.15429688","68.0625","-42.15625","66.4375"
"1537794269124","1236","-0.10253906","-0.5019531","-0.08105469","91.6875","71.25","74.3125"
"1537794269127","1237","-0.13378906","-0.42871094","0.7949219","19.40625","104.34375","-9.34375"
"1537794269323","1238","-0.94140625","0.8691406","0.4453125","-23.71875","35.375","19.5625"
"1537794269323","1239","-1.9931641","1.6708984","-0.029296875","-38.125","-95.375","124.0"
"1537794269324","1240","-1.9931641","0.23535156","0.21972656","70.03125","-7.40625","-47.875"
"1537794269324","1241","-1.3759766","0.49121094","0.51953125","45.46875","-44.40625","-77.78125"
"1537794269324","1242","-1.28125","-0.09667969","-0.18847656","103.53125","-69.875","-50.8125"
"1537794269521","1243","-0.20019531","-0.051757812","0.09667969","48.40625","36.46875","-74.84375"
"1537794269521","1244","1.0693359","0.34179688","0.32226562","7.28125","14.78125","-46.28125"
"1537794269521","1245","0.421875","-0.08984375","-0.051757812","-1.34375","-112.9375","-45.125"
"1537794269522","1246","-0.3408203","-0.05078125","0.0078125","-22.75","-30.375","-17.15625"
"1537794269523","1247","-0.24511719","0.1328125","0.5498047","-25.375","-1.1875","-5.4375"
"1537794269720","1248","-1.5703125","1.5507812","1.0419922","14.0625","-19.9375","130.53125"
"1537794269722","1249","-1.9931641","0.23046875","0.2890625","-13.40625","-71.4375","-35.84375"
"1537794269722","1250","-1.796875","-0.51953125","0.1875","-57.375","94.1875","-28.46875"
"1537794269722","1251","-1.7646484","0.043945312","0.6484375","-98.125","-88.46875","-35.78125"
"1537794269722","1252","-1.5195312","0.045898438","-0.23828125","-147.28125","-62.34375","15.375"
"1537794269919","1253","0.33496094","-0.12597656","0.1640625","-133.53125","48.90625","14.375"
"1537794269919","1254","0.67871094","0.9892578","0.8359375","-43.25","-26.53125","-15.09375"
"1537794269919","1255","-0.12597656","0.8515625","-0.19921875","60.75","-1.1875","48.3125"
"1537794269919","1256","-0.12207031","-0.27441406","-0.22265625","94.375","108.46875","49.0"
"1537794269920","1257","0.055664062","-0.25585938","0.74609375","40.15625","130.875","-31.34375"
"1537794270118","1258","-1.9931641","1.3486328","-0.046875","-50.15625","96.09375","116.4375"
"1537794270119","1259","-1.9931641","0.8544922","-0.71875","-23.1875","-39.15625","-42.0625"
"1537794270119","1260","-1.9931641","0.043945312","0.6621094","116.78125","-7.65625","-38.59375"
"1537794270120","1261","-1.3027344","0.24121094","0.20019531","58.46875","-64.71875","-46.84375"
"1537794270121","1262","-1.3408203","0.045898438","-0.31445312","81.4375","-56.375","-30.21875"
"1537794270317","1263","-0.1640625","0.061523438","0.3642578","80.15625","-7.84375","-49.15625"
"1537794270317","1264","1.2880859","0.18945312","0.09765625","48.84375","-22.0625","-38.53125"
"1537794270317","1265","0.36816406","-0.31933594","0.07128906","5.5625","-90.625","-40.25"
"1537794270318","1266","-0.40722656","-0.09375","0.09277344","-47.65625","-17.1875","-3.4375"
"1537794270319","1267","-0.4326172","0.11230469","0.41308594","-48.5","30.0625","-10.03125"
"1537794270516","1268","-1.6826172","1.7050781","0.50097656","37.3125","-4.84375","116.3125"
"1537794270516","1269","-1.9931641","0.045898438","0.7060547","-40.46875","-18.59375","-4.53125"
"1537794270714","1270","-1.671875","-0.58203125","0.4326172","-62.84375","58.0625","-22.0625"
"1537794270715","1271","-1.7949219","-0.041015625","0.63378906","-134.625","-96.78125","16.75"
"1537794270716","1272","-1.7246094","0.034179688","-0.32128906","-194.28125","-52.15625","35.3125"
"1537794270718","1273","0.26171875","0.061523438","0.4736328","-89.40625","128.4375","-40.1875"
"1537794270719","1274","1.0507812","1.0439453","0.81152344","-39.71875","9.65625","-7.53125"
"1537794270719","1275","0.053710938","0.8339844","-0.11035156","48.53125","-48.375","87.75"
"1537794270719","1276","-0.19140625","-0.4189453","-0.19726562","91.4375","58.375","57.15625"
"1537794270719","1277","-0.1640625","-0.2783203","0.78515625","48.15625","111.78125","-32.6875"
"1537794270913","1278","-1.0361328","1.0205078","0.29785156","29.125","76.9375","22.625"
"1537794270913","1279","-1.9931641","1.2158203","-0.1875","-0.78125","-126.5","93.125"
"1537794270914","1280","-1.9931641","0.25683594","0.08886719","128.90625","-33.84375","-70.5625"
"1537794270915","1281","-1.2832031","0.48828125","0.43945312","38.59375","-64.96875","-55.8125"
"1537794271114","1282","-1.5732422","-0.15625","-0.13671875","93.9375","-81.34375","-36.40625"
"1537794271114","1283","-0.32714844","-0.020507812","0.15039062","66.84375","46.96875","-70.46875"
