# PDIoT walking data,,,,,,,
# Start time: 20180925T193250,,,,,,,
# Group: A,,,,,,,
# Subject: Adela,,,,,,,
# Activity type: Climbing stairs,,,,,,,
# Sensor position: Wrist,,,,,,,
# Side of body: Left,,,,,,,
# Sensor mounting: Body,,,,,,,
# Number of steps: 50,,,,,,,
# Notes: ,,,,,,,
,,,,,,,
timestamp,seq,accel_x,accel_y,accel_z,gyro_x,gyro_y,gyro_z
1537900370497,0,0.4267578,-0.87109375,0.17480469,0.65625,0.34375,0.09375
1537900370498,1,0.44921875,-0.87597656,0.19042969,-5.625,-1.40625,2.78125
1537900370499,2,0.3857422,-0.80859375,0.18652344,2.78125,0.03125,3.65625
1537900370499,3,0.44140625,-0.8408203,0.2109375,-18.25,-2.53125,4.125
1537900370499,4,0.32714844,-0.83496094,0.15820312,18,2,-0.75
1537900370695,5,0.43847656,-0.85839844,0.17675781,21.65625,12.875,-2.09375
1537900370697,6,0.41308594,-0.8144531,0.203125,21.90625,9.5,-5.6875
1537900370697,7,0.42871094,-0.84277344,0.24804688,52.59375,16.65625,-11.84375
1537900370697,8,0.43652344,-0.8359375,0.28710938,52.28125,17.0625,-13.625
1537900370698,9,0.44433594,-0.8496094,0.33789062,62.4375,16.53125,-14.71875
1537900370894,10,0.4345703,-0.8613281,0.33398438,55.84375,19.6875,-14.59375
1537900370895,11,0.38671875,-0.7470703,0.32421875,36.90625,23.25,-12.03125
1537900370896,12,0.4921875,-0.8564453,0.44921875,39.84375,22.5625,-11.25
1537900370897,13,0.42871094,-0.74121094,0.40625,20.84375,14.375,-10.34375
1537900370897,14,0.47265625,-0.7871094,0.47851562,15.5625,17.3125,-9.28125
1537900371093,15,0.45214844,-0.76953125,0.4892578,22.625,10.375,-12.15625
1537900371094,16,0.4375,-0.7480469,0.4873047,8.59375,12.625,-7.53125
1537900371096,17,0.45507812,-0.6777344,0.5205078,-1.34375,13.59375,-2.40625
1537900371097,18,0.48242188,-0.75878906,0.57421875,11.15625,6.46875,-1.0625
1537900371097,19,0.45117188,-0.72265625,0.5332031,-0.875,-1.1875,-1.78125
1537900371293,20,0.4501953,-0.7060547,0.47265625,3.46875,-0.8125,-1.40625
1537900371294,21,0.4375,-0.64746094,0.48242188,34.40625,5.78125,-3
1537900371491,22,0.4814453,-0.75878906,0.5810547,20.8125,-1.34375,0.28125
1537900371492,23,0.42871094,-0.57910156,0.5332031,36.84375,-6.65625,-5.4375
1537900371493,24,0.46191406,-0.65722656,0.60253906,61.4375,6.6875,-7.03125
1537900371494,25,0.47753906,-0.60253906,0.6669922,55.15625,-4.34375,-9.0625
1537900371494,26,0.5439453,-0.5732422,0.6220703,46.1875,3.78125,-10.03125
1537900371495,27,0.46484375,-0.6123047,0.6875,18,-1.3125,-9.84375
1537900371690,28,0.46289062,-0.7158203,0.58984375,3.90625,3.40625,-0.75
1537900371690,29,0.4560547,-0.6044922,0.6591797,-19.1875,-2.21875,6.34375
1537900371691,30,0.44140625,-0.53125,0.625,-18.625,-2.59375,11.59375
1537900371692,31,0.453125,-0.5722656,0.6826172,-3.96875,3.15625,12.25
1537900371694,32,0.48242188,-0.6669922,0.68359375,-13.75,0.15625,10.0625
1537900371694,33,0.4248047,-0.58203125,0.62597656,-8.1875,0.21875,7.8125
1537900371694,34,0.45996094,-0.6376953,0.6230469,-8.1875,1.15625,6.21875
1537900371889,35,0.42382812,-0.62890625,0.6201172,-8.125,2.125,7.5
1537900371890,36,0.43066406,-0.66308594,0.5566406,-14.90625,1.5625,10.84375
1537900371891,37,0.38476562,-0.71191406,0.5878906,-16,2.59375,16.40625
1537900371892,38,0.3173828,-0.921875,0.53222656,-42.875,-3.90625,34.34375
1537900371892,39,0.15722656,-0.9951172,0.50390625,-73.6875,-10.5625,53.09375
1537900372087,40,0.08886719,-1.1064453,0.4501953,-94.1875,-10.34375,73.59375
1537900372088,41,0.061523438,-1.0429688,0.4404297,-120.125,-13.625,92.6875
1537900372088,42,0.115234375,-1,0.43554688,-112.25,-1.96875,112.21875
1537900372286,43,0.07714844,-1.0771484,0.45410156,-158.53125,-9,142.125
1537900372286,44,0.1328125,-1.0234375,0.35058594,-156.21875,-1.46875,164.65625
1537900372288,45,0.21484375,-0.9160156,0.3330078,-179.53125,-21.25,171.1875
1537900372289,46,0.23828125,-0.8066406,0.3466797,-152.1875,-37.375,161.84375
1537900372289,47,0.1953125,-0.8642578,0.18457031,-102.90625,-63.8125,140.125
1537900372289,48,0.10839844,-0.65722656,0.044921875,-79.96875,-85.90625,100.875
1537900372289,49,-0.13476562,-0.8300781,-0.045898438,-38.15625,-89.1875,67.5
1537900372486,50,-0.25878906,-0.859375,-0.10644531,-12.15625,-71.84375,29.90625
1537900372487,51,-0.31933594,-0.8964844,-0.13574219,-15.21875,-58.5,6.9375
1537900372487,52,-0.4609375,-0.7519531,-0.26367188,4.25,-32.1875,-8.75
1537900372487,53,-0.46191406,-1.1035156,-0.19140625,28.90625,-5.5,-23.15625
1537900372487,54,-0.4169922,-0.8623047,-0.115234375,5.40625,9.03125,-20.15625
1537900372686,55,-0.3515625,-0.9560547,-0.18359375,-39.1875,-9.59375,-25.34375
1537900372686,56,-0.3232422,-0.79296875,-0.107421875,-11.0625,-14.1875,-27.34375
1537900372686,57,-0.34472656,-0.91503906,-0.08886719,22.875,-6.84375,-30.15625
1537900372686,58,-0.51953125,-0.9863281,-0.20703125,17.8125,-25.78125,-29.375
1537900372687,59,-0.5078125,-0.84375,-0.07128906,48.3125,2.96875,-29.96875
1537900372882,60,-0.34179688,-0.76660156,-0.06347656,70.96875,7.8125,-18.4375
1537900372883,61,-0.2861328,-1.1308594,0.044921875,73.28125,3.34375,-20.40625
1537900372883,62,-0.29589844,-0.6738281,0.18164062,27.9375,-27.78125,-16.1875
1537900372884,63,-0.35253906,-0.90722656,0.2109375,103.3125,3.09375,-14.53125
1537900372884,64,-0.34179688,-1.0615234,0.15039062,43.75,-10.8125,-7.34375
1537900373283,65,-0.46484375,-1.109375,0.04296875,-2.875,-13.625,5.21875
1537900373283,66,-0.5107422,-0.89746094,0.0087890625,2.0625,3.53125,0
1537900373284,67,-0.20898438,-1.0429688,0.11425781,-70.03125,-6.4375,-9.65625
1537900373285,68,-0.0703125,-0.9638672,0.0703125,-66,-11.5,1.15625
1537900373285,69,-0.16503906,-0.96191406,0.20117188,-75.21875,-38.40625,6.21875
1537900373285,70,-0.13183594,-0.84375,0.11816406,-101.9375,-41.53125,-1.84375
1537900373285,71,-0.30371094,-0.67089844,-0.022460938,-47.4375,-47.5625,-2.53125
1537900373285,72,-0.25195312,-1.0009766,0.11621094,4.9375,-30.59375,-5.25
1537900373285,73,-0.18066406,-1.03125,0.0068359375,-85.28125,-52.9375,6.03125
1537900373480,74,-0.36132812,-0.89453125,-0.1171875,-22.28125,-35.21875,4.8125
1537900373481,75,-0.48632812,-0.95703125,-0.07421875,-32.71875,-9.21875,8.15625
1537900373481,76,-0.46875,-0.76464844,-0.15625,-47.1875,-13.0625,4.125
1537900373481,77,-0.31445312,-1.1191406,-0.005859375,2.65625,9.9375,6.875
1537900373481,78,-0.3095703,-0.9970703,-0.13085938,-34.0625,-7.03125,17.1875
1537900373679,79,-0.5136719,-0.9033203,-0.3046875,-40.40625,-12.46875,14.21875
1537900373876,80,-0.49316406,-1.0751953,-0.1875,-58.0625,3.84375,24.65625
1537900373878,81,-0.29101562,-0.76660156,-0.28222656,-81.0625,8.78125,22.875
1537900373878,82,-0.3203125,-1.1425781,-0.22753906,-63.25,-3.875,15.5
1537900373878,83,-0.27734375,-0.8359375,-0.31347656,-101.34375,-15.03125,14.09375
1537900373878,84,-0.42089844,-0.86328125,-0.36035156,-94.3125,-18.8125,18.125
1537900373879,85,-0.5722656,-0.8457031,-0.43847656,-87.90625,2.0625,24.71875
1537900373879,86,-0.7207031,-0.7939453,-0.5566406,-81.3125,8.28125,18.40625
1537900373880,87,-0.73828125,-0.6904297,-0.53808594,-61.125,41.65625,2.5625
1537900373881,88,-0.6904297,-0.58691406,-0.6464844,-24.78125,61.15625,2.71875
1537900374075,89,-0.52441406,-0.6015625,-0.6816406,13.03125,86.65625,12.0625
1537900374075,90,-0.40625,-0.62109375,-0.5800781,48.375,36.125,12.75
1537900374076,91,-0.6220703,-0.45117188,-0.7597656,63.34375,19.46875,19.5625
1537900374076,92,-0.3955078,-0.5449219,-0.6455078,121.8125,83.78125,35.625
1537900374076,93,-0.27734375,-0.8857422,-0.63964844,163.0625,96.40625,29.15625
1537900374275,94,-0.23535156,-0.9433594,-0.6191406,100.375,123.34375,33.125
1537900374276,95,-0.10253906,-0.9375,-0.4375,42.28125,111.625,32.5625
1537900374276,96,-0.10449219,-0.7890625,-0.28320312,-14.96875,94.53125,27.15625
1537900374277,97,-0.041015625,-0.74609375,-0.3203125,-13.75,96.3125,28
1537900374277,98,-0.043945312,-0.9453125,-0.3564453,-12.90625,85.25,28.3125
1537900374473,99,-0.068359375,-0.9121094,-0.4169922,-80.15625,62.5,33.5
1537900374473,100,-0.1640625,-0.6826172,-0.4765625,-114.21875,43.4375,37.75
1537900374473,101,-0.1953125,-0.5654297,-0.54296875,-57.8125,46.0625,36.375
1537900374474,102,-0.24316406,-0.5263672,-0.5761719,-33.71875,40.21875,39.21875
1537900374671,103,-0.23535156,-0.6035156,-0.6982422,-5.03125,30.75,26.78125
1537900374672,104,-0.16210938,-0.5341797,-0.6357422,38.1875,37.09375,23.53125
1537900374672,105,-0.17382812,-0.7451172,-0.6904297,34.28125,15.71875,20.25
1537900374673,106,-0.15625,-0.70996094,-0.734375,23,11.9375,19.8125
1537900374870,107,-0.10839844,-0.8046875,-0.7480469,30,2.375,21.90625
1537900374871,108,-0.07714844,-0.8701172,-0.7451172,27.34375,-3.625,10.59375
1537900374871,109,-0.043945312,-1.1865234,-0.8125,38.0625,-4.53125,4.5625
1537900374872,110,-0.022460938,-1.2470703,-0.75390625,28.1875,-6.90625,-10.5
1537900374872,111,-0.047851562,-1.2988281,-0.7480469,83.46875,11.9375,-38.65625
1537900374872,112,0.046875,-1.3603516,-0.7080078,48.9375,3.90625,-86.9375
1537900375269,113,-0.024414062,-1.1806641,-0.62109375,10,-14.40625,-138.875
1537900375270,114,-0.14746094,-1.1015625,-0.62890625,11.09375,-14.40625,-169.15625
1537900375270,115,-0.20800781,-0.96191406,-0.5830078,47.59375,2.1875,-183.59375
1537900375270,116,-0.15820312,-1.0097656,-0.4765625,60.21875,19.8125,-178.1875
1537900375270,117,-0.061523438,-0.81933594,-0.3671875,-37.625,10,-151.1875
1537900375270,118,-0.0703125,-0.5078125,-0.37109375,-24.3125,19.34375,-130.625
1537900375272,119,0.087890625,-0.5078125,-0.234375,16.78125,23.96875,-106.09375
1537900375272,120,0.09667969,-0.50390625,-0.17773438,3.78125,12.9375,-72.84375
1537900375273,121,0.109375,-0.38378906,-0.11621094,-20.84375,-7.9375,-39.375
1537900375466,122,0.14550781,-0.7685547,-0.119140625,53.75,-12.28125,41.125
1537900375467,123,0.119140625,-0.97558594,-0.21875,-4.90625,-24.25,84.75
1537900375467,124,-0.053710938,-0.9033203,-0.2578125,13.34375,-38.71875,124.3125
1537900375467,125,-0.2841797,-1.2021484,-0.26660156,80.71875,-26.75,182.125
1537900375468,126,-0.26953125,-1.2802734,-0.328125,50.65625,-5.25,192
1537900375667,127,-0.21484375,-1.2412109,-0.39648438,17.5,-19.96875,180.09375
1537900375668,128,-0.41308594,-1.3271484,-0.46679688,-13.03125,-18.9375,160.875
1537900375668,129,-0.37304688,-1.0625,-0.43164062,-13.375,18.28125,137.25
1537900375668,130,-0.3798828,-0.99316406,-0.33007812,59.8125,54,126.09375
1537900375668,131,-0.2685547,-1.1123047,-0.3076172,44.25,71.875,119.96875
1537900375864,132,-0.2763672,-0.9189453,-0.29296875,9.03125,55.96875,114.96875
1537900375864,133,-0.31640625,-0.83496094,-0.25390625,23.125,59.8125,112.65625
1537900375864,134,-0.27441406,-0.8671875,-0.2783203,22.09375,51.4375,104.53125
1537900376065,135,-0.26953125,-0.79589844,-0.25878906,-0.4375,38.125,101.1875
1537900376065,136,-0.3125,-0.7128906,-0.28222656,1.5625,36.96875,94.84375
1537900376065,137,-0.30859375,-0.7832031,-0.36132812,14.15625,39.15625,87.09375
1537900376065,138,-0.30859375,-0.7402344,-0.39257812,4.3125,38.4375,75.1875
1537900376065,139,-0.3095703,-0.8671875,-0.4111328,21.09375,44.125,61.625
1537900376066,140,-0.32714844,-1.0058594,-0.4423828,26,32.09375,38.9375
1537900376067,141,-0.30859375,-1.0625,-0.39746094,27.625,18.34375,10.25
1537900376263,142,-0.30273438,-1.1591797,-0.3701172,29.34375,-6.375,-16.75
1537900376264,143,-0.54003906,-1.3046875,-0.4296875,8.09375,-44.15625,-41.6875
1537900376264,144,-0.38085938,-0.9003906,-0.3408203,-18.6875,-33.40625,-86.0625
1537900376265,145,-0.33984375,-0.9560547,-0.2578125,20,-51.59375,-110.4375
1537900376265,146,-0.5419922,-1.0136719,-0.2890625,-39.625,-44.21875,-117.8125
1537900376460,147,-0.30859375,-1.0214844,-0.22265625,-34.375,-42.6875,-141.75
1537900376461,148,-0.3828125,-1.2216797,-0.17089844,-58.71875,-39.8125,-153.8125
1537900376461,149,-0.30566406,-1.359375,-0.2421875,-79.25,-50.84375,-171.53125
1537900376461,150,-0.3154297,-1.2646484,-0.10839844,-64.21875,-48.40625,-195.375
1537900376462,151,-0.18945312,-1.2402344,-0.08984375,-20.40625,-43.65625,-204.59375
1537900376659,152,-0.16894531,-1.0058594,-0.078125,-58.84375,-66.1875,-208.34375
1537900376661,153,-0.09667969,-0.7841797,-0.057617188,-34.1875,-62.09375,-198.4375
1537900376661,154,-0.049804688,-0.7910156,-0.08886719,-37.125,-65.75,-175.3125
1537900376661,155,-0.044921875,-0.55859375,-0.16308594,-39.25,-51.46875,-156.25
1537900376662,156,0.055664062,-0.4921875,-0.23730469,20.1875,-29.0625,-143.25
1537900376857,157,0.2763672,-0.4970703,-0.24609375,44.59375,-13.125,-119.46875
1537900376858,158,0.43066406,-0.5683594,-0.32128906,21.59375,-36.8125,-76.25
1537900376858,159,0.4453125,-0.4736328,-0.35546875,45.21875,-49.5625,-20.78125
1537900376858,160,0.3720703,-0.6347656,-0.40820312,90.125,-65.03125,55.21875
1537900376859,161,-0.06347656,-1.1386719,-0.29882812,140.71875,-100.46875,124.375
1537900377059,162,-0.25976562,-1.2353516,-0.39648438,45.75,-80.65625,166.71875
1537900377060,163,-0.3935547,-1.1972656,-0.4970703,22.125,-100.1875,157.21875
1537900377060,164,-0.3935547,-1.1044922,-0.43847656,-61.40625,-69.15625,142.75
1537900377060,165,-0.41503906,-0.81640625,-0.4111328,-31.09375,-56.46875,134.125
1537900377060,166,-0.38867188,-0.8564453,-0.4111328,9.4375,-20.09375,126.75
1537900377652,167,-0.3359375,-0.90234375,-0.36132812,46.5625,-18.3125,125.28125
1537900377653,168,-0.29589844,-0.94433594,-0.36914062,24.34375,-15.6875,127.5
1537900377654,169,-0.24609375,-0.9375,-0.3486328,26.40625,-32.84375,120.21875
1537900377655,170,-0.23925781,-0.99609375,-0.3779297,17.8125,-37,103.6875
1537900377655,171,-0.24511719,-0.953125,-0.3935547,3.34375,-45.5,78.125
1537900377655,172,-0.2578125,-0.9111328,-0.36914062,-9.59375,-27.59375,54.375
1537900377850,173,-0.3876953,-0.7919922,-0.37109375,-22.53125,-27.90625,39.0625
1537900377851,174,-0.4658203,-0.68652344,-0.34179688,-22.34375,-4.46875,37.8125
1537900377852,175,-0.4921875,-0.7675781,-0.3671875,2,0.84375,37.15625
1537900377852,176,-0.36035156,-0.9658203,-0.3828125,-26.9375,-30.09375,19.6875
1537900377853,177,-0.5722656,-1.2949219,-0.05859375,-45.90625,-28.09375,-148.40625
1537900377854,178,-0.4453125,-1.21875,-0.0126953125,-25.34375,-23.8125,-179.03125
1537900377854,179,-0.5595703,-1.3251953,-9.765625E-04,-45.4375,-54.875,-198.9375
1537900377855,180,-0.5253906,-1.1640625,-0.025390625,-73.8125,-66.25,-205.34375
1537900377856,181,-0.5332031,-1.140625,-0.06738281,-25.53125,-58.78125,-213.09375
1537900378050,182,-0.5253906,-1.1923828,-0.061523438,-50.125,-58.3125,-198.75
1537900378051,183,-0.54589844,-0.95214844,-0.09765625,-59.15625,-49.34375,-176.40625
1537900378051,184,-0.5566406,-0.89746094,-0.09082031,-21.4375,-35.21875,-156.8125
1537900378051,185,-0.5,-0.7402344,-0.09667969,4.625,-20.34375,-136.5
1537900378051,186,-0.39648438,-0.7373047,-0.09277344,26.71875,-27.1875,-106.78125
1537900378447,187,-0.34765625,-0.61035156,-0.16503906,7.4375,-30.53125,-48.21875
1537900378448,188,-0.24316406,-0.51464844,-0.09667969,38.125,-21.875,21.65625
1537900378448,189,-0.18457031,-0.5957031,-0.17675781,54.375,-26.4375,70.65625
1537900378449,190,-0.22753906,-0.5683594,-0.3857422,40.875,-33.40625,105.9375
1537900378451,191,-0.30273438,-0.85839844,-0.33496094,36.375,-37,144.09375
1537900378451,192,-0.44335938,-0.9746094,-0.47070312,23,-14.125,167.65625
1537900378451,193,-0.3955078,-0.9863281,-0.40429688,57,13,171.5
1537900378451,194,-0.42871094,-1.2490234,-0.4326172,54.4375,30.0625,168
1537900378453,195,-0.28710938,-1.1259766,-0.39257812,8.59375,36.125,157.875
1537900378647,196,-0.24414062,-1.1591797,-0.3779297,28.125,33.6875,144.8125
1537900378647,197,-0.21289062,-1.3320312,-0.3671875,-9.71875,26.15625,128.46875
1537900378647,198,-0.19628906,-1.1044922,-0.32421875,-20.03125,12.1875,96.125
1537900378648,199,-0.038085938,-1.1269531,-0.2626953,3.71875,13.40625,60.40625
1537900378649,200,0.0546875,-1.3007812,-0.27441406,-15.875,-9.15625,26.15625
1537900378649,201,0.024414062,-1.0341797,-0.2548828,-6.375,-11,-14.53125
1537900378845,202,0.15234375,-1.1777344,-0.20410156,63.03125,-17.28125,-75.6875
1537900378846,203,-0.061523438,-1.2441406,-0.24804688,5.0625,-42.9375,-118.3125
1537900378846,204,-0.26757812,-1.2314453,-0.20898438,-56.78125,-58.0625,-143.375
1537900378847,205,-0.3701172,-1.2304688,-0.24609375,-21.75,-44.09375,-159.875
1537900378847,206,-0.3671875,-1.3359375,-0.24707031,-36.75,-25.03125,-164.875
1537900379043,207,-0.3642578,-1.1103516,-0.25683594,-46.84375,-22.96875,-161.875
1537900379044,208,-0.3076172,-0.93847656,-0.22851562,-24.3125,-6.59375,-163.09375
1537900379044,209,-0.27246094,-0.95410156,-0.23339844,-8.875,-5.21875,-158.28125
1537900379046,210,-0.20507812,-0.94628906,-0.21484375,-28.9375,-13.8125,-145.40625
1537900379046,211,-0.24804688,-0.8515625,-0.22851562,-44.75,-19.96875,-122.28125
1537900379244,212,-0.16796875,-0.6796875,-0.19335938,-24,-16.0625,-87.25
1537900379244,213,-0.19238281,-0.7451172,-0.15136719,-19.0625,-31.21875,-42.5625
1537900379441,214,-0.29003906,-0.6230469,-0.109375,-28.53125,-41.40625,20.375
1537900379442,215,-0.37695312,-0.62109375,-0.037109375,56.25,-16.96875,101.65625
1537900379443,216,-0.30078125,-0.9785156,-0.10644531,89.59375,14.15625,133.21875
1537900379443,217,-0.19238281,-0.8613281,-0.29785156,23.3125,-1.78125,132.5
1537900379443,218,-0.29003906,-0.953125,-0.234375,11.53125,-2.75,144.40625
1537900379642,219,-0.3955078,-1.0566406,-0.35742188,26.15625,27.5625,150.5
1537900379643,220,-0.30371094,-1.1005859,-0.26953125,61.15625,57.40625,143.46875
1537900379840,221,-0.27929688,-1.15625,-0.33203125,51.5625,54.375,134.625
1537900379841,222,-0.22363281,-1.1064453,-0.29296875,27.4375,50.15625,124.25
1537900379841,223,-0.18945312,-1.0292969,-0.28320312,26.15625,39.65625,107.71875
1537900379842,224,-0.20019531,-1.0585938,-0.32128906,2,29.59375,90.375
1537900379842,225,-0.21386719,-1.015625,-0.3076172,-16.1875,19.75,73.46875
1537900379843,226,-0.14453125,-1.0029297,-0.30371094,-26.875,23.96875,56.4375
1537900379843,227,-0.10839844,-0.9560547,-0.31054688,-1.59375,29.71875,34.34375
1537900379843,228,-0.061523438,-1.1523438,-0.2763672,30.1875,30,12.375
1537900380037,229,-0.045898438,-1.3144531,-0.25878906,9.5625,16.53125,-7.09375
1537900380037,230,-0.09375,-1.1816406,-0.296875,-7.59375,-4.28125,-60.3125
1537900380038,231,-0.16113281,-1.2324219,-0.20996094,12.5625,-15.46875,-107
1537900380039,232,-0.24902344,-1.1640625,-0.24902344,-22,-28.03125,-131.25
1537900380039,233,-0.22949219,-1.1416016,-0.22949219,-15.59375,-35.0625,-148.75
1537900380041,234,-0.3017578,-1.2128906,-0.21972656,-31.15625,-29.8125,-145.59375
1537900380041,235,-0.23925781,-1.1494141,-0.20898438,-35.96875,-27.90625,-150.40625
1537900380043,236,-0.2421875,-1.0039062,-0.19140625,-26.5625,-18.75,-152.25
1537900380235,237,-0.23828125,-0.88183594,-0.24707031,-31.03125,-18.3125,-150.84375
1537900380236,238,-0.18164062,-0.765625,-0.19824219,-20.84375,-16.25,-142.03125
1537900380236,239,-0.13378906,-0.78515625,-0.14453125,-18.3125,-21,-118.71875
1537900380237,240,-0.1171875,-0.7138672,-0.12011719,-16.75,-23.75,-84.65625
1537900380435,241,-0.11035156,-0.82128906,-0.15234375,-1.65625,-27.125,-48.53125
1537900380435,242,-0.11230469,-0.8251953,-0.1484375,-21.25,-36.5,-8.0625
1537900380436,243,-0.17382812,-0.7236328,-0.19140625,8.96875,-30.40625,43.5625
1537900380436,244,-0.17089844,-0.8300781,-0.14941406,55.15625,-1.96875,89.71875
1537900380438,245,-0.11816406,-0.9453125,-0.28515625,43.8125,-1,103.1875
1537900380633,246,-0.14648438,-0.8779297,-0.26171875,23.25,-9.71875,108.875
1537900380634,247,-0.2626953,-1.0195312,-0.31054688,35.4375,3.53125,117
1537900380634,248,-0.25683594,-1.1201172,-0.32226562,15,25.4375,119.5625
1537900380634,249,-0.2578125,-1.0107422,-0.31445312,20.0625,36.71875,118.5
1537900380636,250,-0.2109375,-1.0146484,-0.31347656,34.96875,61.15625,108.75
1537900380834,251,-0.14160156,-0.9814453,-0.30078125,32.625,62.71875,100.6875
1537900380835,252,-0.12109375,-0.9736328,-0.28515625,26.59375,69.5625,95.1875
1537900380835,253,-0.10253906,-1.0527344,-0.29101562,22.75,66.625,85
1537900380835,254,-0.13867188,-1.0546875,-0.30371094,-10.03125,59.3125,75.78125
1537900380836,255,-0.12011719,-0.94921875,-0.26367188,-5.15625,57.125,67.71875
1537900381031,256,-0.072265625,-1.0458984,-0.23535156,16.65625,50.03125,59.875
1537900381031,257,-0.020507812,-1.1552734,-0.2265625,13.84375,26.40625,45.9375
1537900381032,258,0.052734375,-1.1982422,-0.19921875,3.46875,-2.40625,21.84375
1537900381033,259,-0.0087890625,-1.2255859,-0.18164062,8.09375,-32.25,-15.59375
1537900381033,260,-0.08105469,-1.1904297,-0.19238281,-12.28125,-48.90625,-60.6875
1537900381230,261,-0.11816406,-1.1220703,-0.16015625,-14.53125,-57.3125,-95.71875
1537900381231,262,-0.22851562,-1.2568359,-0.16601562,-25.28125,-70.4375,-116.59375
1537900381231,263,-0.24609375,-1.1708984,-0.10839844,-36.5,-54.15625,-133.6875
1537900381233,264,-0.17089844,-1.1816406,-0.107421875,-22.28125,-62.625,-150.03125
1537900381234,265,-0.19921875,-1.1972656,-0.12695312,-43.40625,-71.96875,-151.375
1537900381432,266,-0.25195312,-1.0283203,-0.08496094,-61.46875,-76.5,-150.34375
1537900381432,267,-0.21484375,-0.84765625,-0.083984375,-26.9375,-59.71875,-143.625
1537900381432,268,-0.16113281,-0.71972656,-0.025390625,-22.84375,-64.46875,-126.0625
1537900381630,269,-0.09863281,-0.52441406,-0.0078125,-34.4375,-69.21875,-102.25
1537900381630,270,-0.103515625,-0.5019531,-0.0126953125,-7.40625,-72.40625,-74.28125
1537900381630,271,-0.09863281,-0.7294922,-0.0625,27.28125,-59.9375,-42.75
1537900381630,272,-0.13183594,-0.83984375,-0.19433594,-0.8125,-57.5625,-4.15625
1537900381630,273,-0.2529297,-0.8457031,-0.26953125,27.9375,-45.0625,28.375
1537900381631,274,-0.3466797,-1.0410156,-0.3408203,39.78125,-25.53125,79.03125
1537900381631,275,-0.4814453,-1.1865234,-0.3203125,32.34375,-13.6875,135.125
1537900381826,276,-0.4013672,-1.0322266,-0.3251953,55.71875,16.15625,158.5625
1537900382025,277,-0.3408203,-1.2490234,-0.30859375,64.5,15.84375,145.4375
1537900382226,278,-0.2705078,-1.1152344,-0.28710938,10.40625,-0.5,131.09375
1537900382226,279,-0.3388672,-1.0791016,-0.29785156,-6.375,13.78125,120.59375
1537900382227,280,-0.27441406,-1.0058594,-0.27148438,-8.75,35.3125,110.65625
1537900382227,281,-0.25585938,-0.9013672,-0.2578125,38.375,56.9375,94.78125
1537900382422,282,-0.171875,-0.9355469,-0.23730469,36.65625,65.96875,81.90625
1537900382423,283,-0.125,-0.81640625,-0.24707031,17.3125,48.8125,76.8125
1537900382423,284,-0.16699219,-0.8388672,-0.265625,10.84375,39.28125,70.1875
1537900382424,285,-0.20019531,-0.796875,-0.2421875,7.90625,21.28125,61.875
1537900382425,286,-0.23144531,-0.84375,-0.33496094,2,12.375,53.34375
1537900382425,287,-0.3828125,-1.015625,-0.2685547,7.75,-22.53125,11.03125
1537900382425,288,-0.47265625,-1.1162109,-0.30078125,9.625,-35.125,4.375
1537900382426,289,-0.48632812,-1.0625,-0.27148438,18.34375,-43.96875,3.90625
1537900382427,290,-0.5576172,-1.1201172,-0.23632812,8.40625,-55.5625,-2.875
1537900382622,291,-0.4873047,-1.1035156,0.024414062,-35.46875,-72.78125,-88.875
1537900382622,292,-0.45898438,-1.0546875,0.20507812,-58.125,-63.625,-115.3125
1537900382622,293,-0.55078125,-1.1171875,0.1640625,-43.34375,-85.9375,-126.96875
1537900382624,294,-0.40429688,-1.109375,0.13867188,-64.90625,-95.40625,-128.90625
1537900382624,295,-0.515625,-1.1552734,0.16210938,-86.5,-115.8125,-122.40625
1537900382822,296,-0.55078125,-1.0576172,0.041015625,-103.21875,-105.0625,-112.6875
1537900382822,297,-0.5214844,-1.0097656,0.020507812,-88.875,-86.5625,-103.03125
1537900382822,298,-0.4453125,-0.84472656,-0.020507812,-86.0625,-67.03125,-89.6875
1537900382823,299,-0.3935547,-0.6699219,-0.022460938,-78.5625,-52.75,-74.125
1537900382823,300,-0.34960938,-0.67578125,-0.036132812,-45.71875,-36.5,-58.3125
1537900383219,301,-0.34960938,-0.6767578,-0.08886719,-30.21875,-32.25,-43.40625
1537900383220,302,-0.30566406,-0.71484375,-0.11328125,-17.78125,-21.625,-35.84375
1537900383416,303,-0.27148438,-0.6894531,-0.13378906,-6.53125,-20.46875,-29.96875
1537900383417,304,-0.22558594,-0.60839844,-0.18359375,-2.46875,-18.4375,-19
1537900383417,305,-0.1796875,-0.64941406,-0.203125,6.5,-28.21875,0.46875
1537900383417,306,-0.22753906,-0.62890625,-0.25390625,-1.71875,-44.09375,25.9375
1537900383418,307,-0.3310547,-0.7158203,-0.265625,16.46875,-57.875,60.59375
1537900383418,308,-0.5654297,-0.8671875,-0.18359375,32.53125,-75.875,100.375
1537900383419,309,-0.92871094,-0.98535156,-0.21875,36.125,-96.875,148.1875
1537900383420,310,-1.125,-0.9355469,-0.22265625,49.46875,-85.28125,194
1537900383421,311,-0.9765625,-0.8017578,-0.28125,43.1875,-66.90625,209.09375
1537900383617,312,-0.8828125,-0.41015625,-0.09765625,26.28125,4.8125,117.28125
1537900383618,313,-0.859375,-0.36328125,-0.09765625,22.75,5.53125,105.34375
1537900383618,314,-0.8857422,-0.31835938,-0.06738281,18.71875,-4.28125,101.65625
1537900383618,315,-0.8984375,-0.32617188,-0.08105469,12.5,3.78125,99.03125
1537900383618,316,-0.85839844,-0.24023438,-0.07519531,8.40625,-2.09375,90.0625
1537900383813,317,-0.83496094,-0.1796875,-0.07421875,21.84375,3.03125,76.65625
1537900383814,318,-0.8232422,-0.18554688,-0.055664062,27.9375,0.15625,63.78125
1537900383815,319,-0.87597656,-0.22167969,-0.024414062,21.46875,-1.40625,50.40625
1537900383815,320,-1.0126953,-0.27929688,-0.001953125,20.1875,-12.53125,33.375
1537900383815,321,-1.0351562,-0.36523438,-0.048828125,10.65625,-14.125,14.5
1537900384012,322,-1.1376953,-0.42578125,-0.033203125,0,-36.9375,-10.5625
1537900384213,323,-1.4707031,-0.5878906,-0.032226562,-36.28125,-54.46875,-37.84375
1537900384213,324,-1.0673828,-0.3828125,-0.15234375,-67.59375,2.0625,-64.90625
1537900384214,325,-0.6669922,-0.4453125,-0.125,-88.34375,-23.34375,-90.65625
1537900384214,326,-1.1367188,-0.5419922,0.0048828125,-145.65625,-40.46875,-110.5
1537900384215,327,-1.3076172,-0.36914062,0.13183594,-155.78125,-3.8125,-128.6875
1537900384409,328,-1.2792969,-0.390625,0.15234375,-134.28125,18.84375,-134.40625
1537900384409,329,-1.1992188,-0.3076172,0.16210938,-103.96875,39.21875,-133.5
1537900384411,330,-1.0673828,-0.296875,0.15136719,-78.625,42.53125,-131.25
1537900384412,331,-0.9794922,-0.29785156,0.14160156,-67.40625,40.09375,-117.5
1537900384413,332,-0.95410156,-0.296875,0.13378906,-62.9375,32.03125,-106.71875
1537900384413,333,-0.9082031,-0.2939453,0.13378906,-45.71875,32.875,-100.0625
1537900384414,334,-0.8623047,-0.17773438,-0.07128906,-50.75,29.78125,-78.3125
1537900384414,335,-0.6376953,-0.21875,-0.00390625,-45.0625,21.78125,-41.21875
1537900384415,336,-1.03125,-0.3017578,-0.029296875,-27.3125,0.71875,-13.6875
1537900384610,337,-0.85839844,-0.359375,-0.095703125,-29.25,12.4375,2.5625
1537900384611,338,-0.9951172,-0.41210938,-0.030273438,-37.3125,-20.40625,12.75
1537900384809,339,-1.0830078,-0.32226562,0.16601562,-24.90625,-34.375,19.75
1537900384809,340,-1.4423828,-0.33984375,0.029296875,-2.28125,-57.15625,38.4375
1537900384810,341,-0.8359375,-0.24902344,-0.11035156,4.625,-31.6875,69.5
1537900384810,342,-0.7548828,-0.3125,-0.1640625,-2.09375,-92.25,84.34375
1537900384810,343,-1.1123047,-0.2939453,-0.16015625,2.0625,-77.09375,85.625
1537900384811,344,-1.0400391,-0.22851562,-0.11035156,55.21875,-37.3125,74.9375
1537900384812,345,-1.0839844,-0.37890625,-0.119140625,107.71875,-15.625,67.96875
1537900384812,346,-0.94921875,-0.41992188,-0.18847656,94.90625,-5.09375,78.84375
1537900385006,347,-0.93652344,-0.41601562,-0.13378906,93.25,-10.625,91.21875
1537900385006,348,-0.8671875,-0.4638672,-0.10253906,88.375,-1.125,98.0625
1537900385008,349,-0.88378906,-0.49609375,-0.11035156,61.6875,-9.34375,100.375
1537900385008,350,-0.81933594,-0.47851562,-0.10839844,28.3125,-8.9375,100.9375
1537900385008,351,-0.81152344,-0.3408203,-0.119140625,-6.90625,-22.0625,100.625
1537900385205,352,-0.9560547,-0.26171875,-0.11621094,14.28125,-25.21875,100.4375
1537900385206,353,-1,-0.37890625,-0.123046875,36.96875,-4.53125,92.5625
1537900385207,354,-0.96777344,-0.36621094,-0.05859375,27.34375,-2.21875,62.0625
1537900385207,355,-1.0976562,-0.25390625,-0.18164062,13.09375,-8.5625,32.46875
1537900385207,356,-1.0761719,-0.13964844,-0.15234375,20.96875,1.15625,19.53125
1537900385404,357,-1.1875,-0.26367188,-0.11621094,22.8125,2.96875,13.84375
1537900385405,358,-1.3886719,-0.32226562,0.028320312,10.78125,-3,-6.25
1537900385405,359,-1.5410156,-0.32714844,0.026367188,-7.71875,9.09375,-28.53125
1537900385405,360,-1.0390625,-0.19433594,-0.0126953125,-51.59375,23,-37.4375
1537900385406,361,-0.61035156,-0.23535156,0.059570312,-124.78125,4.25,-39.375
1537900385803,362,-0.87597656,-0.14355469,0.20410156,-164.3125,-24,-56.28125
1537900385804,363,-0.9638672,-0.24609375,0.32910156,-166.46875,0,-74.40625
1537900385804,364,-1.0683594,-0.28808594,0.31152344,-156.6875,10.78125,-99.125
1537900385804,365,-1.0556641,-0.34179688,0.2861328,-114.75,23.78125,-118.96875
1537900385804,366,-1.0976562,-0.5410156,0.2626953,-93.53125,15.4375,-128.8125
1537900385804,367,-1.1308594,-0.53125,0.31054688,-109.625,13,-131.0625
1537900385805,368,-1.203125,-0.49121094,0.24511719,-147.28125,1.9375,-117.375
1537900385806,369,-1.1455078,-0.37304688,0.29003906,-151.125,16.15625,-96.4375
1537900385807,370,-1.015625,-0.3076172,0.22949219,-127.59375,23.3125,-84.65625
1537900386000,371,-0.9248047,-0.37597656,0.20019531,-117.875,16.9375,-80.59375
1537900386000,372,-0.88183594,-0.36132812,0.15429688,-98.84375,17.6875,-85.65625
1537900386001,373,-0.7998047,-0.32714844,0.14746094,-52.1875,28.4375,-100.78125
1537900386200,374,-0.7060547,-0.37890625,0.07421875,-5.6875,31.96875,-116.21875
1537900386200,375,-0.61035156,-0.43066406,0.025390625,0.15625,14.875,-116.46875
1537900386200,376,-0.6152344,-0.4482422,-0.0146484375,-18.875,-3.3125,-98.90625
1537900386200,377,-0.5185547,-0.4423828,-0.044921875,-30.46875,-16.4375,-66.71875
1537900386202,378,-0.55371094,-0.45214844,-0.12695312,-35.0625,-40,-28.03125
1537900386202,379,-0.66015625,-0.44140625,-0.23242188,-18.875,-62.5,12.0625
1537900386203,380,-1.0029297,-0.52441406,-0.19628906,2.0625,-96.34375,44.28125
1537900386598,381,-1.2695312,-0.5517578,-0.109375,12.125,-95.65625,78.78125
1537900386598,382,-1.6347656,-0.6826172,-0.14355469,12,-137.59375,140.625
1537900386599,383,-1.2685547,-0.42773438,-0.15429688,18,-80.71875,173.25
1537900386599,384,-1.2236328,-0.5878906,-0.19628906,28.78125,-98.46875,163.125
1537900386599,385,-1.1123047,-0.4326172,-0.19140625,-25.96875,-62.6875,143.0625
1537900386600,386,-1.0126953,-0.25097656,-0.20117188,-11.3125,-45,121.4375
1537900386601,387,-1.0263672,-0.2763672,-0.15527344,46.96875,-18.4375,98.625
1537900386601,388,-0.89160156,-0.30664062,-0.20117188,36.65625,-8.5,91.28125
1537900386601,389,-0.8798828,-0.27246094,-0.17578125,-5.625,-22.125,90.25
1537900386795,390,-0.91308594,-0.09082031,-0.13867188,-0.1875,-14.90625,83.84375
1537900386795,391,-0.87597656,-0.19628906,-0.111328125,17.9375,-3.96875,70.90625
1537900386796,392,-0.8613281,-0.2265625,-0.09277344,-2.09375,-1.0625,59.90625
1537900386796,393,-0.85253906,-0.1328125,-0.08105469,-13.125,6.40625,45.34375
1537900386796,394,-0.9082031,-0.17871094,-0.06542969,-4.96875,13.34375,28.71875
1537900386798,395,-1.0068359,-0.18847656,0.009765625,10.46875,17.0625,5.90625
1537900386993,396,-1.0224609,-0.27539062,0.0087890625,26.53125,27.4375,-14.90625
1537900386994,397,-1.046875,-0.3330078,0.01953125,0.15625,1.625,-36.5
1537900386994,398,-1.2978516,-0.35546875,0.0146484375,-28.21875,-18.75,-51.59375
1537900386996,399,-1.0957031,-0.33984375,-0.0146484375,-57.03125,7.84375,-62.40625
1537900386996,400,-0.76660156,-0.40429688,0.022460938,-89.8125,-7.59375,-86.125
1537900387192,401,-1.1152344,-0.45507812,0.111328125,-138.875,-17.53125,-113.25
1537900387193,402,-1.2158203,-0.43554688,0.19824219,-139.25,1.3125,-136.375
1537900387193,403,-1.3935547,-0.515625,0.16113281,-103.15625,21.96875,-166.15625
1537900387193,404,-1.3085938,-0.41796875,0.08984375,-71.5,43.4375,-190.9375
1537900387194,405,-1.0576172,-0.421875,0.068359375,-50.78125,47.65625,-201.75
1537900387391,406,-0.9121094,-0.3935547,0.0703125,-59.40625,36.96875,-187.28125
1537900387391,407,-0.7734375,-0.33496094,0.10058594,-74.53125,28.3125,-155.46875
1537900387391,408,-0.7011719,-0.30859375,0.08984375,-76.625,8.65625,-114.6875
1537900387392,409,-0.7753906,-0.3046875,0.021484375,-68.0625,-7.875,-72.09375
1537900387393,410,-0.8300781,-0.3203125,0.0234375,-44.875,-21.25,-31.5
1537900387591,411,-0.77734375,-0.38671875,0.0029296875,-46.875,-31.6875,-0.6875
1537900387592,412,-0.9736328,-0.3671875,-0.018554688,-55.5,-60.3125,24.09375
1537900387592,413,-1.1923828,-0.35839844,0.072265625,-28.65625,-64.59375,52.21875
1537900387592,414,-1.3515625,-0.4091797,0.068359375,24.65625,-55.3125,87.21875
1537900387592,415,-0.99121094,-0.40234375,-0.10253906,55.34375,-27.3125,110.65625
1537900387791,416,-0.796875,-0.33398438,-0.23632812,66.75,-38.90625,118.625
1537900387791,417,-0.98828125,-0.36132812,-0.14257812,75.59375,-40.3125,118.9375
1537900387791,418,-1.1279297,-0.44726562,-0.14160156,94.90625,-18.375,118.9375
1537900387791,419,-1.1210938,-0.46972656,-0.13671875,103.0625,4.6875,116.6875
1537900387792,420,-0.9716797,-0.49316406,-0.14941406,104.125,11.59375,115.65625
1537900387987,421,-0.8935547,-0.51464844,-0.13085938,100.3125,11.40625,109.96875
1537900387988,422,-0.83496094,-0.53808594,-0.06640625,89.71875,17,99.71875
1537900387988,423,-0.84277344,-0.55078125,-0.08984375,70.59375,14.375,84.40625
1537900387989,424,-0.7939453,-0.5175781,-0.064453125,71.875,23.46875,60.59375
1537900387989,425,-0.7841797,-0.5185547,-0.07128906,77,22.8125,31.1875
1537900388188,426,-0.8496094,-0.5527344,-0.087890625,75.53125,18.0625,5.78125
1537900388188,427,-0.9560547,-0.578125,-0.13769531,54.0625,12.25,-12.59375
1537900388188,428,-0.9013672,-0.5253906,-0.12011719,40.15625,8.15625,-26.375
1537900388189,429,-1.0097656,-0.57128906,-0.11035156,27.15625,-10.9375,-35.46875
1537900388190,430,-1.3359375,-0.73046875,-0.072265625,0.09375,-43.90625,-33.03125
1537900388385,431,-1.2070312,-0.67578125,-0.14550781,-73.75,-17.84375,-37.625
1537900388386,432,-0.5673828,-0.49414062,-0.111328125,-116.34375,-31.9375,-65.5
1537900388388,433,-1.0117188,-0.5527344,-0.12890625,-161.21875,-80.28125,-85.03125
1537900388388,434,-1.2119141,-0.4501953,0.017578125,-146.9375,-26.125,-91.03125
1537900388388,435,-1.1708984,-0.44628906,0.059570312,-78.5625,18,-96.34375
1537900388585,436,-1.0146484,-0.5175781,0.044921875,-45.65625,39.78125,-110
1537900388585,437,-0.9345703,-0.45996094,0.043945312,-50.90625,31.28125,-118.0625
1537900388784,438,-0.86816406,-0.4248047,0.040039062,-53.78125,26,-121.84375
1537900388785,439,-0.86621094,-0.38085938,0.03515625,-56.71875,22.3125,-120.0625
1537900388785,440,-0.8154297,-0.33398438,0.04296875,-43.71875,21.59375,-109.5625
1537900388981,441,-0.8310547,-0.35253906,0.0390625,-27.84375,11.09375,-87.40625
1537900388982,442,-0.87109375,-0.3359375,0.026367188,-29,-3.90625,-54.09375
1537900388984,443,-0.8886719,-0.3330078,0.00390625,-28.09375,-22.78125,-13.75
1537900388985,444,-0.9736328,-0.33789062,-0.04296875,-19.375,-37.25,24.53125
1537900388985,445,-1.0751953,-0.3388672,-0.041015625,2.25,-36.9375,61.03125
1537900388985,446,-1.1591797,-0.30859375,-0.013671875,50.78125,-11.125,86.96875
1537900388985,447,-0.8847656,-0.32617188,0.0029296875,93.5625,2,103
1537900388986,448,-0.97558594,-0.39160156,0.0029296875,87.3125,-4.71875,115.9375
1537900388986,449,-1.0361328,-0.47558594,-0.111328125,65,-29.8125,128.59375
1537900389180,450,-0.98046875,-0.4501953,-0.11816406,73.90625,-2.75,124.0625
1537900389181,451,-0.93652344,-0.4873047,-0.15234375,88.84375,13.84375,117.40625
1537900389181,452,-0.9169922,-0.546875,-0.10058594,89.09375,20.75,108.8125
1537900389182,453,-0.8408203,-0.5732422,-0.078125,69,23.71875,94.40625
1537900389182,454,-0.89746094,-0.42382812,-0.076171875,53.03125,20.5625,86.28125
1537900389381,455,-0.88671875,-0.50097656,-0.043945312,43.625,18.40625,73.59375
1537900389382,456,-0.9169922,-0.32128906,-0.087890625,30.1875,7.6875,49
1537900389382,457,-0.9628906,-0.3642578,-0.056640625,52.78125,11.59375,24.9375
1537900389382,458,-0.98339844,-0.4765625,-0.02734375,40.03125,-1.71875,6.5625
1537900389383,459,-1.1289062,-0.5566406,-0.037109375,1.03125,-19.125,-12.78125
1537900389578,460,-1.1220703,-0.46289062,-0.055664062,-3.5,-30.15625,-39.4375
1537900389578,461,-1.0351562,-0.53027344,-0.1640625,-35.34375,-18.4375,-44.5
1537900389578,462,-0.7392578,-0.38476562,-0.11230469,-111.53125,-36.625,-55.125
1537900389578,463,-1.0751953,-0.4111328,-0.07519531,-113.84375,-32.0625,-71.3125
1537900389779,464,-1.0859375,-0.5566406,0.047851562,-122.75,-15.28125,-98.84375
1537900389779,465,-1.1738281,-0.4794922,0.07421875,-142.96875,-3.1875,-133.0625
1537900389779,466,-1.1210938,-0.4267578,0.053710938,-110.3125,15.625,-150.40625
1537900389780,467,-1.0361328,-0.3857422,0.06640625,-82.28125,35.15625,-146.0625
1537900389780,468,-0.8925781,-0.38085938,0.0625,-56.28125,43.5625,-135.625
1537900389781,469,-0.8017578,-0.3359375,0.08203125,-38.40625,42.84375,-119.46875
1537900389975,470,-0.67285156,-0.28710938,0.12011719,-27.90625,30.625,-95
1537900389975,471,-0.66796875,-0.3330078,0.06738281,-35.0625,-3.4375,-56.09375
1537900389976,472,-0.8828125,-0.35546875,0.07324219,-49.625,-29.96875,-17.21875
1537900389977,473,-0.88183594,-0.29882812,0.07910156,-28.6875,-33.46875,4.8125
1537900389977,474,-1.0244141,-0.37304688,9.765625E-04,-10.5625,-40.90625,22.25
1537900390174,475,-1.2412109,-0.34179688,0.07714844,3.9375,-42.1875,44.65625
1537900390174,476,-1.4863281,-0.38476562,0.12597656,57.0625,-27.65625,71.46875
1537900390176,477,-1.0253906,-0.38867188,-0.061523438,94.34375,-0.6875,94.59375
1537900390176,478,-0.6953125,-0.4375,-0.17675781,60.96875,-23.625,111.8125
1537900390177,479,-0.9736328,-0.45117188,-0.22070312,3.84375,-51.96875,117
1537900390372,480,-1.0644531,-0.35058594,-0.10839844,17.125,-28.40625,105.03125
1537900390373,481,-1.1308594,-0.390625,-0.08105469,60.03125,-4.96875,92.09375
1537900390374,482,-0.96972656,-0.40527344,-0.08886719,68.15625,14.75,89.46875
1537900390375,483,-0.8066406,-0.3623047,-0.091796875,65.71875,18.71875,88
1537900390375,484,-0.8339844,-0.36914062,-0.0390625,57.53125,11.59375,81.84375
1537900390570,485,-0.7949219,-0.3955078,-0.028320312,50.78125,14.375,69.5
1537900390571,486,-0.8232422,-0.38867188,-0.06640625,50.09375,11.71875,43.5625
1537900390572,487,-0.8095703,-0.3310547,-0.08203125,66.9375,17.6875,18.40625
1537900390572,488,-0.85546875,-0.35742188,-0.103515625,71.28125,22.03125,6.8125
1537900390573,489,-0.85253906,-0.3408203,-0.15039062,56.875,20.5,2.4375
1537900390769,490,-0.9121094,-0.3720703,-0.11816406,44.25,8.84375,-0.6875
1537900390771,491,-1.0947266,-0.4658203,-0.107421875,21.28125,-4.46875,-5.03125
1537900390771,492,-1.1152344,-0.45507812,-0.053710938,14.3125,-9.71875,-12.78125
1537900390771,493,-1.3554688,-0.6845703,0.01171875,6.75,-34.4375,-19.78125
1537900390773,494,-1.1650391,-0.6230469,-0.10546875,-69.59375,-20.40625,-31.75
1537900390968,495,-0.64453125,-0.46875,-0.07324219,-92.78125,-26.03125,-60.5625
1537900390968,496,-0.9863281,-0.5263672,0.005859375,-130.75,-63.625,-82.84375
1537900390969,497,-1.1044922,-0.4140625,0.12988281,-113.59375,-16.9375,-103.03125
1537900390969,498,-1.0595703,-0.47460938,0.12011719,-80.28125,-0.9375,-120.4375
1537900391167,499,-0.9716797,-0.4814453,0.11328125,-71.78125,4.875,-124.71875
1537900391167,500,-0.9296875,-0.4560547,0.10058594,-68.0625,3.59375,-121.84375
1537900391168,501,-0.8691406,-0.49902344,0.109375,-57.5,4.5,-118.78125
1537900391168,502,-0.8857422,-0.5361328,0.08300781,-62.46875,-0.8125,-107.375
1537900391169,503,-0.8378906,-0.5107422,0.068359375,-62.21875,-2.8125,-95.21875
1537900391368,504,-0.78125,-0.4921875,0.0625,-67.46875,-2.9375,-84.0625
1537900391369,505,-0.6582031,-0.4267578,0.037109375,-67.71875,-2.8125,-73.5
1537900391369,506,-0.5859375,-0.36816406,0.025390625,-64.28125,-11.125,-61.78125
1537900391369,507,-0.5332031,-0.34765625,0.0068359375,-55.6875,-14.1875,-42.5
1537900391369,508,-0.5839844,-0.34179688,0.02734375,-43.46875,-31.6875,-16.9375
1537900391565,509,-0.7167969,-0.38476562,0.029296875,-13.625,-36.28125,12.25
1537900391566,510,-0.8144531,-0.49316406,0.013671875,0,-55.8125,43.5
1537900391567,511,-1.3496094,-0.5703125,0.0390625,21.21875,-96.28125,82.03125
1537900391567,512,-1.6708984,-0.6660156,0.0029296875,32.9375,-75.625,128.03125
1537900391567,513,-1.3994141,-0.70996094,-0.13378906,26.28125,-64.96875,161.90625
1537900391766,514,-0.921875,-0.6113281,-0.20996094,-8.9375,-55.4375,159.96875
1537900391766,515,-1.0029297,-0.5595703,-0.25585938,-22.21875,-66.71875,139.75
1537900391766,516,-0.8964844,-0.5449219,-0.14160156,-39.0625,-35.125,117.28125
1537900391767,517,-0.9042969,-0.46679688,-0.048828125,-50.25,-24.125,89.65625
1537900391767,518,-0.84277344,-0.38671875,-0.083984375,-41.6875,-6.65625,62.4375
1537900392162,519,-0.8808594,-0.33984375,-0.13671875,-21.375,-10.21875,43.125
1537900392361,520,-0.85839844,-0.27441406,-0.1328125,4.5625,3.53125,34.28125
1537900392559,521,-0.7861328,-0.27929688,-0.1328125,13.40625,9.8125,33.625
1537900392559,522,-0.8574219,-0.24414062,-0.07910156,-0.1875,13.21875,37.34375
1537900392559,523,-0.9003906,-0.3046875,-0.09765625,3.09375,17.0625,38.4375
1537900392759,524,-0.9453125,-0.22949219,-0.021484375,7.125,31.125,25.8125
1537900392760,525,-0.80566406,-0.23339844,-0.052734375,21.46875,35.6875,12.0625
1537900392760,526,-0.7529297,-0.1875,-0.04296875,9.5,32.03125,6.03125
1537900392761,527,-0.7636719,-0.19921875,-0.0068359375,-0.75,15.25,7.90625
1537900392761,528,-1.0439453,-0.31835938,0.022460938,-33.9375,-1.65625,20.8125
1537900392761,529,-1.0791016,-0.39648438,-0.05078125,-4.59375,1.6875,-31.625
1537900392762,530,-1.2617188,-0.44140625,0.15722656,-187.09375,-14.65625,-127.625
1537900392956,531,-1.2753906,-0.4404297,0.2109375,-125,34.65625,-155.96875
1537900392956,532,-1.2001953,-0.42382812,0.18847656,-78.625,58.46875,-175.96875
1537900392957,533,-0.98339844,-0.40820312,0.16601562,-52.125,63.53125,-181.03125
1537900392957,534,-0.8251953,-0.35351562,0.17285156,-53.71875,30.6875,-143.3125
1537900392958,535,-0.8935547,-0.36523438,0.125,-48.84375,2.5,-107.0625
1537900392959,536,-0.9169922,-0.3515625,0.09375,-45.3125,-9.78125,-71.65625
1537900392959,537,-0.8623047,-0.38671875,0.06738281,-39.375,-42.875,-41.09375
1537900392960,538,-1.0869141,-0.34960938,-0.025390625,-55,-59.84375,-3.8125
1537900393157,539,-1.0800781,-0.20410156,-0.013671875,-9.65625,-50.0625,26.09375
1537900393157,540,-0.6621094,-0.22167969,-0.099609375,31.65625,-31.5625,49.96875
1537900393158,541,-0.87402344,-0.27539062,-0.17382812,32.5625,-68.1875,76.8125
1537900393159,542,-0.90625,-0.29882812,-0.21386719,35.03125,-51.34375,105.03125
1537900393159,543,-1.0478516,-0.35546875,-0.20703125,48.25,-54.46875,125.53125
1537900393553,544,-1.0556641,-0.4169922,-0.21484375,50.40625,-44.03125,138.15625
1537900393554,545,-1.0283203,-0.39746094,-0.2841797,51.75,-35.71875,146.53125
1537900393554,546,-1.0292969,-0.4345703,-0.20800781,73.53125,-22.90625,152.28125
1537900393554,547,-1.0751953,-0.546875,-0.1328125,80.78125,-1.3125,152.03125
1537900393555,548,-1.0126953,-0.57910156,-0.12988281,64.1875,7.90625,143.46875
1537900393555,549,-1.0253906,-0.53027344,-0.09667969,54.4375,10.71875,126.5625
1537900393555,550,-1.03125,-0.5859375,-0.13378906,67.1875,19.34375,93.625
1537900393556,551,-0.9003906,-0.50097656,-0.048828125,59.75,28.5,52
1537900393556,552,-0.99902344,-0.5048828,-0.0859375,43.5625,14.375,25.125
1537900393751,553,-0.96484375,-0.4736328,9.765625E-04,14.625,1.875,13.15625
1537900393752,554,-1.2050781,-0.57910156,0.02734375,7.1875,-19.0625,1.375
1537900393752,555,-1.234375,-0.5917969,-0.0390625,1.5,-15.40625,-26.03125
1537900393753,556,-0.6640625,-0.37695312,-0.15527344,-26.375,7.3125,-59.40625
1537900393754,557,-0.57714844,-0.453125,-0.040039062,-68.375,-46.03125,-69.46875
1537900393754,558,-1.0351562,-0.53515625,0.07421875,-132.21875,-51.28125,-70.5625
1537900393950,559,-1.1806641,-0.5058594,0.17773438,-158.09375,-32.96875,-86.5625
1537900393950,560,-1.2714844,-0.33007812,0.17089844,-124.78125,-13.4375,-111.15625
1537900393951,561,-1.1347656,-0.4248047,0.16992188,-73,11.875,-124.34375
1537900393951,562,-1.0410156,-0.4765625,0.20410156,-82.84375,-0.25,-132.65625
1537900393952,563,-0.9716797,-0.4091797,0.16796875,-99.125,1.15625,-140.34375
1537900394151,564,-0.88183594,-0.3798828,0.13769531,-93.40625,-0.3125,-144.0625
1537900394152,565,-0.78222656,-0.40039062,0.15625,-72.84375,0.65625,-139.46875
1537900394152,566,-0.7285156,-0.44335938,0.119140625,-70.4375,-5.75,-126.34375
1537900394153,567,-0.6904297,-0.47460938,0.078125,-66.40625,-13.4375,-103.53125
1537900394153,568,-0.5810547,-0.4189453,0.059570312,-67.21875,-17.28125,-78.5
1537900394347,569,-0.4951172,-0.37109375,0.0546875,-57.875,-31.625,-46.53125
1537900394348,570,-0.5595703,-0.39941406,0.024414062,-51.46875,-54.75,-8.4375
1537900394348,571,-0.81152344,-0.42285156,0.015625,-36.625,-82.15625,37.28125
1537900394348,572,-1.1630859,-0.47558594,-0.08300781,-8.625,-98.59375,89.9375
1537900394349,573,-1.4746094,-0.5390625,-0.07324219,-0.0625,-100.0625,142.125
1537900394546,574,-1.5292969,-0.4296875,-0.09765625,-7.40625,-86.125,174.65625
1537900394546,575,-1.0820312,-0.6933594,-0.33984375,13.90625,-25.15625,169.65625
1537900394546,576,-1.1533203,-0.4609375,-0.44140625,-15.28125,-75.28125,161.3125
1537900394547,577,-1.0224609,-0.5185547,-0.27734375,-16.96875,-33.53125,131.21875
1537900394548,578,-0.9423828,-0.3388672,-0.21582031,8.09375,-16.5,85
1537900394745,579,-0.90722656,-0.27929688,-0.14160156,11.21875,-5.21875,55.71875
1537900394745,580,-0.89746094,-0.23144531,-0.009765625,-5.8125,4.75,41.125
1537900394745,581,-0.80859375,-0.24609375,-0.021484375,-36.8125,0.15625,38.625
1537900394746,582,-0.8564453,-0.14746094,-0.037109375,-39.4375,2.84375,37.21875
1537900394746,583,-0.8105469,-0.17285156,-0.00390625,-13.75,2.59375,28.71875
1537900394944,584,-0.9355469,-0.22070312,0.06933594,2.65625,10.25,17.0625
1537900394945,585,-0.9042969,-0.20703125,0.068359375,5.53125,14.75,4.6875
1537900394945,586,-0.8623047,-0.24121094,0.043945312,-4.53125,6.28125,1.375
1537900394945,587,-0.86328125,-0.19335938,0.046875,-30.59375,-9.53125,4.9375
1537900394946,588,-0.9189453,-0.21191406,-0.036132812,-39.5,-18.6875,15.0625
1537900395144,589,-0.9189453,-0.2578125,-0.10449219,-73.8125,-35.78125,30.1875
1537900395145,590,-0.93066406,-0.28515625,-0.18945312,-132.40625,-45.3125,40.15625
1537900395145,591,-0.9746094,-0.171875,-0.09863281,-165.25,-47.8125,34.15625
1537900395145,592,-1.1582031,-0.0625,-0.06640625,-95.09375,-27.59375,12.875
1537900395145,593,-1.3916016,-0.203125,0.06933594,-1.1875,13.46875,-13.9375
1537900395343,594,-1.2548828,-0.4296875,0.009765625,30.5,35.1875,-37.125
1537900395343,595,-1.0791016,-0.55371094,0.03125,-50.1875,24.09375,-53.90625
1537900395344,596,-1.0332031,-0.3544922,0.072265625,-117.4375,4.5,-76.90625
1537900395344,597,-1.0693359,-0.43554688,0.09472656,-115.125,14.6875,-99.125
1537900395344,598,-1.1464844,-0.5332031,0.16699219,-122.03125,22.375,-125.5
1537900395540,599,-1.2753906,-0.40625,0.20898438,-124.40625,29.09375,-146.0625
1537900395540,600,-1.2167969,-0.39160156,0.17773438,-95.96875,50.8125,-148.03125
1537900395542,601,-1.078125,-0.3203125,0.16113281,-72.65625,50.65625,-134.46875
1537900395542,602,-0.9423828,-0.3154297,0.14746094,-56.03125,46.0625,-119.875
1537900395542,603,-0.8613281,-0.2861328,0.15234375,-49.875,29.53125,-109.03125
1537900395739,604,-0.8574219,-0.24023438,0.15722656,-53.84375,14.75,-88.09375
1537900395741,605,-0.8730469,-0.18066406,0.15039062,-45.84375,-0.4375,-61.34375
1537900395741,606,-0.82714844,-0.17871094,0.076171875,-37.78125,-13.5625,-36.34375
1537900395741,607,-0.91015625,-0.23730469,0.061523438,-32.96875,-40.96875,-15.40625
1537900395742,608,-1.0146484,-0.22460938,-0.0048828125,-39.875,-50.5,2.65625
1537900395937,609,-1.09375,-0.2265625,0.060546875,-15.09375,-60.1875,18.96875
1537900395939,610,-1.3378906,-0.29589844,0.109375,2.0625,-74.40625,42.53125
1537900395940,611,-1.0947266,-0.24707031,-0.051757812,-4.71875,-59.03125,72.6875
1537900395940,612,-0.77441406,-0.16992188,-0.22558594,21.96875,-73.875,87.875
1537900395940,613,-1.0107422,-0.20800781,-0.1484375,55.78125,-75.5625,94.21875
1537900396138,614,-1.1025391,-0.3623047,-0.13476562,67.90625,-54.6875,95.9375
1537900396138,615,-1.2773438,-0.37597656,-0.11035156,69.0625,-31.75,90.875
1537900396138,616,-0.99902344,-0.3828125,-0.13964844,80.125,-14.65625,90.0625
1537900396138,617,-0.9941406,-0.39160156,-0.14257812,72.625,-14.125,92.15625
1537900396140,618,-0.9550781,-0.40039062,-0.083984375,87.03125,2.25,93.5
1537900396337,619,-0.94921875,-0.50097656,-0.083984375,86.65625,14.375,90.4375
1537900396338,620,-0.9345703,-0.5332031,-0.08886719,72.125,18.34375,77.875
1537900396338,621,-0.94921875,-0.5263672,-0.12597656,68.03125,18.34375,56.0625
1537900396338,622,-0.90722656,-0.515625,-0.09863281,71.28125,24.75,28.0625
1537900396338,623,-0.8652344,-0.5595703,-0.09472656,54.84375,18.21875,6.8125
1537900396533,624,-0.86328125,-0.578125,-0.056640625,17.125,-0.4375,-8.5
1537900396534,625,-1.1582031,-0.67089844,-0.068359375,-21.1875,-30.21875,-28.21875
1537900396535,626,-1.2001953,-0.6123047,-0.05859375,-48.28125,-16.375,-55.375
1537900396535,627,-0.8330078,-0.49316406,-0.10253906,-80.71875,-4.15625,-83.21875
1537900396931,628,-0.9121094,-0.5625,-0.0068359375,-122.6875,-41.8125,-97.1875
1537900397130,629,-1.2685547,-0.5341797,0.07324219,-171.78125,-27.25,-104.5625
1537900397130,630,-1.3027344,-0.38867188,0.14941406,-139.34375,14.09375,-121.71875
1537900397331,631,-1.21875,-0.3701172,0.076171875,-75.03125,39.46875,-134
1537900397331,632,-1.0205078,-0.29589844,0.10449219,-43.84375,51.0625,-131.125
1537900397331,633,-0.81152344,-0.27929688,0.07421875,-30.78125,45.5625,-113.84375
1537900397528,634,-0.7080078,-0.27929688,0.0703125,-42.75,25.5,-93.09375
1537900397528,635,-0.7529297,-0.23242188,0.07519531,-43.46875,9.09375,-70.28125
1537900397729,636,-0.8339844,-0.35839844,0.043945312,-42.5,-4.21875,-44.875
1537900397730,637,-0.9863281,-0.3720703,0.026367188,-37.5625,-31.4375,-11.84375
1537900397730,638,-0.8251953,-0.3857422,-0.15917969,46.8125,-35.21875,84.46875
1537900397730,639,-0.9501953,-0.3515625,-0.0625,36.71875,-18.625,90.0625
1537900397731,640,-0.8857422,-0.4482422,-0.14550781,81.28125,5.34375,104.28125
1537900397731,641,-0.88671875,-0.49902344,-0.14550781,79.8125,11.53125,96.1875
1537900397731,642,-0.9140625,-0.53125,-0.103515625,74.9375,19.53125,80.4375
1537900397731,643,-0.97265625,-0.56933594,-0.0703125,72.3125,23.78125,56.5
1537900397732,644,-0.9433594,-0.5966797,-0.021484375,54.0625,8.84375,2
1537900397925,645,-1.09375,-0.5263672,-0.0146484375,-116.84375,-25.15625,-85.46875
1537900397926,646,-1.1220703,-0.48828125,0.040039062,-99.75,-11.1875,-102.25
1537900397927,647,-1.1074219,-0.46679688,0.045898438,-82.53125,9.09375,-113.46875
1537900397927,648,-0.9863281,-0.44726562,0.041015625,-73.375,20.3125,-118.96875
1537900397928,649,-0.8261719,-0.3671875,0.036132812,-68,24.65625,-123.125
1537900398124,650,-0.79785156,-0.36523438,0.06347656,-56.90625,17.4375,-120.4375
1537900398124,651,-0.83496094,-0.3779297,0.03515625,-59.34375,9.625,-105.46875
1537900398324,652,-0.8769531,-0.3330078,0.038085938,-57.09375,-1.25,-80.75
1537900398325,653,-1.0537109,-0.3623047,0.07128906,-44.28125,-8.5625,-47.9375
1537900398325,654,-1.0996094,-0.32714844,0.08203125,-24.25,-1.59375,-17.46875
1537900398325,655,-1.1269531,-0.33496094,0.1015625,9.875,-1.96875,13.15625
1537900398325,656,-1.1767578,-0.36328125,0.07910156,31.25,-1.40625,47.03125
1537900398326,657,-0.8457031,-0.24707031,-0.026367188,57.53125,20.125,68.40625
1537900398326,658,-0.6386719,-0.33691406,-0.030273438,72.75,-10.5625,82.625
1537900398328,659,-0.9316406,-0.39746094,-0.11230469,42.28125,-39.6875,96.90625
1537900398522,660,-1.046875,-0.39257812,-0.13085938,17.125,-38.65625,107.84375
1537900398524,661,-0.9609375,-0.33398438,-0.021484375,46.96875,-12.46875,110.21875
1537900398524,662,-0.96972656,-0.43359375,-0.14257812,80.4375,3.78125,108.4375
1537900398524,663,-0.83984375,-0.46289062,-0.07714844,78.46875,15.1875,101.71875
1537900398524,664,-0.87109375,-0.4404297,-0.07910156,73.84375,13.28125,91.53125
1537900398720,665,-0.8808594,-0.37402344,-0.047851562,74.21875,22.6875,79.625
1537900398720,666,-0.9658203,-0.4013672,-9.765625E-04,78.40625,24.28125,61.25
1537900398721,667,-1.046875,-0.46484375,0.038085938,73.53125,31,33.8125
1537900398721,668,-1.0351562,-0.4658203,-0.033203125,69.625,24.9375,9.8125
1537900398722,669,-0.92871094,-0.5234375,-0.029296875,58.09375,20.4375,-0.5625
1537900398920,670,-0.97753906,-0.49902344,-0.05859375,45.40625,-4.21875,6.34375
1537900399119,671,-0.88671875,-0.57128906,-0.10449219,31.0625,-12.03125,28.625
1537900399120,672,-0.88671875,-0.6816406,-0.22070312,-18.8125,-35.15625,45.03125
1537900399121,673,-0.7578125,-0.7060547,-0.11328125,-94.4375,-35.53125,25.375
1537900399122,674,-0.8701172,-0.66015625,-0.056640625,-141,-39.4375,-25.78125
1537900399122,675,-1.0546875,-0.5605469,-0.028320312,-152.34375,-23.40625,-79.4375
1537900399122,676,-1.1386719,-0.55371094,0.10546875,-116.96875,-6.5,-115.625
1537900399122,677,-1.1152344,-0.53222656,0.20605469,-24.4375,27.8125,-146.875
1537900399122,678,-0.8105469,-0.8046875,0.19921875,13.53125,28.125,-163.71875
1537900399318,679,-0.9765625,-0.796875,0.24023438,-76.125,-18.21875,-176.09375
1537900399318,680,-1.0048828,-0.5957031,0.23242188,-104.09375,-17.34375,-179.15625
1537900399319,681,-1.0029297,-0.53125,0.19726562,-87.84375,-11.90625,-179.34375
1537900399319,682,-0.9033203,-0.45703125,0.13769531,-75.875,-8.5,-166.34375
1537900399319,683,-0.8515625,-0.37109375,0.11425781,-64.34375,-8.5,-137.46875
1537900399319,684,-0.81933594,-0.103515625,0.043945312,13.71875,4.4375,-113.28125
1537900399515,685,-0.7128906,-0.4169922,0.14648438,94.09375,-8.6875,-70.75
1537900399515,686,-0.89746094,-0.74902344,0.16699219,22.4375,-40.71875,3.71875
1537900399515,687,-0.98046875,-0.5830078,0.1484375,-104.09375,-59.9375,87.875
1537900399515,688,-1.0664062,-0.26367188,0.08886719,-67.34375,-57.375,125.53125
1537900399516,689,-0.8359375,-0.41796875,-0.2734375,28.3125,-49.09375,141.03125
1537900399715,690,-0.890625,-0.5048828,-0.109375,-13.375,-50.375,152.5625
1537900399716,691,-1.0761719,-0.40039062,-0.045898438,-4.03125,-35,157.53125
1537900399716,692,-1.1806641,-0.45117188,-0.103515625,46.8125,-3.3125,149.8125
1537900399716,693,-1.1142578,-0.515625,-0.2109375,76.34375,14.375,147.375
1537900399716,694,-0.94140625,-0.5673828,-0.1875,66.9375,12.0625,147.125
1537900399914,695,-0.89941406,-0.5527344,-0.09863281,51.8125,11.9375,142
1537900400112,696,-0.86816406,-0.58496094,-0.07128906,48.25,25.5,128.34375
1537900400114,697,-0.8574219,-0.6298828,-0.045898438,43.1875,26.21875,103.1875
1537900400114,698,-0.7792969,-0.60839844,-0.08691406,36.125,26.84375,72.96875
1537900400114,699,-0.83496094,-0.42578125,-0.10546875,23.46875,16.15625,48.375
1537900400114,700,-0.9121094,-0.33789062,-0.1640625,18.1875,12.375,39.46875
1537900400115,701,-0.9892578,-0.21386719,-0.17773438,15.71875,13.03125,36.84375
1537900400115,702,-1.2011719,-0.16601562,-0.23925781,18.21875,9.9375,33
1537900400117,703,-1.2333984,-0.13574219,-0.1875,15,17.875,33.84375
1537900400117,704,-1.3378906,-0.14746094,-0.08203125,-4.15625,10,39.90625
1537900400309,705,-1.1894531,-0.33691406,-0.14941406,-8.375,19.09375,25.0625
1537900400310,706,-1.0009766,-0.35351562,-0.15527344,-13.0625,5.96875,-6.90625
1537900400310,707,-0.6533203,-0.421875,-0.15039062,-61.21875,9.75,-22.53125
1537900400312,708,-0.86621094,-0.32421875,0.07421875,-122.6875,-31.6875,-45.4375
1537900400313,709,-1.0253906,-0.21777344,0.16503906,-82.15625,15.125,-88.28125
1537900400509,710,-0.88183594,-0.4560547,0.23339844,-82.46875,2.90625,-120
1537900400509,711,-1.1025391,-0.55566406,0.28515625,-122.40625,-20.21875,-143.6875
1537900400510,712,-1.1308594,-0.6513672,0.3095703,-119.59375,-27.53125,-169.8125
1537900400510,713,-1.0371094,-0.6064453,0.33496094,-127.21875,-40.59375,-180.0625
1537900400510,714,-1.1230469,-0.52734375,0.26171875,-158.03125,-52.8125,-177.9375
1537900400710,715,-1.1386719,-0.5234375,0.27148438,-154.25,-46.34375,-167.8125
1537900400710,716,-1.1552734,-0.4404297,0.265625,-121.15625,-22.71875,-155.21875
1537900400710,717,-1.0800781,-0.4609375,0.23339844,-94.75,-13.9375,-146.6875
1537900400710,718,-1.0205078,-0.45996094,0.19335938,-80.21875,-16.5625,-134.71875
1537900400908,719,-0.8076172,-0.39746094,0.10839844,-78.75,-18.03125,-125.375
1537900400908,720,-0.70214844,-0.45898438,0.0546875,-55.6875,-30.65625,-108.28125
1537900400909,721,-0.6582031,-0.5097656,-0.0703125,-65.625,-38.21875,-92.46875
1537900400909,722,-0.578125,-0.4140625,-0.06542969,-84.0625,-39.375,-77.28125
1537900400909,723,-0.57910156,-0.3642578,-0.16113281,-57.875,-41.65625,-56.90625
1537900400910,724,-0.5625,-0.3076172,-0.17285156,-24,-45.90625,-22.34375
1537900401106,725,-0.6845703,-0.40820312,-0.11230469,-5.5,-70.9375,22.03125
1537900401106,726,-0.984375,-0.45507812,-0.049804688,4.75,-99.6875,69.8125
1537900401106,727,-1.4365234,-0.61328125,-0.10839844,35.375,-135.75,117.28125
1537900401106,728,-1.3535156,-0.64941406,-0.12597656,18.84375,-99.5,177.59375
1537900401108,729,-1.109375,-0.52441406,-0.27734375,22.125,-111.96875,194.625
1537900401306,730,-1.421875,-0.56347656,-0.25683594,39.40625,-85.84375,192.625
1537900401306,731,-1.1298828,-0.5234375,-0.22460938,45.40625,-40.78125,172.59375
1537900401306,732,-1.1582031,-0.4326172,-0.23925781,35.09375,-23.34375,143.1875
1537900401307,733,-1.0048828,-0.41015625,-0.1953125,29.65625,-2.59375,113.9375
1537900401308,734,-0.99609375,-0.29882812,-0.10449219,38.75,14.28125,84.53125
1537900401502,735,-0.8515625,-0.27929688,-0.09863281,61.75,28.25,62.78125
1537900401504,736,-0.8203125,-0.32421875,-0.068359375,52.96875,23.90625,51
1537900401504,737,-0.8222656,-0.2548828,-0.11328125,26.34375,16.78125,44.28125
1537900401504,738,-0.8027344,-0.19726562,-0.10546875,38.9375,23.46875,35.03125
1537900401504,739,-0.8642578,-0.20019531,-0.17382812,57.1875,25.3125,21.84375
1537900401703,740,-0.88378906,-0.22070312,-0.13183594,79.625,42.28125,4
1537900401704,741,-0.9199219,-0.22949219,-0.12402344,82.75,39.28125,-12.28125
1537900401704,742,-1.0185547,-0.2763672,-0.08203125,75.25,27.9375,-17.46875
1537900401704,743,-1.0615234,-0.44628906,-0.08105469,44.34375,6.03125,-17.15625
1537900401704,744,-1.2294922,-0.6591797,-0.00390625,-13.625,-42.375,-13.3125
1537900401899,745,-1.3613281,-0.6357422,-0.038085938,-90.71875,-39.5,-11.3125
1537900401900,746,-0.7050781,-0.45703125,-0.08300781,-133.1875,-20.15625,-38.21875
1537900401901,747,-0.9316406,-0.52734375,-0.0029296875,-124.90625,-60.75,-75.6875
1537900401902,748,-1.2324219,-0.5654297,0.13476562,-129.40625,-20.34375,-110.6875
1537900401902,749,-1.2705078,-0.515625,0.119140625,-121,-0.0625,-151.9375
1537900402098,750,-1.1455078,-0.4609375,0.08496094,-99.5625,15.25,-186.28125
1537900402099,751,-1.0488281,-0.4658203,0.07519531,-80.09375,13,-204.46875
1537900402099,752,-0.97558594,-0.41503906,0.07519531,-82.46875,12,-200.75
1537900402100,753,-0.8955078,-0.4013672,0.08691406,-82.34375,13.21875,-183.96875
1537900402299,754,-0.8652344,-0.35058594,0.072265625,-59.28125,10.96875,-161.28125
1537900402300,755,-0.7949219,-0.35351562,0.026367188,-37.3125,6.03125,-134.84375
1537900402496,756,-0.69140625,-0.42773438,0.021484375,-27.59375,-11.5,-96.9375
1537900402497,757,-0.6816406,-0.39746094,0.018554688,-37.90625,-32.65625,-54.875
1537900402497,758,-0.7451172,-0.4189453,-0.047851562,-42.125,-55.8125,-14.0625
1537900402497,759,-1.0146484,-0.41796875,0.0068359375,-31.09375,-82.03125,33.8125
1537900402498,760,-1.1962891,-0.42871094,-0.07128906,-15.75,-77.53125,84.6875
1537900402498,761,-1.1474609,-0.37695312,-0.12695312,10.125,-73.1875,126.3125
1537900402500,762,-0.92089844,-0.37109375,-0.19921875,51.0625,-56.71875,151.71875
1537900402500,763,-0.9375,-0.4501953,-0.3408203,45.21875,-56.28125,165.625
1537900402895,764,-1.0683594,-0.42382812,-0.22363281,29.28125,-53.25,160.625
1537900402896,765,-1.1914062,-0.4423828,-0.234375,48.3125,-24.0625,141.53125
1537900402896,766,-1.0742188,-0.43652344,-0.29589844,75.96875,0.53125,119.0625
1537900402897,767,-0.9482422,-0.51464844,-0.2861328,94.65625,18.125,106.3125
1537900402898,768,-0.8642578,-0.59277344,-0.20507812,80.84375,24.71875,95.25
1537900402899,769,-0.8935547,-0.49804688,-0.087890625,43.5625,18.96875,86.46875
1537900402899,770,-0.9482422,-0.35742188,-0.09765625,34.28125,26.21875,81.40625
1537900402899,771,-0.8671875,-0.3076172,-0.12988281,30.25,21.65625,77.5
1537900402899,772,-0.86816406,-0.22167969,-0.13085938,37.65625,19.40625,68.71875
1537900403093,773,-0.8652344,-0.21386719,-0.16210938,31.53125,16.40625,55.53125
1537900403093,774,-1.0449219,-0.20703125,-0.16699219,20.25,7.125,48.1875
1537900403093,775,-1.1542969,-0.1171875,-0.16992188,6.8125,10.46875,46.8125
1537900403093,776,-1.1630859,-0.09277344,-0.18066406,3.34375,7.8125,50.15625
1537900403095,777,-1.3535156,-0.1171875,-0.07714844,7.625,-1.1875,49.65625
1537900403095,778,-1.3583984,-0.32421875,0.017578125,-13.4375,-6.65625,44.53125
1537900403290,779,-1.2919922,0.34472656,0.22949219,-77.78125,4.9375,4
1537900403489,780,-0.51660156,0.22265625,0.06347656,0.78125,28.25,-3.6875
1537900403491,781,-0.7910156,-0.046875,-0.15136719,5.1875,-41.875,13.28125
1537900403491,782,-0.7060547,-0.45117188,-0.27929688,-60.6875,-37,-14.34375
1537900403491,783,-0.828125,-0.35839844,-0.16210938,-158.9375,-78.3125,-52.25
1537900403492,784,-0.99316406,-0.37890625,0.030273438,-144.0625,-11.25,-72.53125
1537900403492,785,-0.9736328,-0.46679688,0.061523438,-146.8125,19.40625,-107.4375
1537900403493,786,-1.0849609,-0.4794922,0.05078125,-135.15625,37.34375,-141.1875
1537900403493,787,-1.1191406,-0.49414062,0.19921875,-88.875,35.875,-170.65625
1537900403494,788,-1.1923828,-0.6191406,0.3232422,-69.40625,26.09375,-183.4375
1537900403689,789,-1.2226562,-0.6464844,0.33691406,-94.125,13.53125,-177.1875
1537900403690,790,-1.2744141,-0.66015625,0.39453125,-126.0625,-1.25,-166.65625
1537900403690,791,-1.2167969,-0.52441406,0.35351562,-136.78125,4.25,-160.59375
1537900403690,792,-1.0849609,-0.4453125,0.25195312,-107.5625,7.0625,-165.46875
1537900403691,793,-0.92089844,-0.4375,0.1796875,-85.84375,1.9375,-167.9375
1537900403887,794,-0.81933594,-0.3544922,0.13085938,-72.71875,-7.21875,-162.0625
1537900403888,795,-0.75390625,-0.35253906,0.08105469,-63.5625,-15.75,-143.03125
1537900403888,796,-0.70410156,-0.32617188,0.009765625,-53.78125,-21.3125,-112.625
1537900403889,797,-0.6425781,-0.26757812,-0.072265625,-35.40625,-40.375,-74.46875
1537900403889,798,-0.8154297,-0.41796875,-0.103515625,-10.75,-63.1875,-16.375
1537900404086,799,-0.9248047,-0.4580078,-0.18066406,-9.46875,-98.53125,59.625
1537900404087,800,-1.4091797,-0.4423828,-0.19824219,16.59375,-121.46875,131.625
1537900404087,801,-1.1035156,-0.42578125,-0.22070312,82.75,-79.3125,175.71875
1537900404087,802,-1.2021484,-0.46289062,-0.22949219,76.40625,-83.5,198.03125
1537900404088,803,-1.4023438,-0.4013672,-0.24414062,62.59375,-61.78125,196.09375
1537900404287,804,-1.1826172,-0.48046875,-0.06933594,82.375,-10.5,182.59375
1537900404287,805,-1.1054688,-0.60253906,-0.2783203,21.21875,-23.40625,166.5
1537900404288,806,-1.1279297,-0.33203125,-0.25390625,-13.1875,-22.125,148.0625
1537900404288,807,-0.9277344,-0.33496094,-0.17480469,41.375,1.09375,126.5
1537900404288,808,-0.8925781,-0.46972656,-0.12792969,37.59375,10.71875,103.1875
1537900404483,809,-0.83203125,-0.5234375,-0.12207031,-3.8125,4.625,81.03125
1537900404486,810,-0.8125,-0.41796875,-0.109375,-22.40625,14.03125,51.4375
1537900404486,811,-0.7998047,-0.3046875,-0.14648438,-4.40625,10.96875,20.90625
1537900404486,812,-0.8027344,-0.3310547,-0.08984375,22.125,23.71875,0.15625
1537900404486,813,-0.86328125,-0.35351562,-0.12109375,-2.875,18.21875,-19.4375
1537900404684,814,-0.9121094,-0.20019531,-0.07519531,-29.5,8.78125,-33.03125
1537900404685,815,-1.1308594,-0.14453125,-0.076171875,-30.53125,-1.46875,-39.1875
1537900404883,816,-1.1445312,-0.17773438,-0.032226562,-16.0625,0.03125,-35.53125
1537900404884,817,-1.4824219,-0.26660156,0.10546875,-34.1875,-34,-32.71875
1537900404884,818,-1.2314453,-0.23046875,0.0048828125,-55.125,4.0625,-38.28125
1537900404885,819,-0.63183594,-0.26757812,-0.061523438,-78.125,-8.5625,-57.21875
1537900404885,820,-0.9189453,-0.50878906,0.013671875,-100.71875,-50.90625,-84.90625
1537900404886,821,-1.2333984,-0.515625,0.14257812,-133,-31.375,-122.5625
1537900404886,822,-1.3798828,-0.43554688,0.13964844,-101.21875,6.75,-158.9375
1537900404886,823,-1.171875,-0.42871094,0.0234375,-40.25,34.53125,-181.53125
1537900405080,824,-0.96191406,-0.5136719,-0.0546875,-31.75,26.59375,-180.0625
1537900405080,825,-0.8388672,-0.47265625,-0.061523438,-78.6875,6.09375,-163.53125
1537900405081,826,-0.72265625,-0.34570312,-0.025390625,-107.0625,2.0625,-142.84375
1537900405081,827,-0.69921875,-0.2939453,-0.01953125,-90.96875,2.59375,-116.46875
1537900405081,828,-0.7089844,-0.328125,-0.025390625,-66.71875,-3.96875,-80.21875
1537900405279,829,-0.8125,-0.35253906,-0.04296875,-47.6875,-12.59375,-40.84375
1537900405279,830,-0.8779297,-0.39746094,0.025390625,-27,-22.96875,-7.71875
1537900405280,831,-0.9941406,-0.4375,0.0146484375,-22.125,-34.125,21.65625
1537900405477,832,-1.0839844,-0.38867188,0.041992188,-12.71875,-44.21875,49.71875
1537900405478,833,-1.4140625,-0.40527344,0.12109375,34.53125,-54.53125,84.875
1537900405478,834,-1.0673828,-0.3486328,-0.06640625,78,-12.28125,118.34375
1537900405479,835,-0.8701172,-0.2841797,-0.08984375,93.1875,-26.8125,140.25
1537900405479,836,-1.0488281,-0.39257812,-0.13183594,92.75,-31.15625,149.71875
1537900405480,837,-1.1279297,-0.39453125,-0.14648438,75.90625,-18.4375,144.34375
1537900405480,838,-1.0449219,-0.38671875,-0.13378906,80.4375,-8.3125,134.125
1537900405678,839,-1.0322266,-0.3828125,-0.18945312,77.1875,-2.34375,127.96875
1537900405877,840,-0.91796875,-0.3359375,-0.07421875,97.65625,20.8125,121.8125
1537900405878,841,-0.89160156,-0.43066406,-0.061523438,108.875,25.875,112.84375
1537900406074,842,-0.88671875,-0.4296875,-0.059570312,91.46875,32.28125,93.125
1537900406074,843,-0.9970703,-0.4423828,-0.11328125,74.3125,22.25,65.53125
1537900406074,844,-1.2167969,-0.4189453,-0.4111328,20.84375,15.1875,41.96875
1537900406075,845,-1.1152344,-0.048828125,-0.37597656,-21.25,23.125,21.28125
1537900406075,846,-1.1503906,0.021484375,-0.23339844,42.40625,24.40625,10.375
1537900406076,847,-1.1582031,-0.25585938,-0.125,77.125,53.03125,7.5
1537900406076,848,-1.0253906,-0.4326172,-0.040039062,47.71875,48.625,8.34375
1537900406078,849,-0.74316406,-0.4267578,-0.18554688,0.65625,48.09375,0.71875
1537900406078,850,-0.5449219,-0.70703125,0.061523438,-45.375,-4.71875,-11.0625
1537900406272,851,-1.0791016,-0.46484375,0.068359375,-49.28125,10.96875,-161.5
1537900406273,852,-1.0751953,-0.4794922,0.034179688,-20.53125,13.65625,-192.9375
1537900406274,853,-1.0634766,-0.48242188,-0.01953125,-23.625,7.96875,-207.65625
1537900406274,854,-1.0810547,-0.4873047,-0.026367188,-42.8125,-8.0625,-205.28125
1537900406274,855,-1.1191406,-0.47851562,-0.029296875,-76.5625,-16.3125,-186.59375
1537900406472,856,-1.2285156,-0.4482422,-0.018554688,-98.59375,-29.6875,-160.78125
1537900406472,857,-1.1777344,-0.3095703,-0.034179688,-87.0625,-7.8125,-135.625
1537900406473,858,-1.2324219,-0.30273438,0.0546875,-40.96875,-5.5,-111.15625
1537900406473,859,-1.1103516,-0.29785156,0.07910156,-3.75,13,-73.625
1537900406473,860,-1.0859375,-0.25585938,0.045898438,15.65625,4.6875,-20.40625
1537900406672,861,-0.9550781,-0.2529297,-0.053710938,50.09375,5.40625,48.875
1537900406672,862,-0.7089844,-0.23828125,-0.13476562,58.46875,2.25,100.03125
1537900406673,863,-0.79003906,-0.33984375,-0.16015625,54.90625,-34.875,135.59375
1537900406673,864,-1.2167969,-0.4111328,-0.18652344,32.46875,-37.90625,164.53125
1537900406673,865,-1.1230469,-0.38085938,-0.1328125,47.21875,-7.03125,182.40625
1537900406871,866,-1.1679688,-0.45703125,-0.17675781,76.40625,-4.15625,191.8125
1537900406871,867,-1.09375,-0.5292969,-0.18945312,76.65625,11.03125,190.46875
1537900406871,868,-0.9707031,-0.56347656,-0.06738281,69.3125,17.875,170.9375
1537900406871,869,-0.8730469,-0.58984375,-0.05859375,46.4375,21.53125,134.09375
1537900406873,870,-0.8408203,-0.53125,-0.05859375,33.5625,20.5625,89.53125
1537900407068,871,-0.8417969,-0.4560547,-0.08300781,52.53125,25.5625,46.4375
1537900407068,872,-0.91015625,-0.4609375,-0.0859375,79.28125,30.125,13.71875
1537900407069,873,-0.9453125,-0.5058594,-0.16601562,78.59375,31.78125,-2.28125
1537900407069,874,-0.8779297,-0.55859375,-0.13964844,54.25,16.21875,-3.375
1537900407069,875,-0.8779297,-0.609375,-0.1015625,9.625,-3.5,-1.46875
1537900407267,876,-1.1416016,-0.65722656,-0.048828125,-37.90625,-51.15625,-7.21875
1537900407268,877,-1.3544922,-0.62890625,-0.26171875,-74.21875,-36.8125,-29.5
1537900407268,878,-0.7363281,-0.2939453,-0.3017578,-65.03125,-1.84375,-83.75
1537900407268,879,-0.99609375,-0.5029297,-0.13476562,-32.78125,-30.28125,-123.90625
1537900407268,880,-1.2294922,-0.55078125,-0.020507812,-73.9375,0.90625,-145.59375
1537900407665,881,-1.2158203,-0.48046875,-0.0048828125,-96.625,17.4375,-147.71875
1537900407667,882,-1.0117188,-0.37890625,-0.051757812,-84.96875,25.75,-139.71875
1537900407667,883,-0.86621094,-0.3798828,-0.0048828125,-58.90625,18.65625,-124.15625
1537900407667,884,-0.7236328,-0.36914062,0.026367188,-56.65625,10.65625,-109.75
1537900407668,885,-0.7089844,-0.33691406,0.0146484375,-59.46875,2.25,-97.96875
1537900407668,886,-0.6738281,-0.30273438,0.037109375,-46.875,2.3125,-88.15625
1537900407668,887,-0.7480469,-0.35546875,0.047851562,-35.71875,-15.03125,-71.25
1537900407668,888,-0.91015625,-0.38867188,0.0146484375,-38.28125,-32.375,-43.21875
1537900407669,889,-1.0595703,-0.37402344,0,-34.5625,-42.125,-15.21875
1537900407863,890,-1.0458984,-0.37109375,0.016601562,-19.4375,-48.78125,8.84375
1537900407863,891,-1.2128906,-0.38964844,0.015625,-3.4375,-60.125,35.25
1537900407863,892,-1.2763672,-0.32617188,0.022460938,24.8125,-52.3125,64.1875
1537900407863,893,-1.1396484,-0.29296875,-0.12402344,61.15625,-28.03125,92.40625
1537900407864,894,-0.8183594,-0.23632812,0.06347656,86.03125,-24,107.53125
1537900408061,895,-1.1113281,-0.43066406,-0.30371094,61.03125,-63.96875,127.78125
1537900408062,896,-1.1484375,-0.18359375,-0.1171875,25.3125,-52.875,142.375
1537900408062,897,-1.2246094,-0.38085938,-0.08105469,90.125,-17.90625,153.78125
1537900408063,898,-1.0996094,-0.5253906,-0.17382812,86.96875,3.90625,149.34375
1537900408063,899,-0.95214844,-0.55371094,-0.1796875,77.8125,16.78125,126.15625
1537900408262,900,-0.75,-0.5625,-0.07714844,68.59375,18.40625,89.875
1537900408263,901,-0.7529297,-0.4375,-0.1015625,63.40625,25.5625,51.25
1537900408264,902,-0.74609375,-0.38085938,-0.123046875,82.3125,33.5625,16.34375
1537900408264,903,-0.8017578,-0.35351562,-0.10058594,89.84375,37.09375,-6.71875
1537900408264,904,-0.9560547,-0.27929688,-0.0859375,76.78125,28.96875,-14.25
1537900408459,905,-1.1181641,-0.26757812,-0.087890625,54.1875,24.8125,-14.90625
1537900408459,906,-1.0673828,-0.20898438,-0.1171875,23.1875,11.8125,-2.9375
1537900408459,907,-1.3261719,-0.13183594,-0.09863281,3.28125,-16.75,10.71875
1537900408460,908,-1.3222656,-0.25585938,-0.12109375,7.96875,-11.3125,23.65625
1537900408460,909,-1.1962891,-0.31445312,-0.19628906,-49.40625,-24.25,30.125
1537900408660,910,-0.74316406,-0.08300781,-0.18164062,-104.15625,-14,17.1875
1537900408660,911,-0.89746094,-0.0546875,-0.08203125,-91.625,-29.8125,-6.53125
1537900408660,912,-0.8925781,-0.16699219,0.047851562,-64.34375,12.875,-26.875
1537900408661,913,-0.7636719,-0.38378906,0.15332031,-81.0625,12,-38.96875
1537900408662,914,-0.84765625,-0.48046875,0.1328125,-120.375,-5.4375,-40.84375
1537900408858,915,-0.84375,-0.5136719,0.1484375,-133.8125,-7.8125,-54.09375
1537900408859,916,-0.84472656,-0.53125,0.19042969,-48.1875,4,-93.65625
1537900408859,917,-0.828125,-0.72265625,0.2919922,-55.8125,-7.71875,-134.53125
1537900408859,918,-1.0107422,-0.703125,0.25195312,-118.5,-23.75,-155.28125
1537900408859,919,-1.0966797,-0.55566406,0.19921875,-96.8125,-11.25,-171.03125
1537900409056,920,-1.0576172,-0.59277344,0.18847656,-75.53125,-8.9375,-177.3125
1537900409057,921,-1.0029297,-0.5644531,0.14453125,-84.71875,-13.4375,-170.3125
1537900409057,922,-0.89746094,-0.48046875,0.087890625,-88.53125,-14.1875,-156.5
1537900409057,923,-0.8535156,-0.45117188,0.033203125,-85.40625,-18.8125,-136.71875
1537900409057,924,-0.7519531,-0.3623047,0.047851562,-70.875,-13.0625,-111.96875
1537900409255,925,-0.7207031,-0.4423828,0.052734375,-49.625,-28.34375,-75.625
1537900409454,926,-0.7792969,-0.42578125,0.020507812,-48.34375,-41.21875,-26.5625
1537900409455,927,-0.99609375,-0.55371094,-0.032226562,-42.6875,-84.5625,41.90625
1537900409652,928,-1.2558594,-0.8066406,-0.0126953125,-146.1875,-130.75,127.375
1537900409653,929,-1.1025391,-0.08105469,0.06640625,-122.6875,-146,145.75
1537900409653,930,-1.2578125,-0.15820312,-0.42578125,15.65625,-131.4375,147.375
1537900409852,931,-1.2998047,-0.2421875,-0.20800781,74.4375,-86.5,143.1875
1537900409852,932,-1.1152344,-0.37402344,0.01953125,117.28125,-16.625,130.0625
1537900409852,933,-0.95410156,-0.44726562,-0.07324219,88.59375,-0.8125,114.71875
1537900409853,934,-0.9902344,-0.4423828,-0.140625,57.125,-6.90625,111
1537900409853,935,-0.94140625,-0.35058594,0.0029296875,50.59375,1.8125,95.5625
1537900409853,936,-0.81640625,-0.3779297,-0.0703125,27.9375,-5.4375,79.09375
1537900409855,937,-0.83691406,-0.38671875,0.0146484375,82.125,37.8125,2.25
1537900409855,938,-0.7441406,-0.33789062,-0.09765625,22.625,9.125,-15.53125
1537900409856,939,-0.8769531,-0.22949219,-0.04296875,19.9375,7.625,-17.90625
1537900410049,940,-0.7548828,-0.16015625,0.0146484375,43.875,21.84375,-18.875
1537900410050,941,-1.0751953,-0.390625,-0.041992188,10.40625,-5.09375,8.28125
1537900410050,942,-1.1572266,-0.43847656,-0.08300781,-48.59375,-24,19.21875
1537900410050,943,-1.1630859,-0.36328125,-0.109375,-62.5,-29.1875,11.9375
1537900410051,944,-1.2226562,-0.3203125,-0.051757812,-35.15625,-21.875,-2.6875
1537900410051,945,-1.2333984,-0.5048828,0.026367188,-7.03125,-3.75,-15.21875
1537900410249,946,-0.88964844,-0.61621094,0.026367188,-64.59375,-3.625,-33.09375
1537900410250,947,-0.9951172,-0.69433594,0.061523438,-149.25,-52.625,-54.53125
1537900410250,948,-1.1318359,-0.6044922,0.14941406,-220.59375,-47.5,-80.40625
1537900410447,949,-1.2246094,-0.50683594,0.17285156,-220.28125,-18.875,-110.375
1537900410447,950,-1.1875,-0.40234375,0.16503906,-174.15625,18.46875,-135.03125
1537900410448,951,-1.1582031,-0.5078125,0.19921875,-134.40625,40.375,-147
1537900410449,952,-1.1611328,-0.5546875,0.24316406,-138.5625,52.28125,-138.75
1537900410449,953,-1.0244141,-0.34375,0.23339844,-152,59.375,-122.625
1537900410450,954,-0.92285156,-0.26171875,0.1171875,-130.875,56.25,-113.84375
1537900410450,955,-0.86621094,-0.25,0.13671875,-57.6875,51.25,-107.875
1537900410646,956,-0.8828125,-0.39257812,0.1640625,-14.0625,29.84375,-97.125
1537900410647,957,-0.9921875,-0.3955078,0.14941406,-29.875,2.65625,-74.78125
1537900410647,958,-0.9511719,-0.33007812,0.11328125,-32.4375,-19.0625,-58.65625
1537900410647,959,-1.0439453,-0.29101562,0.0390625,-17.90625,-42.375,-40
1537900410648,960,-1.1152344,-0.22070312,0.036132812,3.46875,-53.3125,-6.25
1537900410845,961,-1.1083984,-0.19921875,-0.05859375,52.28125,-49.75,40.03125
1537900410846,962,-0.84765625,-0.20898438,-0.16796875,73.90625,-45.90625,80.375
1537900410846,963,-1.0273438,-0.265625,-0.21582031,72.1875,-61.71875,116.0625
1537900410846,964,-1.1269531,-0.2861328,-0.23828125,74.6875,-48.84375,145.75
1537900410846,965,-1.2089844,-0.33398438,-0.19042969,94.59375,-31.3125,161.65625
1537900411043,966,-1.0957031,-0.44921875,-0.23046875,95.875,-17.15625,172.15625
1537900411043,967,-1.0878906,-0.44335938,-0.2685547,81.03125,-20.59375,184.0625
1537900411043,968,-1.0751953,-0.49609375,-0.15917969,93.4375,-1.34375,184.25
1537900411044,969,-0.984375,-0.6464844,-0.13378906,77.5625,9.125,168.25
1537900411045,970,-0.9111328,-0.6591797,-0.14453125,34.03125,8.46875,131.5625
1537900411441,971,-0.8095703,-0.62109375,-0.14550781,25.5625,17.0625,74.25
1537900411442,972,-0.8339844,-0.48535156,-0.16601562,30.375,16.28125,11.03125
1537900411442,973,-0.9423828,-0.43554688,-0.19042969,60.71875,30.3125,-37.96875
1537900411442,974,-1.0683594,-0.33691406,-0.14550781,64.5625,36.53125,-63.6875
1537900411442,975,-1.0996094,-0.00390625,-0.080078125,67.6875,42.53125,-56.15625
1537900411444,976,-1.0205078,-0.044921875,-0.06738281,76.78125,23.71875,-12.71875
1537900411444,977,-1.4003906,-0.3359375,-0.076171875,24.34375,-24.6875,24.34375
1537900411444,978,-1.0898438,-0.24707031,-0.1328125,-56.34375,-30.96875,29.84375
1537900411445,979,-0.60839844,-0.29296875,-0.14160156,-102.375,-49.75,18.28125
1537900411639,980,-0.5751953,-0.60253906,-0.0048828125,-161.28125,-89.1875,12.25
1537900411639,981,-0.9482422,-0.71777344,0.21386719,-269.375,-92.90625,-9.53125
1537900411639,982,-1.2568359,-0.5332031,0.296875,-264,-52.4375,-53.25
1537900411640,983,-1.1640625,-0.36914062,0.1484375,-183,17.3125,-106.03125
1537900411640,984,-1.0996094,-0.53027344,0.13183594,-92.125,27.34375,-152.0625
1537900411641,985,-1.0712891,-0.6542969,0.17773438,-68.0625,30.5625,-179.53125
1537900411838,986,-1.1171875,-0.6904297,0.25390625,-95.53125,19.8125,-191.1875
1537900411838,987,-1.1279297,-0.64746094,0.25683594,-106.9375,16.15625,-200.53125
1537900411839,988,-1.0644531,-0.578125,0.24707031,-82.21875,34.09375,-207.46875
1537900411839,989,-0.8457031,-0.5810547,0.18652344,-66.3125,26.28125,-199
1537900411839,990,-0.71875,-0.5546875,0.12988281,-87.96875,13.21875,-175
1537900412236,991,-0.63964844,-0.4375,0.13671875,-75.875,0,-146.25
1537900412236,992,-0.54589844,-0.4482422,0.07421875,-54.28125,-13.4375,-114.21875
1537900412237,993,-0.5107422,-0.4716797,0.040039062,-55.25,-41.28125,-66.96875
1537900412237,994,-0.6972656,-0.42773438,-0.0029296875,-30.53125,-72.53125,-2.59375
1537900412238,995,-0.97558594,-0.5126953,-0.1640625,3.59375,-96.34375,73.90625
1537900412238,996,-1.0615234,-0.48046875,-0.14257812,15.65625,-96.5625,131.5625
1537900412239,997,-1.0048828,-0.43847656,-0.2421875,11.53125,-88.15625,164.96875
1537900412239,998,-1.1328125,-0.58203125,-0.3701172,-16.1875,-79.96875,182.71875
1537900412240,999,-1.1679688,-0.34472656,-0.32910156,-7.15625,-45.1875,177.59375
1537900412433,1000,-1.1142578,-0.5048828,-0.21679688,40.375,-13.625,154.53125
1537900412435,1001,-1.0214844,-0.52734375,-0.23339844,37.40625,-9.65625,140.4375
1537900412435,1002,-0.9560547,-0.5605469,-0.21191406,19.46875,-17.84375,126.28125
1537900412435,1003,-0.89746094,-0.51171875,-0.13574219,13.59375,-12.90625,105.21875
1537900412435,1004,-0.8798828,-0.5419922,-0.11816406,0.03125,-8.875,80.25
1537900412437,1005,-0.81347656,-0.40722656,-0.07324219,-14.65625,-7.15625,59.6875
1537900412632,1006,-0.92871094,-0.39453125,-0.13183594,-15.875,-19.96875,49.46875
1537900412832,1007,-0.8955078,-0.26464844,-0.09765625,-6.96875,-1.59375,36.65625
1537900413030,1008,-0.8378906,-0.26171875,-0.140625,5,-2.8125,27.625
1537900413031,1009,-0.86035156,-0.21191406,-0.10253906,6.75,-0.75,21.40625
1537900413032,1010,-0.90722656,-0.21484375,-0.14257812,-6.84375,0.84375,19.46875
1537900413032,1011,-0.86621094,-0.20117188,-0.15234375,-33.15625,-8.6875,28.96875
1537900413032,1012,-0.9189453,-0.18652344,-0.18457031,-50.6875,-10.40625,34.53125
1537900413032,1013,-0.97753906,-0.23925781,-0.13574219,-48.28125,-9.15625,26.21875
1537900413033,1014,-1.0175781,-0.2626953,-0.05078125,-35.84375,-2.28125,12.9375
1537900413034,1015,-1.2382812,-0.31445312,0.030273438,-21.0625,-6.71875,-3.25
1537900413034,1016,-1.2724609,-0.43164062,0.055664062,-3.3125,1.28125,-18.15625
1537900413231,1017,-1.2900391,-0.56933594,0.18359375,-189.96875,-26.3125,-108.21875
1537900413232,1018,-1.2714844,-0.4140625,0.16699219,-177.75,0,-150.96875
1537900413232,1019,-1.2744141,-0.42382812,0.18066406,-122.4375,23.125,-181.46875
1537900413232,1020,-1.1914062,-0.44433594,0.13183594,-85.53125,33.5625,-191.90625
1537900413233,1021,-1.0957031,-0.4033203,0.17773438,-72.71875,32.09375,-185.875
1537900413427,1022,-0.953125,-0.390625,0.1328125,-64.53125,29.53125,-166.59375
1537900413427,1023,-0.84472656,-0.3310547,0.125,-64.84375,22.4375,-138.375
1537900413428,1024,-0.7861328,-0.30273438,0.091796875,-43.40625,17.9375,-111.40625
1537900413429,1025,-0.7363281,-0.32421875,0.048828125,-30.65625,8.78125,-83.9375
1537900413429,1026,-0.72265625,-0.3154297,0.001953125,-25.59375,-7.09375,-58.375
1537900413627,1027,-0.74316406,-0.3154297,-0.026367188,-7.03125,-16.8125,-35.0625
1537900413627,1028,-0.7626953,-0.4423828,-0.103515625,-11.625,-33.71875,-3.0625
1537900413627,1029,-0.921875,-0.4111328,-0.15429688,-27.34375,-50.75,32.46875
1537900413628,1030,-1.0703125,-0.4267578,0.06933594,-4.09375,-58.96875,65.65625
1537900413628,1031,-1.3740234,-0.5214844,-0.14257812,11.53125,-55.4375,105.03125
1537900413828,1032,-0.89160156,-0.3984375,-0.22070312,29.90625,-50.125,123.34375
1537900413829,1033,-0.8232422,-0.375,-0.24609375,42.84375,-57.28125,135.40625
1537900413829,1034,-1.0419922,-0.4375,-0.25585938,36.53125,-40.1875,139.5625
1537900413829,1035,-1.0273438,-0.3720703,-0.078125,68.71875,-8.5,121.625
1537900413829,1036,-1.0878906,-0.50097656,-0.076171875,100.03125,11.53125,105.03125
1537900414024,1037,-0.9951172,-0.5126953,-0.1484375,85.375,17,104.34375
1537900414024,1038,-0.9638672,-0.49902344,-0.09082031,72.25,11.28125,101.96875
1537900414024,1039,-0.88671875,-0.5253906,-0.09863281,63.59375,17.0625,94.09375
1537900414026,1040,-0.8310547,-0.5332031,-0.10546875,38.0625,10.375,84.875
1537900414026,1041,-0.85058594,-0.45703125,-0.103515625,33.5625,10.375,70.40625
1537900414224,1042,-0.82910156,-0.47558594,-0.080078125,58.625,13.96875,50.21875
1537900414225,1043,-0.88671875,-0.5449219,-0.10253906,59.375,11.71875,36.3125
1537900414225,1044,-0.8955078,-0.5810547,-0.08984375,42.09375,1.4375,27.6875
1537900414422,1045,-0.9707031,-0.6640625,-0.10644531,7.4375,-19.90625,17.75
1537900414423,1046,-1.0927734,-0.6738281,-0.087890625,-26.5625,-38.09375,-1.84375
1537900414423,1047,-1.4257812,-0.7441406,-0.09375,-55.25,-50,-33.40625
1537900414423,1048,-0.9589844,-0.5078125,-0.22558594,-85.46875,-14.90625,-78.875
1537900414423,1049,-0.8408203,-0.49902344,-0.052734375,-82.40625,-27.59375,-117.1875
1537900414424,1050,-1.1123047,-0.50878906,0.00390625,-106.875,-10.34375,-135.03125
1537900414425,1051,-1.0849609,-0.4716797,0.09765625,-111.84375,1.5625,-139.59375
1537900414620,1052,-1.1992188,-0.39160156,0,-96.21875,18,-139.40625
1537900414621,1053,-1.1171875,-0.38378906,0.12695312,-53.53125,33.5625,-137.21875
1537900414622,1054,-0.94140625,-0.43164062,0.07128906,-40.78125,36.90625,-128.4375
1537900414622,1055,-0.85546875,-0.3623047,0.0703125,-50.125,25.3125,-116.71875
1537900414622,1056,-0.78125,-0.39160156,0.09667969,-59.84375,13.78125,-98.96875
1537900414819,1057,-0.7548828,-0.28125,0.02734375,-69.03125,1.5,-77.53125
1537900414819,1058,-0.7597656,-0.2734375,0.0068359375,-39.1875,-8.625,-51.28125
1537900414819,1059,-0.86328125,-0.33984375,0.0029296875,-28.875,-26.1875,-14.1875
1537900414820,1060,-0.99121094,-0.3251953,-0.0126953125,-27.65625,-29.125,22.875
1537900414821,1061,-1.0507812,-0.35351562,0.013671875,-6.78125,-40.59375,56.5625
1537900415017,1062,-1.1943359,-0.3671875,0.046875,17.5,-43.84375,84.28125
1537900415018,1063,-1.0380859,-0.3564453,0.064453125,63.21875,-28.34375,101.5625
1537900415018,1064,-0.9082031,-0.3935547,-0.08496094,74.8125,-41.15625,118.75
1537900415019,1065,-1.1298828,-0.4267578,-0.06738281,67.4375,-43.46875,130.90625
1537900415019,1066,-1.1318359,-0.4169922,-0.07910156,67.3125,-26.8125,128.90625
1537900415219,1067,-1.1308594,-0.40722656,-0.0703125,82.03125,-4.84375,114.84375
1537900415219,1068,-0.9970703,-0.4267578,-0.18554688,85.3125,6.8125,107.59375
1537900415220,1069,-0.9980469,-0.24804688,-0.111328125,86.28125,12.25,107.96875
1537900415220,1070,-1.1152344,-0.09375,-0.015625,116.8125,18.90625,125.65625
1537900415220,1071,-0.9667969,-0.3857422,-0.009765625,145.375,44.96875,136.75
1537900415415,1072,-0.8857422,-0.52734375,-0.080078125,77.3125,36.125,121.5625
1537900415415,1073,-0.88671875,-0.3173828,-0.038085938,38.4375,18.125,77.25
1537900415415,1074,-0.953125,-0.3466797,0.0078125,51.3125,21.40625,39.96875
1537900415417,1075,-0.9433594,-0.3388672,-0.053710938,41.25,17.0625,19.9375
1537900415417,1076,-0.93847656,-0.35839844,-0.020507812,38.875,5.34375,9.03125
1537900415613,1077,-0.99121094,-0.5,0.0126953125,3.71875,-21.25,-6.84375
1537900415614,1078,-1.1494141,-0.515625,-0.08984375,-28.09375,-42.125,-29.875
1537900415614,1079,-1.0830078,-0.64941406,-0.125,-87,-44.875,-49.8125
1537900415614,1080,-0.76660156,-0.4892578,-0.09082031,-165.96875,-40.3125,-79.90625
1537900415615,1081,-1.1542969,-0.38964844,-0.11230469,-167.875,-38.96875,-120.75
1537900416011,1082,-1.3652344,-0.46972656,9.765625E-04,-130.03125,4.0625,-158.03125
1537900416212,1083,-1.3369141,-0.50683594,0.13574219,-130.3125,25.75,-181.71875
1537900416212,1084,-1.2851562,-0.40429688,0.057617188,-136.375,31.0625,-186.59375
1537900416213,1085,-1.1201172,-0.30859375,0.07128906,-102.0625,43,-174.8125
1537900416214,1086,-0.94433594,-0.31152344,0.09277344,-58.125,48.03125,-154.875
1537900416214,1087,-0.81933594,-0.33007812,0.080078125,-50.5625,43.6875,-135.9375
1537900416214,1088,-0.8378906,-0.29101562,0.08886719,-39.0625,32.875,-110.375
1537900416214,1089,-0.8105469,-0.33496094,0.076171875,-31.6875,19.875,-79
1537900416214,1090,-0.89453125,-0.3173828,0.08984375,-29.5,2.25,-47.4375
1537900416215,1091,-0.9042969,-0.34765625,0.080078125,-16.4375,-11.6875,-18.875
1537900416409,1092,-1.1289062,-0.41601562,-0.25390625,-47.4375,-76.84375,171.3125
1537900416412,1093,-1.1113281,-0.2861328,-0.09863281,19.28125,-53.125,147.09375
1537900416412,1094,-1.0878906,-0.3154297,-0.040039062,82.8125,-17.53125,104.0625
1537900416412,1095,-0.95996094,-0.32617188,-0.11425781,106,5.34375,72.625
1537900416412,1096,-0.9140625,-0.3486328,-0.033203125,122.71875,11.53125,57.71875
1537900416609,1097,-0.890625,-0.31445312,-0.045898438,109.90625,16.53125,49.46875
1537900416610,1098,-0.9013672,-0.36132812,-0.061523438,98.375,13.59375,50.9375
1537900416808,1099,-0.96972656,-0.33789062,-0.09765625,81.71875,10.59375,50.78125
1537900416809,1100,-0.9863281,-0.32226562,-0.14355469,76.09375,13.84375,41.5625
1537900416809,1101,-0.98046875,-0.33007812,-0.18261719,71.15625,15.71875,33.0625
1537900416809,1102,-1.0214844,-0.39160156,-0.18164062,48.9375,11.40625,29.9375
1537900416809,1103,-1.0644531,-0.40234375,-0.12597656,22.625,3.46875,24.59375
1537900416809,1104,-1.0810547,-0.40625,-0.1328125,8.65625,-4.03125,18.1875
1537900416810,1105,-1.1240234,-0.45410156,-0.10839844,-14.90625,-21,10.0625
1537900416811,1106,-0.9785156,-0.38476562,-0.14160156,-45.59375,-9.28125,-6.59375
1537900417005,1107,-0.8769531,-0.20507812,-0.14550781,-41.15625,-4.84375,-35.15625
1537900417005,1108,-0.9033203,-0.28515625,-0.051757812,-28.03125,7.96875,-60.0625
1537900417005,1109,-1.1142578,-0.2626953,0.034179688,-42.3125,10.65625,-83.5
1537900417007,1110,-1.0136719,-0.36035156,0.03125,-49.5625,19.40625,-96.625
1537900417007,1111,-0.9951172,-0.40429688,0.022460938,-69.78125,7.3125,-105.53125
1537900417206,1112,-0.94921875,-0.38085938,0.009765625,-67.40625,9.1875,-115.4375
1537900417206,1113,-0.8623047,-0.43847656,-0.009765625,-50.625,10.1875,-122.625
1537900417206,1114,-0.8613281,-0.46777344,0.005859375,-57.875,1.4375,-121.96875
1537900417206,1115,-0.83203125,-0.45117188,-0.01171875,-64.46875,3.84375,-113.59375
1537900417206,1116,-0.7910156,-0.51953125,-0.022460938,-62.09375,-2.15625,-105
1537900417402,1117,-0.7841797,-0.5205078,-0.038085938,-61,-10.34375,-100.1875
1537900417403,1118,-0.7597656,-0.5097656,-0.053710938,-60,-13.4375,-90.09375
1537900417403,1119,-0.71972656,-0.46777344,-0.083984375,-50.78125,-15.75,-72.53125
1537900417403,1120,-0.66503906,-0.4501953,-0.09082031,-38.71875,-16.8125,-54.6875
1537900417404,1121,-0.6611328,-0.4580078,-0.11425781,-25.84375,-23.5,-32.375
1537900417601,1122,-0.6347656,-0.453125,-0.1328125,-21.0625,-31.5625,-6.71875
1537900417602,1123,-0.7050781,-0.484375,-0.15722656,-11.5,-39.75,20.0625
1537900417602,1124,-0.9248047,-0.5185547,-0.14746094,-7.03125,-50.0625,48.15625
1537900417602,1125,-0.9580078,-0.49804688,-0.16015625,3.40625,-49.21875,78.40625
1537900417603,1126,-1.1152344,-0.4560547,-0.10449219,20.84375,-50.625,103.375
1537900417803,1127,-1.1162109,-0.37597656,-0.12207031,58.875,-32.4375,118.875
1537900417803,1128,-1.1171875,-0.5371094,-0.15039062,36.96875,-39.375,127.96875
1537900417804,1129,-1.0927734,-0.38867188,-0.11425781,-1.84375,-41.03125,121.1875
1537900417804,1130,-1.1337891,-0.359375,-0.16796875,8.09375,-27.125,105.21875
1537900417805,1131,-1.0527344,-0.40234375,-0.15722656,26.65625,-10.09375,79.6875
1537900417998,1132,-0.9785156,-0.37109375,-0.16601562,27.375,6.34375,51.25
1537900417998,1133,-0.9248047,-0.31054688,-0.13476562,35.9375,13.59375,31.96875
1537900418000,1134,-0.87402344,-0.31152344,-0.10546875,42.34375,22.9375,19.21875
1537900418000,1135,-0.8046875,-0.31835938,-0.083984375,34.46875,22.1875,9.5625
1537900418000,1136,-0.8046875,-0.29589844,-0.06347656,18.40625,17.375,4
1537900418398,1137,-0.8613281,-0.2607422,-0.052734375,15.1875,12.375,-0.1875
1537900418398,1138,-0.8300781,-0.25878906,-0.05078125,26.15625,20.3125,-7.09375
1537900418399,1139,-0.86621094,-0.28515625,-0.047851562,30.0625,11.71875,-9.34375
1537900418399,1140,-0.8779297,-0.32128906,-0.068359375,20.375,11.28125,-7.78125
1537900418400,1141,-0.8544922,-0.30566406,-0.1015625,10.71875,4.0625,-4.40625
1537900418400,1142,-0.875,-0.33691406,-0.12695312,6.03125,-2.6875,5.78125
1537900418400,1143,-0.85058594,-0.35742188,-0.12988281,-0.1875,-5.25,11.59375
1537900418401,1144,-0.90234375,-0.3671875,-0.13769531,2.59375,-4.84375,11.15625
1537900418401,1145,-0.9394531,-0.3955078,-0.1640625,5.34375,-5.21875,10.0625
1537900418598,1146,-0.94140625,-0.41015625,-0.17675781,-1.3125,-6.78125,9.125
1537900418598,1147,-0.90234375,-0.37402344,-0.18554688,0.59375,-4.09375,6.875
1537900418598,1148,-1.0126953,-0.41601562,-0.17871094,1.09375,-8.9375,8.34375
1537900418598,1149,-1.1210938,-0.390625,-0.17578125,-5.5,-10.03125,9.125
1537900418598,1150,-1.0507812,-0.33984375,-0.15332031,-8.5,-3.75,12.5
1537900418796,1151,-1.1972656,-0.4140625,-0.125,-29.3125,-25.71875,19.9375
1537900418796,1152,-1.3222656,-0.28125,-0.08691406,-45.1875,-22.0625,22.5625
1537900418797,1153,-1.0644531,-0.2705078,-0.13769531,-41.21875,-5.625,20.90625
1537900418797,1154,-0.8564453,-0.2841797,-0.046875,-64.15625,-9.28125,12.0625
1537900418798,1155,-1.0761719,-0.24609375,0.05078125,-87.59375,-14,-7.21875
1537900418993,1156,-0.98828125,-0.19140625,0.068359375,-74,13.90625,-35.53125
1537900418993,1157,-0.8564453,-0.2607422,0.048828125,-62.34375,10.84375,-55.9375
1537900418993,1158,-0.8408203,-0.35058594,0.06542969,-73.3125,2,-65.1875
1537900419194,1159,-0.9375,-0.42871094,0.08886719,-84.3125,-6,-75.6875
1537900419194,1160,-0.9785156,-0.4501953,0.10546875,-90.21875,0.78125,-89.4375
1537900419194,1161,-0.921875,-0.4248047,0.07128906,-80.09375,3.84375,-100.125
1537900419194,1162,-0.89746094,-0.46972656,0.06933594,-67.09375,0.09375,-102.96875
1537900419194,1163,-0.8564453,-0.5214844,0.0546875,-68.6875,-6.59375,-103.46875
1537900419194,1164,-0.84277344,-0.5751953,0.009765625,-79.0625,-16.0625,-102.75
1537900419195,1165,-0.86816406,-0.6386719,0,-84.4375,-21.8125,-105.125
1537900419389,1166,-0.80859375,-0.6123047,-0.036132812,-85.65625,-22.65625,-111.46875
1537900419391,1167,-0.82714844,-0.6279297,-0.076171875,-68.625,-24.96875,-114.53125
1537900419391,1168,-0.77246094,-0.6435547,-0.11035156,-66.96875,-20.65625,-108.78125
1537900419391,1169,-0.7089844,-0.5644531,-0.119140625,-67.28125,-17.21875,-100.53125
1537900419391,1170,-0.6328125,-0.5419922,-0.16503906,-50.5625,-15.75,-89.25
1537900419589,1171,-0.59472656,-0.51464844,-0.15820312,-43.28125,-21.0625,-70.625
1537900419589,1172,-0.5859375,-0.5234375,-0.18261719,-28.09375,-22.96875,-47.9375
1537900419589,1173,-0.48535156,-0.4892578,-0.25,-19.53125,-23.28125,-27.25
1537900419789,1174,-0.45117188,-0.4765625,-0.24902344,-10.8125,-31.9375,-8.0625
1537900419790,1175,-0.46191406,-0.48242188,-0.265625,-6.5,-34.875,15.71875
1537900419790,1176,-0.47753906,-0.47851562,-0.3017578,-1,-39.25,40.5625
1537900419791,1177,-0.5517578,-0.57421875,-0.2548828,5,-50.5625,62.3125
1537900419791,1178,-0.75097656,-0.6621094,-0.20214844,4.1875,-63.375,79.21875
1537900419791,1179,-1.0917969,-0.7392578,-0.21972656,-1.65625,-79,93
1537900419986,1180,-1.40625,-0.6933594,-0.0859375,23,-69.21875,106.78125
1537900419986,1181,-1.4882812,-0.77246094,-0.12792969,41.96875,-44.15625,120.90625
1537900419987,1182,-1.0869141,-0.5185547,-0.24609375,38.25,-26.5625,116.875
1537900419987,1183,-0.99902344,-0.48535156,-0.3466797,53.34375,-34.0625,117.34375
1537900419987,1184,-1.0693359,-0.4501953,-0.29882812,33.75,-15.6875,120.40625
1537900419989,1185,-1.0195312,-0.4375,-0.2705078,24.59375,-1.53125,115.875
1537900420186,1186,-0.9511719,-0.3798828,-0.17089844,22.6875,24.40625,92.9375
1537900420186,1187,-0.90625,-0.33398438,-0.13183594,42.90625,33.4375,60.84375
1537900420187,1188,-0.8535156,-0.34472656,-0.06933594,55.53125,42.53125,35.6875
1537900420188,1189,-0.7685547,-0.31835938,-0.09375,39.59375,34.03125,23.4375
1537900420189,1190,-0.78515625,-0.28027344,-0.087890625,17.375,23.46875,21.96875
1537900420384,1191,-0.79296875,-0.25585938,-0.08691406,12.625,14.9375,20.84375
1537900420386,1192,-0.8144531,-0.25390625,-0.10839844,4.875,10.84375,12.9375
1537900420386,1193,-0.81933594,-0.23144531,-0.12011719,-8,0.40625,6.6875
1537900420386,1194,-0.9121094,-0.18261719,-0.123046875,-13.25,-1.0625,1.8125
1537900420386,1195,-0.8730469,-0.16308594,-0.1328125,-1.59375,4.75,-4.40625
1537900420781,1196,-0.8359375,-0.15722656,-0.14355469,5.78125,3.03125,-10.21875
1537900420782,1197,-0.87109375,-0.18261719,-0.17871094,8.28125,-4.84375,-9.78125
1537900420783,1198,-0.921875,-0.23535156,-0.21875,-5.3125,-14.59375,-3.96875
1537900420784,1199,-0.9863281,-0.24609375,-0.2265625,-19.5,-17.71875,1.8125
1537900420785,1200,-1.0019531,-0.23535156,-0.23730469,-25.46875,-15.8125,2.125
1537900420785,1201,-1.1132812,-0.30078125,-0.15722656,-14.3125,-21.125,-3.375
1537900420785,1202,-1.2558594,-0.36328125,-0.021484375,-14.46875,-25.15625,-11.3125
1537900420786,1203,-1.3330078,-0.44140625,-0.001953125,-21.25,-22.65625,-15.46875
1537900420788,1204,-1.0019531,-0.3984375,-0.068359375,-35.65625,-22.65625,-21.375
1537900420982,1205,-0.75878906,-0.46191406,-0.061523438,-53.96875,-32.71875,-32.3125
1537900420983,1206,-1.0048828,-0.55566406,0.00390625,-87.125,-48.78125,-54.46875
1537900420983,1207,-1.0732422,-0.5263672,0.0546875,-102.96875,-20.59375,-91.375
1537900420983,1208,-1.0595703,-0.46972656,0.033203125,-93.65625,-15.9375,-128.90625
1537900420983,1209,-1.0332031,-0.4951172,-0.040039062,-83.375,-9.59375,-146.375
1537900420983,1210,-0.9238281,-0.4873047,-0.030273438,-88.15625,-8.4375,-145.15625
1537900421179,1211,-0.89160156,-0.46777344,-0.017578125,-95.09375,-6.59375,-134.34375
1537900421576,1212,-0.8046875,-0.41308594,-0.026367188,-87.28125,0.65625,-117.8125
1537900421578,1213,-0.75390625,-0.39941406,-0.022460938,-61.90625,0.59375,-100.28125
1537900421578,1214,-0.6640625,-0.4296875,-0.046875,-41.53125,-1.3125,-80.15625
1537900421578,1215,-0.61621094,-0.44335938,-0.030273438,-48.40625,-14.84375,-52.375
1537900421579,1216,-0.60253906,-0.41601562,-0.030273438,-58.84375,-22.78125,-25.28125
1537900421579,1217,-0.6357422,-0.38867188,-0.048828125,-43.71875,-28.53125,-3.96875
1537900421580,1218,-0.6894531,-0.421875,-0.053710938,-28.875,-32.5,17.5
1537900421580,1219,-0.91015625,-0.4482422,-0.072265625,-22.0625,-42.96875,44.78125
1537900421580,1220,-1.1044922,-0.44628906,-0.040039062,-1.34375,-38.65625,67.84375
1537900421776,1221,-1.2548828,-0.49804688,0.06542969,32.8125,-37.90625,84.15625
1537900421778,1222,-0.7421875,-0.3251953,-0.23144531,85,-16.25,133.84375
1537900421778,1223,-1.0185547,-0.4638672,-0.296875,64.75,-32.90625,137.3125
1537900421778,1224,-1.0839844,-0.38671875,-0.18164062,42.71875,-3.5,121.3125
1537900421779,1225,-0.96972656,-0.35839844,-0.18652344,54.71875,11.40625,94.53125
1537900421780,1226,-1.0175781,-0.3251953,-0.107421875,45.09375,16.21875,71.6875
1537900421780,1227,-0.7841797,-0.2529297,-0.11035156,45.46875,23.0625,56.125
1537900421780,1228,-0.8652344,-0.22070312,-0.115234375,47.53125,16.84375,52.53125
1537900421974,1229,-0.8076172,-0.32421875,-0.11621094,53.28125,25.0625,50.15625
1537900421975,1230,-0.8535156,-0.32128906,-0.1015625,39.34375,18,40.375
1537900421976,1231,-0.8261719,-0.32226562,-0.1171875,34.03125,20.90625,27.375
1537900421976,1232,-0.8720703,-0.27539062,-0.119140625,27.5625,15.0625,16.78125
1537900421976,1233,-0.8564453,-0.23925781,-0.13574219,30.125,16.40625,10.1875
1537900422173,1234,-0.8486328,-0.22265625,-0.171875,20.4375,12.1875,8.03125
1537900422173,1235,-0.89160156,-0.18847656,-0.1953125,3.90625,2.125,11.15625
1537900422173,1236,-0.9658203,-0.19140625,-0.19140625,-0.75,-0.0625,15.1875
1537900422174,1237,-1.0908203,-0.21875,-0.18945312,-11.4375,-9.15625,17.5
1537900422174,1238,-1.2353516,-0.18652344,-0.19824219,-15.6875,-10.6875,14.75
1537900422371,1239,-1.2753906,-0.15625,-0.15917969,-9.96875,-6.1875,13.96875
1537900422372,1240,-1.3671875,-0.34570312,-0.080078125,-19.5,-25.65625,20.8125
1537900422373,1241,-1.3916016,-0.4638672,-0.16699219,-72.28125,-22.28125,19.9375
1537900422373,1242,-0.6191406,-0.27148438,-0.20507812,-117.9375,-1.96875,-0.3125
1537900422374,1243,-0.8466797,-0.29785156,-0.030273438,-128.25,-42.9375,-23.6875
1537900422570,1244,-1.0273438,-0.26464844,0.2890625,-118.125,12.4375,-67.21875
1537900422570,1245,-1.0400391,-0.030273438,0.33789062,-89.84375,25.625,-111.65625
1537900422570,1246,-0.9580078,-0.24707031,0.19726562,-63.5,23.71875,-119.65625
1537900422571,1247,-0.99121094,-0.31640625,0.234375,-92.46875,-11,-110.375
1537900422572,1248,-0.99121094,-0.41308594,0.2548828,-122.03125,-32.125,-115.625
1537900422770,1249,-1.0546875,-0.47558594,0.265625,-144.5,-27.25,-128.875
1537900422771,1250,-1.0527344,-0.4267578,0.2607422,-139.40625,-17.21875,-147.40625
1537900422771,1251,-1.0019531,-0.4501953,0.20410156,-107.8125,-10.03125,-154.5
1537900422771,1252,-1.0078125,-0.546875,0.16894531,-89.8125,-23.875,-145.65625
1537900422772,1253,-0.95996094,-0.5732422,0.12402344,-101.21875,-30.96875,-129.46875
1537900422969,1254,-0.86035156,-0.5498047,0.07324219,-105.96875,-37.375,-115.0625
1537900422969,1255,-0.78808594,-0.49121094,0.0126953125,-107.125,-37.84375,-105.90625
1537900422970,1256,-0.6699219,-0.4326172,-0.05859375,-86.125,-29.25,-100.59375
1537900422970,1257,-0.6435547,-0.44628906,-0.07910156,-67.46875,-32.25,-90.84375
1537900422971,1258,-0.63183594,-0.42578125,-0.10546875,-55.0625,-27.65625,-72.03125
1537900423166,1259,-0.55566406,-0.39746094,-0.13867188,-34.4375,-30.21875,-49.8125
1537900423166,1260,-0.5419922,-0.4482422,-0.14355469,-19.71875,-40.71875,-20.65625
1537900423365,1261,-0.6953125,-0.51171875,-0.14257812,-19.4375,-64.84375,21.84375
1537900423365,1262,-0.9248047,-0.578125,-0.11328125,-27.53125,-96.5625,66.21875
1537900423366,1263,-1.5791016,-0.6376953,-0.080078125,-5.6875,-122.03125,111.3125
1537900423367,1264,-1.1787109,-0.59277344,-0.12011719,18.46875,-74.90625,136.15625
1537900423367,1265,-1.0683594,-0.4375,-0.16308594,31.0625,-87.28125,139.15625
1537900423368,1266,-1.1679688,-0.49902344,-0.26953125,18,-64.46875,137.125
1537900423369,1267,-1.0253906,-0.24414062,-0.2265625,15.5625,-34.6875,121.09375
1537900423369,1268,-1.0751953,-0.3095703,-0.234375,84.875,-8.625,98.96875
1537900423564,1269,-1.0478516,-0.45410156,-0.234375,83.3125,15.5625,82.125
1537900423564,1270,-0.8964844,-0.3828125,-0.12402344,59.0625,23.90625,63.21875
1537900423565,1271,-0.88378906,-0.37402344,-0.08300781,43.9375,16.21875,52.28125
1537900423565,1272,-0.84375,-0.34570312,-0.0390625,33.75,23.3125,48.625
1537900423566,1273,-0.86328125,-0.32910156,-0.055664062,28.0625,14.28125,45.09375
1537900423764,1274,-0.859375,-0.29785156,-0.07714844,36.90625,16.90625,38.6875
1537900423765,1275,-0.8222656,-0.3076172,-0.09472656,33.125,15.3125,28
1537900423765,1276,-0.7753906,-0.29101562,-0.08496094,25.4375,14.875,16.15625
1537900423765,1277,-0.8310547,-0.22753906,-0.13183594,17,10.71875,5.125
1537900423766,1278,-0.91503906,-0.20996094,-0.18261719,26.84375,9.03125,-2.625
1537900423963,1279,-0.9707031,-0.21191406,-0.15625,18.53125,9.9375,-5.625
1537900423964,1280,-1.0390625,-0.2626953,-0.13476562,3.28125,-0.375,2.5625
1537900423964,1281,-1.0527344,-0.2763672,-0.091796875,-14.25,-5.3125,12.0625
1537900423964,1282,-1.3193359,-0.4345703,0.032226562,-25.40625,-40.71875,13.59375
1537900424160,1283,-1.3701172,-0.47070312,-0.0078125,-58.3125,-24.90625,2.96875
1537900424160,1284,-0.7626953,-0.29589844,-0.14550781,-65.03125,-14.1875,-20.875
1537900424161,1285,-0.68652344,-0.52246094,-0.051757812,-66.1875,-50.78125,-35.65625
1537900424161,1286,-1.0839844,-0.67285156,0.06738281,-136.84375,-46.875,-57.6875
1537900424359,1287,-1.2392578,-0.51171875,0.099609375,-159.375,-20.15625,-102.75
1537900424359,1288,-1.1884766,-0.3984375,0.001953125,-104.25,13,-150.40625
1537900424359,1289,-1.125,-0.51171875,0.001953125,-66,16.09375,-174.8125
1537900424557,1290,-1.0439453,-0.49414062,0.025390625,-71.375,23.1875,-178.90625
1537900424558,1291,-0.9238281,-0.4482422,0.0234375,-87.53125,19.15625,-172.4375
1537900424558,1292,-0.8623047,-0.359375,-0.001953125,-90.15625,18.34375,-153.03125
1537900424559,1293,-0.7421875,-0.30859375,-0.009765625,-65.625,17.9375,-125.9375
1537900424559,1294,-0.68847656,-0.34277344,-0.020507812,-41.75,10.65625,-93.9375
1537900424561,1295,-0.6738281,-0.3486328,-0.030273438,-35.90625,0.34375,-57.375
1537900424561,1296,-0.6503906,-0.37109375,-0.022460938,-27.34375,-9.65625,-24.6875
1537900424562,1297,-0.7324219,-0.4013672,-0.032226562,-23.4375,-23.5,1.3125
1537900424755,1298,-0.9160156,-0.4453125,-0.052734375,-18.5,-41.875,30.6875
1537900424756,1299,-1.09375,-0.43066406,0.1015625,-0.0625,-46.03125,61.375
1537900424756,1300,-1.5136719,-0.22851562,0.23242188,71.46875,-57.21875,111.125
1537900424757,1301,-1.2705078,-0.5498047,-0.13574219,133.40625,-13.03125,168.6875
1537900424758,1302,-0.84765625,-0.22460938,0.043945312,108.4375,-23.21875,199.25
1537900424957,1303,-1.3154297,-0.5410156,-0.265625,67.0625,-51.28125,236.4375
1537900424957,1304,-1.1337891,-0.6845703,-0.14453125,-53.53125,-39.03125,229.53125
1537900425154,1305,-1.0712891,-0.28027344,-0.29296875,-48.53125,-35.71875,144.28125
1537900425154,1306,-1.1591797,-0.10449219,-0.1640625,92.75,-8.25,54.375
1537900425155,1307,-0.9921875,-0.33789062,-0.048828125,188.09375,33.8125,26.46875
1537900425156,1308,-0.859375,-0.3828125,0.021484375,135.71875,29.59375,37.15625
1537900425157,1309,-0.8232422,-0.32617188,-0.017578125,70.34375,19.09375,54.125
1537900425157,1310,-0.9296875,-0.2626953,-0.04296875,61.5,6.28125,56.125
1537900425157,1311,-0.8261719,-0.31347656,-0.10546875,61.6875,17.1875,49.46875
1537900425158,1312,-0.8339844,-0.28125,-0.14453125,26.78125,0.46875,43.375
1537900425353,1313,-0.8847656,-0.25878906,-0.13378906,10.96875,-3.3125,34.28125
1537900425353,1314,-0.9941406,-0.24804688,-0.12402344,15.84375,2.375,18.28125
1537900425354,1315,-1.0595703,-0.33203125,-0.12207031,13.71875,3.78125,2.84375
1537900425354,1316,-0.9980469,-0.3251953,-0.099609375,-5.9375,-5.8125,-10.6875
1537900425355,1317,-1.3457031,-0.49609375,0.020507812,-18.8125,-38.53125,-25.21875
1537900425552,1318,-1.4599609,-0.5126953,-0.001953125,-71.78125,-16.0625,-46.78125
1537900425552,1319,-0.7763672,-0.23632812,-0.13183594,-78.4375,1.8125,-83.03125
1537900425552,1320,-0.86816406,-0.46191406,-0.044921875,-89.75,-37.5,-101.875
1537900425553,1321,-1.1328125,-0.3984375,0.115234375,-139.90625,-18.6875,-118.90625
1537900425554,1322,-1.3496094,-0.234375,0.12402344,-110.0625,6.875,-138.25
1537900425749,1323,-1.2578125,-0.3642578,0.10644531,-53.90625,34.59375,-149.6875
1537900425751,1324,-1.0742188,-0.25683594,0.11425781,-48.78125,35.03125,-156.625
1537900425751,1325,-0.9501953,-0.36523438,0.026367188,-52.1875,20.5625,-146.0625
1537900425751,1326,-0.9189453,-0.34179688,0.06347656,-82.28125,13.78125,-133
1537900425752,1327,-0.88671875,-0.3125,0.009765625,-70.75,13.65625,-127.21875
1537900425950,1328,-0.82421875,-0.3310547,-0.03515625,-48.1875,15.90625,-109.5625
1537900426147,1329,-0.68066406,-0.3330078,-0.041015625,-45.125,14.4375,-80.71875
1537900426148,1330,-0.6503906,-0.34570312,-0.08300781,-38.96875,6.625,-53.40625
1537900426149,1331,-0.6308594,-0.3623047,-0.07519531,-30.78125,-1.84375,-30.59375
1537900426149,1332,-0.68652344,-0.40625,-0.043945312,-24,-13.9375,-7.15625
1537900426149,1333,-0.8496094,-0.5078125,-0.072265625,-29.1875,-37.0625,24.46875
1537900426150,1334,-1.1337891,-0.5136719,-0.068359375,-39.03125,-56.96875,57.25
1537900426151,1335,-1.3818359,-0.51660156,0.08886719,1.8125,-61.21875,79.625
1537900426151,1336,-1.4726562,-0.53808594,-0.083984375,44.78125,-55.0625,114.1875
1537900426152,1337,-0.87402344,-0.37695312,-0.0625,78.40625,-22.53125,125.59375
1537900426544,1338,-0.80566406,-0.48828125,-0.072265625,103.75,-34.4375,129.375
1537900426545,1339,-0.90722656,-0.42871094,-0.1171875,51.1875,-31.15625,131.5625
1537900426547,1340,-1.0703125,-0.38378906,-0.036132812,55.90625,-24.5625,125.28125
1537900426547,1341,-1.0996094,-0.37304688,-0.051757812,97.875,-4.46875,109.53125
1537900426547,1342,-1.0078125,-0.3544922,-0.13183594,109.53125,6.46875,103.9375
1537900426548,1343,-0.9638672,-0.33984375,-0.095703125,112.03125,9.25,101.78125
1537900426548,1344,-0.8251953,-0.3671875,-0.09863281,93.75,18.1875,97.46875
1537900426549,1345,-0.8701172,-0.30273438,-0.15039062,71.40625,14.875,87.9375
1537900426550,1346,-0.9482422,-0.26171875,-0.13183594,98.25,30.1875,65.46875
1537900426743,1347,-1.1259766,-0.3017578,-0.1875,82.75,28.5625,22.875
1537900426744,1348,-0.99902344,-0.3408203,-0.16210938,37.28125,27.21875,24.65625
1537900426745,1349,-0.9658203,-0.359375,-0.17578125,5.34375,-0.4375,22.09375
1537900426745,1350,-1.0722656,-0.39746094,-0.038085938,-17.03125,-19.59375,9.5
1537900426944,1351,-1.1181641,-0.47460938,-0.07128906,-34.0625,-10.28125,-8.875
1537900426945,1352,-0.62402344,-0.3779297,-0.08496094,-67.03125,-5.6875,-40.3125
1537900426945,1353,-0.83496094,-0.5175781,0.0234375,-103.53125,-41.03125,-64.59375
1537900426945,1354,-1.0429688,-0.49609375,0.09765625,-127.09375,-19.3125,-99.4375
1537900426945,1355,-1.1953125,-0.48632812,0.12597656,-121.65625,-16.0625,-141
1537900426946,1356,-1.3486328,-0.4765625,0.1171875,-95.28125,9.875,-172.375
1537900427141,1357,-1.2480469,-0.47070312,0.107421875,-66.25,20.75,-191.125
1537900427142,1358,-1.1220703,-0.4453125,0.0703125,-56.40625,23.25,-197.15625
1537900427142,1359,-1.0283203,-0.40820312,0.055664062,-59.46875,20.375,-187.8125
1537900427142,1360,-0.91015625,-0.35546875,0.009765625,-70.8125,15.25,-168.03125
1537900427143,1361,-0.82128906,-0.31640625,0.025390625,-68.0625,9.3125,-140.53125
1537900427340,1362,-0.765625,-0.30566406,0.022460938,-61.96875,-2.8125,-105.3125
1537900427340,1363,-0.8300781,-0.32910156,0.01953125,-56.71875,-21.3125,-63.6875
1537900427341,1364,-0.9736328,-0.36914062,0.013671875,-57.375,-38.03125,-19.84375
1537900427342,1365,-1.0263672,-0.37109375,0.043945312,-47.5625,-49.46875,22.375
1537900427342,1366,-1.2695312,-0.38867188,0.12890625,-20.875,-57.3125,60.21875
1537900427542,1367,-1.2832031,-0.41015625,0.041992188,23.90625,-53.0625,95.4375
1537900427542,1368,-0.92285156,-0.28808594,-0.11816406,46.25,-31.5625,114.4375
1537900427543,1369,-0.8847656,-0.32617188,-0.13476562,69.8125,-42.3125,127.0625
1537900427543,1370,-1.1386719,-0.40039062,-0.16796875,73.46875,-31.75,134.375
1537900427543,1371,-1.1074219,-0.3984375,-0.16210938,74.5,-3.90625,132.6875
1537900427739,1372,-1.0507812,-0.39941406,-0.14648438,96.0625,6.34375,122.90625
1537900427740,1373,-1.0380859,-0.47070312,-0.15625,96.59375,20.5625,116.875
1537900427740,1374,-0.90527344,-0.46191406,-0.08300781,94.96875,30.5,106.4375
1537900427740,1375,-0.8730469,-0.43945312,-0.061523438,84.6875,29.71875,90.875
1537900427740,1376,-0.8378906,-0.359375,-0.025390625,85.4375,36.46875,78.46875
1537900427936,1377,-0.81152344,-0.40429688,-0.053710938,82.5625,37.59375,63.15625
1537900427937,1378,-0.7578125,-0.37304688,-0.08300781,73.03125,37.15625,40.34375
1537900427937,1379,-0.8408203,-0.30078125,-0.076171875,90.5625,35.875,17.0625
1537900427938,1380,-0.9794922,-0.35351562,-0.08886719,116.9375,43.3125,5.46875
1537900427939,1381,-1.0224609,-0.3154297,-0.16894531,87.75,34.59375,6.03125
1537900428135,1382,-0.9941406,-0.26757812,-0.28125,44.96875,12.75,20.375
1537900428136,1383,-1.0537109,-0.2783203,-0.25097656,2.125,-8.8125,39.0625
1537900428136,1384,-1.3203125,-0.28222656,-0.091796875,-8.1875,-22.21875,47.09375
1537900428137,1385,-1.4375,-0.4423828,-0.1171875,-7.09375,-21.5,41.25
1537900428137,1386,-0.7753906,-0.2763672,-0.27148438,-49.15625,1.75,20.96875
1537900428336,1387,-0.65722656,-0.26171875,-0.13378906,-62.6875,-55.8125,0.65625
1537900428336,1388,-0.98339844,-0.2705078,-0.06640625,-79.53125,-27.25,-28.65625
1537900428336,1389,-0.87890625,-0.19726562,-0.0234375,-92.71875,-18.625,-65.9375
1537900428336,1390,-0.84765625,-0.25976562,-0.013671875,-100.34375,-16,-79.46875
1537900428337,1391,-0.8984375,-0.43652344,0.06347656,-119.53125,-29.1875,-78.625
1537900428533,1392,-1.0039062,-0.46875,0.16015625,-127.75,-20.53125,-91.375
1537900428534,1393,-0.9267578,-0.45996094,0.10253906,-95.65625,-1.46875,-115.1875
1537900428534,1394,-0.92285156,-0.60253906,0.11621094,-75.21875,-5.15625,-134.84375
1537900428534,1395,-0.9238281,-0.6582031,0.12011719,-83.375,-12.90625,-152.40625
1537900428535,1396,-1.0263672,-0.75,0.16992188,-70.4375,-21.625,-167.875
1537900428732,1397,-1.0039062,-0.7529297,0.16601562,-102,-26.375,-175
1537900428732,1398,-0.94433594,-0.7714844,0.12011719,-100.1875,-31.25,-176.09375
1537900428734,1399,-0.88671875,-0.7421875,0.04296875,-100.96875,-27.90625,-177.875
1537900428734,1400,-0.78222656,-0.7763672,0.046875,-72.71875,-23.15625,-180.125
1537900428735,1401,-0.75097656,-0.86035156,0.034179688,-110.71875,-33.40625,-154.875
1537900428932,1402,-0.7128906,-0.60546875,-0.0087890625,-115.625,-40.25,-119.40625
1537900428932,1403,-0.78027344,-0.578125,-0.041992188,-52.9375,-53.46875,-75.15625
1537900428932,1404,-0.7080078,-0.5419922,0.00390625,-20.875,-78.5625,-27
1537900428932,1405,-0.89941406,-0.42285156,0.034179688,-27.46875,-105.59375,29.65625
1537900428934,1406,-0.88378906,-0.26953125,-0.076171875,-22.53125,-112.0625,70.34375
1537900429129,1407,-1.0341797,-0.30078125,-0.18652344,13.59375,-82,96.3125
1537900429130,1408,-0.8964844,-0.29296875,-0.08203125,41.65625,-43.59375,107.65625
1537900429130,1409,-0.81640625,-0.42089844,-0.24707031,79.75,-23.21875,119.3125
1537900429131,1410,-0.9355469,-0.5205078,-0.24511719,48.75,-39.5625,153.4375
1537900429131,1411,-1.0947266,-0.56152344,-0.16601562,45.875,-32.84375,185.34375
1537900429330,1412,-1.0205078,-0.59765625,-0.15234375,46.5625,-16.75,195.71875
1537900429330,1413,-1.0683594,-0.57714844,-0.10546875,43.4375,-13.75,188.53125
1537900429330,1414,-1.0205078,-0.66796875,-0.12011719,41.5625,-8.25,165.375
1537900429330,1415,-0.9423828,-0.61328125,-0.07714844,20.3125,-9.125,123.6875
1537900429527,1416,-0.7919922,-0.55859375,-0.125,-5.4375,-9,77.5625
1537900429528,1417,-0.7548828,-0.3408203,-0.10644531,-11.5,-8.125,38.125
1537900429528,1418,-0.8310547,-0.2705078,-0.111328125,25.8125,0.40625,15.84375
1537900429529,1419,-0.79785156,-0.2705078,-0.080078125,65.46875,26.90625,0.96875
1537900429529,1420,-0.796875,-0.34375,-0.13867188,36.46875,7,-1.71875
1537900429726,1421,-1.0126953,-0.328125,-0.103515625,3.15625,-5.3125,3.90625
1537900429727,1422,-1.1689453,-0.31640625,-0.048828125,-18.03125,-3.90625,3.34375
1537900429727,1423,-1.2988281,-0.2529297,-0.045898438,-4.21875,-0.9375,-5.375
1537900429728,1424,-1.3291016,-0.3203125,0.048828125,14.15625,6.5625,-14.40625
1537900429728,1425,-1.3964844,-0.40722656,0.12402344,23,-1.53125,-23.875
1537900429925,1426,-1.1455078,-0.4189453,-0.026367188,-17.84375,8.09375,-31.625
1537900429926,1427,-0.69628906,-0.3671875,-0.020507812,-87.59375,-22.28125,-31.21875
1537900429926,1428,-1.0224609,-0.51171875,0.07128906,-132.9375,-54.34375,-30.28125
1537900429927,1429,-1.0205078,-0.5566406,0.10546875,-188.0625,-34.5625,-51.96875
1537900429927,1430,-1.0332031,-0.46875,0.12597656,-201.84375,-27,-91.03125
1537900430122,1431,-1.0742188,-0.41210938,0.12207031,-165.96875,-2.21875,-124.84375
1537900430123,1432,-1.0449219,-0.43554688,0.16210938,-129.96875,16.78125,-143.09375
1537900430123,1433,-0.9970703,-0.4033203,0.123046875,-112.125,26.53125,-145.59375
1537900430123,1434,-0.88964844,-0.3876953,0.15722656,-90.46875,26.71875,-136.3125
1537900430124,1435,-0.8730469,-0.40722656,0.14648438,-80.9375,19.40625,-118.125
1537900430323,1436,-0.86328125,-0.4189453,0.13769531,-86.8125,2.90625,-95.71875
1537900430323,1437,-0.9404297,-0.3623047,0.12011719,-79.84375,-10.03125,-74.40625
1537900430323,1438,-1.0712891,-0.34472656,0.11621094,-59.65625,-9.15625,-61.125
1537900430324,1439,-1.015625,-0.3544922,0.053710938,-39.3125,-17.40625,-52.6875
1537900430324,1440,-1.1279297,-0.30371094,0.02734375,-40.90625,-20.34375,-37.78125
1537900430520,1441,-1.2695312,-0.1640625,0.11425781,0.40625,-22.78125,-13.03125
1537900430522,1442,-1.2021484,-0.27734375,-0.016601562,62,-4.15625,33.90625
1537900430522,1443,-0.80859375,-0.23828125,-0.171875,67.1875,-10.5625,75.65625
1537900430522,1444,-0.79003906,-0.30273438,-0.20898438,56.3125,-40.375,101.5625
1537900430522,1445,-1.0029297,-0.32617188,-0.3173828,20.0625,-53.46875,121.5625
1537900430720,1446,-0.98339844,-0.27441406,-0.24316406,27.15625,-30.40625,132.625
1537900430920,1447,-0.984375,-0.31152344,-0.2265625,63.78125,-21.375,140.96875
1537900430920,1448,-1.0302734,-0.41503906,-0.18554688,78.59375,-5.5,146.09375
1537900430921,1449,-1.0664062,-0.46777344,-0.171875,85.625,2.90625,145.375
1537900430921,1450,-0.9550781,-0.48828125,-0.14453125,81.65625,15.5625,128.59375
1537900430921,1451,-0.8642578,-0.49121094,-0.14355469,61.75,13.28125,103.3125
1537900430921,1452,-0.7841797,-0.45703125,-0.1640625,56.6875,20.5,71.75
1537900430922,1453,-0.7685547,-0.3623047,-0.13671875,60.46875,22.625,36.59375
1537900430922,1454,-0.9316406,-0.3701172,-0.14648438,78.46875,20,16.40625
1537900430922,1455,-1.0507812,-0.35839844,-0.19335938,71.03125,26.53125,5.40625
1537900431116,1456,-0.9189453,-0.33984375,-0.24121094,45.625,16.09375,9.03125
1537900431117,1457,-1.0048828,-0.38867188,-0.17285156,0.09375,-10.40625,19.15625
1537900431117,1458,-1.2705078,-0.40039062,-0.04296875,-31.375,-37.125,16.84375
1537900431117,1459,-1.4941406,-0.39453125,-0.12207031,-27.53125,-24.5625,-7.28125
1537900431118,1460,-0.7548828,-0.3173828,-0.22558594,-57.21875,-3.875,-34.5625
1537900431317,1461,-0.61816406,-0.33691406,-0.05859375,-112.375,-60.25,-41.9375
1537900431317,1462,-1.2041016,-0.31835938,0.064453125,-139.40625,-55.0625,-51.53125
1537900431317,1463,-1.0068359,-0.24804688,0.119140625,-108.65625,5.40625,-82.59375
1537900431317,1464,-1.0488281,-0.34179688,0.049804688,-83.15625,-5.03125,-110.375
1537900431318,1465,-0.97265625,-0.46289062,0.0859375,-80.9375,1.3125,-129.09375
1537900431513,1466,-0.9472656,-0.42578125,0.08203125,-103.40625,-7.09375,-146.5
1537900431515,1467,-0.94140625,-0.41796875,0.1171875,-93.71875,-7.40625,-154.375
1537900431515,1468,-0.9345703,-0.4765625,0.08886719,-73.0625,-2.75,-151.6875
1537900431516,1469,-0.8515625,-0.58984375,0.07519531,-67.9375,-8.25,-141.1875
1537900431516,1470,-0.8066406,-0.61035156,0.043945312,-84.5625,-19.125,-128.1875
1537900431712,1471,-0.74316406,-0.58691406,0.029296875,-74.78125,-21.75,-118.59375
1537900431713,1472,-0.6376953,-0.6074219,-0.018554688,-69.78125,-24.4375,-105.96875
1537900431713,1473,-0.5625,-0.5888672,-0.095703125,-70.3125,-27.90625,-93.15625
1537900431714,1474,-0.53222656,-0.6152344,-0.123046875,-53.90625,-29.5,-81.375
1537900431715,1475,-0.47851562,-0.68847656,-0.20605469,-43.90625,-24.1875,-68.6875
1537900431912,1476,-0.4375,-0.7470703,-0.21386719,-35.15625,-24.96875,-56.90625
1537900431913,1477,-0.4345703,-0.84277344,-0.27246094,-35.84375,-42.5,-43.28125
1537900432110,1478,-0.5107422,-0.84472656,-0.28125,-39.375,-59.46875,-19
1537900432110,1479,-0.7441406,-0.87890625,-0.14355469,-28.875,-84.3125,21.34375
1537900432110,1480,-0.98535156,-0.7949219,-0.10253906,-20.40625,-100.59375,59.0625
1537900432111,1481,-0.9658203,-0.52441406,-0.09277344,9.3125,-86.25,82.9375
1537900432111,1482,-0.70214844,-0.57714844,-0.17871094,-12.46875,-98.78125,100.375
1537900432113,1483,-1.0107422,-0.3623047,-0.12890625,-63.25,-96.6875,102.03125
1537900432113,1484,-0.9404297,-0.25976562,-0.09863281,-12.15625,-52.5,100.875
1537900432114,1485,-0.9160156,-0.23046875,-0.13085938,40.4375,-14.1875,110.53125
1537900432311,1486,-1.0292969,-0.35839844,-0.09667969,72.4375,-9.53125,124.75
1537900432312,1487,-1.0527344,-0.47460938,-0.10839844,71.46875,3.65625,132.75
1537900432312,1488,-0.9824219,-0.3857422,-0.07910156,48.8125,-10.09375,133.84375
1537900432312,1489,-1.0751953,-0.4453125,0.001953125,45.46875,-5.25,128.46875
1537900432312,1490,-0.890625,-0.48828125,-0.013671875,8.40625,-9.46875,112.90625
1537900432508,1491,-0.95410156,-0.3876953,-0.08984375,-39.25,-26.25,92.625
1537900432508,1492,-0.9003906,-0.30371094,-0.07519531,-27.53125,-22.78125,72.5625
1537900432509,1493,-0.9189453,-0.36328125,-0.08691406,-16.96875,-15.28125,54.25
1537900432509,1494,-0.8388672,-0.26367188,-0.12695312,-18.03125,-3.4375,36.125
1537900432510,1495,-0.80078125,-0.23632812,-0.16699219,-6.90625,0.65625,21.65625
1537900432706,1496,-0.8652344,-0.27148438,-0.15332031,-21.0625,-1,16.34375
1537900432706,1497,-0.9189453,-0.2705078,-0.11328125,-45.125,0.59375,16.34375
1537900432707,1498,-1.09375,-0.16699219,-0.048828125,-38.09375,7.1875,7.6875
1537900432707,1499,-1.1445312,-0.16210938,0.00390625,-0.75,22.3125,-7.28125
1537900432708,1500,-1.2402344,-0.14648438,0.06347656,29.28125,30.5625,-20.40625
1537900432904,1501,-1.2314453,-0.30566406,0.09667969,45.34375,17.625,-22.65625
1537900432904,1502,-1.3291016,-0.5126953,0.0859375,-12.09375,-2.75,-20.15625
1537900432906,1503,-0.7783203,-0.31152344,-0.02734375,-105,-8.875,-31.8125
1537900432907,1504,-0.8613281,-0.49902344,0.029296875,-142.71875,-55.1875,-43.09375
1537900432907,1505,-1.0732422,-0.56933594,0.18261719,-190.1875,-33.03125,-66.96875
1537900433103,1506,-1.2011719,-0.54003906,0.32226562,-214.75,-11.71875,-112.5625
1537900433103,1507,-1.3720703,-0.34277344,0.19726562,-167.1875,23.78125,-159.75
1537900433105,1508,-1.2607422,-0.41992188,0.16308594,-67.15625,59.5,-195.625
1537900433105,1509,-1.1054688,-0.4736328,0.087890625,-40.1875,48.09375,-209.625
1537900433106,1510,-1.0009766,-0.484375,0.11425781,-61.46875,28.90625,-199.53125
1537900433302,1511,-0.9941406,-0.47070312,0.13085938,-82.03125,17.6875,-179.09375
1537900433302,1512,-0.9277344,-0.3857422,0.07128906,-89.4375,13.21875,-154.6875
1537900433303,1513,-0.8378906,-0.3623047,0.078125,-85.03125,-1.125,-122.09375
1537900433304,1514,-0.8251953,-0.34375,0.0234375,-75.75,-13.03125,-84.90625
1537900433304,1515,-0.94433594,-0.38476562,0.018554688,-62.28125,-30.90625,-51.28125
1537900433500,1516,-0.88378906,-0.3408203,-0.024414062,-53.90625,-40.25,-20.21875
1537900433502,1517,-1.0332031,-0.32910156,0.046875,-36.28125,-57.75,15.96875
1537900433502,1518,-1.1259766,-0.328125,0.0546875,13,-57.3125,55.84375
1537900433503,1519,-0.9277344,-0.33007812,-0.14257812,46.375,-54.03125,96
1537900433503,1520,-0.86328125,-0.3154297,-0.13085938,55.78125,-65.75,126.15625
1537900433699,1521,-1.0009766,-0.34570312,-0.21289062,52.65625,-61.46875,149.65625
1537900433699,1522,-1.1191406,-0.32617188,-0.18261719,60.09375,-59.40625,164.0625
1537900433701,1523,-1.1259766,-0.37109375,-0.18359375,86.09375,-45.4375,171.0625
1537900433702,1524,-1.1679688,-0.4658203,-0.234375,79.6875,-52.6875,182.125
1537900433702,1525,-1.1298828,-0.4326172,-0.19433594,74.3125,-36.28125,181.9375
1537900433898,1526,-1.0869141,-0.4501953,-0.09472656,99.96875,-16.625,162.03125
1537900433898,1527,-0.98339844,-0.5498047,-0.13085938,111.125,10.84375,125.09375
1537900433899,1528,-0.89746094,-0.5341797,-0.125,105.5,22.8125,77.4375
1537900434097,1529,-0.9716797,-0.5078125,-0.12597656,108.0625,27.03125,25.625
