"# PDIoT walking data"
"# Start time: 20180925T190841"
"# Group: D"
"# Subject: Alex Walking 100"
"# Activity type: Walking (level ground)"
"# Sensor position: Upper arm"
"# Side of body: Left"
"# Sensor mounting: Pocket"
"# Number of steps: 100"
"# Notes: Along Nicholson Street"
""
"timestamp","seq","accel_x","accel_y","accel_z","gyro_x","gyro_y","gyro_z"
"1537898921110","0","0.087890625","-1.0107422","0.16601562","-3.5625","-0.84375","2.125"
"1537898921111","1","0.10253906","-0.9824219","0.1484375","-2.15625","-2.4375","1.4375"
"1537898921111","2","0.10058594","-0.98828125","0.171875","-1.625","1.90625","0.71875"
"1537898921111","3","0.091796875","-0.9873047","0.15527344","-0.625","-0.90625","0.90625"
"1537898921113","4","0.09472656","-0.98535156","0.16699219","-0.46875","0.125","1.8125"
"1537898921309","5","0.09472656","-1.0019531","0.15429688","-0.875","-0.84375","0.90625"
"1537898921309","6","0.08984375","-0.9794922","0.1484375","1.1875","0.375","0.09375"
"1537898921309","7","0.10058594","-0.9921875","0.15722656","0.8125","0.5625","1.15625"
"1537898921309","8","0.09765625","-0.984375","0.16113281","3.4375","0.5625","-0.25"
"1537898921310","9","0.07910156","-0.99316406","0.15820312","2.59375","3.5625","0.28125"
"1537898921508","10","0.091796875","-1.0039062","0.14453125","1.625","1.28125","0.28125"
"1537898921509","11","0.09472656","-0.99121094","0.14746094","2.0625","1.34375","-0.125"
"1537898921510","12","0.08203125","-0.99609375","0.15039062","-0.21875","-0.59375","1.09375"
"1537898921510","13","0.08886719","-0.9902344","0.14746094","1.0625","-1.875","0.78125"
"1537898921511","14","0.09082031","-0.98046875","0.18164062","2.40625","4.09375","1.03125"
"1537898921706","15","0.07714844","-0.9951172","0.17089844","3.15625","2.03125","0.21875"
"1537898921707","16","0.07324219","-0.9794922","0.16015625","4.1875","0.375","-1.0625"
"1537898921708","17","0.08984375","-1.0048828","0.15820312","3.03125","-1.03125","-1.0625"
"1537898921708","18","0.07714844","-0.9921875","0.15722656","1.25","-3.59375","0.71875"
"1537898921708","19","0.08886719","-0.98828125","0.17285156","0.78125","0.3125","1.75"
"1537898921906","20","0.08105469","-1.0029297","0.16503906","-2.09375","-1.8125","2.25"
"1537898921906","21","0.0859375","-0.9746094","0.17871094","-0.625","-1.46875","2.0"
"1537898922104","22","0.08496094","-0.9941406","0.17871094","-1.5","1.59375","2.0625"
"1537898922104","23","0.080078125","-0.9863281","0.14746094","-1.75","-1.09375","2.59375"
"1537898922104","24","0.095703125","-0.99121094","0.171875","0.65625","0.75","2.125"
"1537898922105","25","0.10058594","-1.0039062","0.14550781","-1.84375","-9.40625","4.25"
"1537898922105","26","0.1015625","-1.0371094","0.08691406","-5.875","-21.78125","7.0"
"1537898922106","27","0.07519531","-1.0771484","0.052734375","-12.21875","-18.90625","7.5"
"1537898922106","28","0.02734375","-1.0742188","0.048828125","-29.5","-41.625","9.03125"
"1537898922107","29","0.025390625","-1.1298828","-0.0546875","-62.53125","-65.96875","0.34375"
"1537898922304","30","0.14453125","-0.99609375","0.07519531","-114.65625","-35.9375","1.9375"
"1537898922304","31","0.046875","-1.0273438","-0.06542969","-88.34375","-89.34375","14.9375"
"1537898922304","32","0.03125","-1.1074219","-0.060546875","-71.6875","-55.96875","18.90625"
"1537898922304","33","-0.14746094","-0.9511719","-0.1796875","-52.21875","-93.8125","28.1875"
"1537898922305","34","-0.17773438","-0.9511719","-0.20117188","-59.0625","-88.5","42.03125"
"1537898922501","35","-0.09277344","-0.9121094","-0.2529297","-48.84375","-79.8125","39.65625"
"1537898922501","36","-0.11816406","-0.8066406","-0.3310547","-44.15625","-55.96875","42.09375"
"1537898922502","37","-0.17382812","-0.7763672","-0.3671875","-28.28125","-59.625","29.46875"
"1537898922502","38","-0.18847656","-0.81640625","-0.4091797","-16.375","-31.65625","19.8125"
"1537898922503","39","-0.34570312","-0.7597656","-0.3857422","-3.5","-27.59375","11.28125"
"1537898922702","40","-0.2685547","-0.71972656","-0.40722656","3.9375","-16.96875","5.1875"
"1537898922702","41","-0.22851562","-0.8408203","-0.32128906","18.15625","-32.90625","-2.46875"
"1537898922702","42","-0.3310547","-0.8359375","-0.37597656","20.59375","-24.15625","-13.375"
"1537898922702","43","-0.22949219","-0.93066406","-0.23730469","11.875","-35.8125","-22.71875"
"1537898922702","44","-0.54003906","-1.2958984","-0.35839844","4.4375","-60.25","-32.5625"
"1537898922899","45","-0.46289062","-1.5078125","-0.35351562","-20.28125","35.53125","-37.375"
"1537898922899","46","-0.296875","-0.4482422","0.01953125","25.65625","29.25","-32.0"
"1537898923097","47","0.4033203","-1.2480469","0.1015625","63.6875","185.125","-51.90625"
"1537898923098","48","0.71875","-0.92089844","0.06542969","73.8125","116.28125","-82.96875"
"1537898923098","49","-0.5810547","-0.62402344","-0.115234375","98.46875","169.125","-33.15625"
"1537898923101","50","0.20019531","-1.0039062","0.25390625","119.0","97.25","-23.34375"
"1537898923101","51","0.5283203","-0.8964844","-0.14746094","90.0625","50.46875","-56.84375"
"1537898923101","52","0.14648438","-0.9355469","-0.103515625","43.375","57.625","-25.15625"
"1537898923101","53","0.03125","-0.90527344","0.04296875","44.71875","81.625","-48.59375"
"1537898923102","54","0.1328125","-0.8466797","0.15917969","29.03125","64.40625","-33.78125"
"1537898923296","55","0.01953125","-1.0400391","-0.06640625","70.28125","73.6875","-34.0"
"1537898923297","56","0.0390625","-0.9033203","0.08203125","44.96875","34.625","-19.25"
"1537898923298","57","0.4140625","-1.2763672","0.26953125","14.8125","66.71875","-9.84375"
"1537898923299","58","0.2421875","-1.2519531","-0.3671875","-2.53125","-2.3125","-13.03125"
"1537898923299","59","0.5800781","-1.7695312","0.30371094","-55.6875","22.46875","2.84375"
"1537898923494","60","-0.16894531","-1.0615234","-0.06738281","-134.375","-11.96875","27.03125"
"1537898923495","61","-0.24121094","-0.96972656","0.25878906","-219.75","-23.375","120.96875"
"1537898923496","62","0.41601562","-1.7666016","0.390625","-137.96875","-91.96875","90.5625"
"1537898923496","63","0.16308594","-1.1347656","-0.0546875","-202.90625","-267.875","5.46875"
"1537898923497","64","-0.030273438","-1.0488281","-0.046875","-187.28125","-202.1875","107.34375"
"1537898923695","65","0.048828125","-0.6152344","0.02734375","-148.34375","-125.0625","79.5"
"1537898923696","66","0.044921875","-0.45898438","0.032226562","-96.28125","-95.9375","58.15625"
"1537898923696","67","-0.12207031","-0.46484375","-0.31054688","-69.78125","-32.46875","38.875"
"1537898923696","68","-0.16308594","-0.28320312","-0.17871094","-16.8125","-17.8125","-7.21875"
"1537898923696","69","-0.15917969","-0.42773438","-0.3564453","57.40625","1.34375","-60.1875"
"1537898923894","70","-0.5654297","-0.84375","-0.5283203","67.71875","11.25","-63.125"
"1537898923894","71","-0.44433594","-1.4160156","-1.1816406","27.625","-42.53125","17.625"
"1537898923895","72","-0.8486328","-1.0722656","-0.7236328","-8.15625","-32.90625","10.46875"
"1537898923896","73","-0.54296875","-0.69921875","0.06347656","-2.84375","-30.625","-9.53125"
"1537898924094","74","-0.21875","-1.9960938","-0.34960938","19.1875","65.9375","28.71875"
"1537898924094","75","-0.033203125","0.08886719","0.15722656","-33.15625","27.0","-59.53125"
"1537898924094","76","0.46972656","-0.8310547","-0.018554688","162.875","224.96875","-59.46875"
"1537898924094","77","0.9667969","-1.2451172","0.3544922","205.1875","144.59375","-91.03125"
"1537898924094","78","-0.59765625","-0.4609375","-0.10644531","216.90625","64.59375","-52.8125"
"1537898924293","79","-0.12011719","-1.0214844","0.24023438","151.875","60.6875","-45.5"
"1537898924293","80","0.19335938","-1.1416016","-0.19433594","133.9375","98.21875","-59.34375"
"1537898924293","81","-0.0068359375","-0.73828125","-0.07714844","36.15625","97.53125","-53.1875"
"1537898924293","82","0.265625","-0.7890625","0.45117188","87.4375","112.25","-50.75"
"1537898924293","83","0.24316406","-1.0224609","-0.15332031","70.40625","21.5","-43.53125"
"1537898924490","84","-0.33398438","-0.86035156","0.10253906","70.09375","63.46875","-44.28125"
"1537898924490","85","0.34277344","-1.2958984","0.2548828","19.625","96.375","-7.28125"
"1537898924490","86","0.45898438","-1.4199219","-0.19824219","-4.53125","5.8125","-18.15625"
"1537898924491","87","0.24316406","-1.6972656","-0.18554688","-27.0","12.21875","17.125"
"1537898924491","88","0.2626953","-1.6455078","0.0078125","-176.65625","-33.3125","57.0"
"1537898924687","89","-0.04296875","-0.921875","0.5332031","-217.8125","-61.8125","84.28125"
"1537898924689","90","-0.068359375","-1.7275391","0.4970703","-109.65625","-69.5625","97.15625"
"1537898924689","91","0.23242188","-1.4990234","-0.022460938","-247.59375","-227.90625","39.71875"
"1537898924689","92","0.18261719","-0.74121094","-0.018554688","-210.15625","-189.09375","81.40625"
"1537898924691","93","0.028320312","-0.3720703","0.09277344","-141.4375","-149.21875","53.28125"
"1537898924888","94","0.12792969","-0.20605469","0.19824219","-136.125","-93.5625","53.9375"
"1537898924889","95","0.107421875","-0.3720703","0.16601562","-46.78125","-153.75","5.40625"
"1537898924889","96","-0.24316406","-0.20410156","-0.40429688","44.28125","-8.15625","-49.6875"
"1537898924890","97","-0.4609375","-0.7363281","-0.6904297","116.4375","129.84375","-108.28125"
"1537898924890","98","-0.46972656","-1.9960938","-0.5527344","70.09375","-25.4375","-42.5"
"1537898925085","99","-0.2705078","-0.94140625","-1.1064453","-62.84375","-128.03125","39.34375"
"1537898925085","100","-0.6484375","-1.1914062","-0.22167969","4.90625","9.34375","-21.0"
"1537898925085","101","0.2685547","-1.9960938","-0.34570312","-21.4375","-7.6875","45.03125"
"1537898925086","102","-0.22167969","0.625","0.75","112.09375","131.46875","-59.9375"
"1537898925086","103","0.6513672","-1.3056641","-0.5371094","84.9375","192.9375","-67.59375"
"1537898925285","104","0.5517578","-0.9707031","0.6669922","250.21875","197.21875","-71.125"
"1537898925286","105","-0.3310547","-0.5673828","-0.016601562","136.8125","-12.9375","-56.71875"
"1537898925286","106","0.17578125","-1.0566406","-0.15722656","131.625","74.03125","-62.6875"
"1537898925286","107","-0.001953125","-1.0732422","-0.09277344","46.53125","174.6875","-57.21875"
"1537898925286","108","0.17773438","-0.7451172","0.4453125","55.09375","137.46875","-50.125"
"1537898925483","109","0.21484375","-0.88964844","0.059570312","74.875","20.875","-25.96875"
"1537898925483","110","0.0390625","-0.78222656","-0.3203125","67.40625","72.875","-51.28125"
"1537898925483","111","-0.0146484375","-1.2744141","-0.103515625","41.125","74.15625","-13.75"
"1537898925484","112","0.63378906","-1.2685547","0.15332031","5.28125","30.59375","-8.125"
"1537898925484","113","-0.1015625","-1.2333984","-0.29785156","-12.0","21.1875","-4.03125"
"1537898925684","114","0.26171875","-1.7060547","-0.005859375","-74.78125","19.96875","58.8125"
"1537898925684","115","-0.18066406","-1.0458984","0.33496094","-248.1875","6.21875","92.9375"
"1537898925684","116","-0.18261719","-1.4990234","-0.15234375","-201.75","-159.0625","103.5"
"1537898925684","117","0.09765625","-1.9960938","1.4785156","-55.375","-116.15625","47.28125"
"1537898925684","118","0.18457031","-0.9873047","0.024414062","-229.9375","-213.0625","55.21875"
"1537898925882","119","0.19335938","-0.6308594","0.1484375","-151.625","-163.625","30.625"
"1537898925883","120","0.15527344","-0.16992188","0.13671875","-124.90625","-109.3125","35.25"
"1537898925884","121","0.1328125","-0.16210938","0.1953125","-87.84375","-125.65625","11.75"
"1537898925884","122","-0.2919922","-0.2705078","-0.12402344","7.3125","-67.1875","-47.9375"
"1537898925884","123","-0.34179688","-0.45507812","-0.7128906","64.84375","121.40625","-88.9375"
"1537898926079","124","-0.5263672","-1.3828125","-0.5390625","78.34375","60.84375","-43.28125"
"1537898926080","125","-0.5957031","-1.3994141","-1.0087891","-43.78125","-115.46875","34.53125"
"1537898926080","126","-0.24511719","-0.30859375","-0.6425781","-30.90625","-62.0","-45.0625"
"1537898926081","127","-0.18945312","-1.9492188","-0.7685547","97.3125","-57.0","-24.375"
"1537898926081","128","-0.19824219","-1.4453125","0.6767578","-14.0","-30.875","-32.1875"
"1537898926278","129","-0.7861328","0.44335938","0.48339844","143.53125","278.21875","-23.9375"
"1537898926279","130","1.3300781","-1.9960938","-0.6044922","101.65625","-51.75","-53.71875"
"1537898926279","131","-0.13378906","-0.18652344","0.46777344","266.28125","190.8125","-60.125"
"1537898926279","132","-0.42382812","-0.4638672","-0.20019531","69.75","-52.4375","-79.53125"
"1537898926280","133","0.18261719","-1.1201172","-0.0234375","173.125","150.59375","-76.4375"
"1537898926476","134","-0.1875","-0.5800781","0.1171875","29.09375","217.53125","-52.1875"
"1537898926476","135","0.35058594","-0.9169922","0.23730469","38.4375","72.15625","-32.125"
"1537898926477","136","0.24707031","-1.0390625","-0.3564453","66.1875","75.8125","-53.40625"
"1537898926477","137","-0.018554688","-0.75683594","-0.1640625","40.25","48.84375","-37.3125"
"1537898926478","138","0.41503906","-1.2744141","0.22265625","2.59375","79.0625","-8.75"
"1537898926677","139","0.064453125","-1.4550781","-0.06640625","-6.1875","23.875","-15.21875"
"1537898926678","140","0.36816406","-1.8242188","-0.047851562","-46.34375","31.75","36.84375"
"1537898926678","141","0.21191406","-1.2519531","0.37695312","-204.625","-13.71875","50.21875"
"1537898926678","142","-0.18847656","-0.9472656","0.02734375","-245.75","-175.28125","100.15625"
"1537898926678","143","0.6015625","-1.9960938","0.115234375","-137.71875","-118.15625","-7.15625"
"1537898926875","144","0.21191406","-1.1230469","0.19335938","-202.3125","-245.53125","53.09375"
"1537898926876","145","0.20703125","-0.6953125","0.030273438","-167.875","-197.75","88.1875"
"1537898926877","146","0.072265625","-0.32714844","0.12695312","-121.125","-139.46875","60.53125"
"1537898926877","147","0.07128906","-0.16503906","0.0625","-116.90625","-72.1875","56.1875"
"1537898926877","148","0.15625","-0.27441406","0.08203125","-0.09375","-109.71875","0.71875"
"1537898927074","149","-0.3408203","-0.2529297","-0.5722656","111.84375","34.3125","-53.0625"
"1537898927074","150","-0.63183594","-1.015625","-0.5625","110.8125","84.125","-112.9375"
"1537898927075","151","-0.3388672","-1.9960938","-1.1240234","-31.15625","-82.15625","36.125"
"1537898927075","152","-0.60839844","-0.5957031","-0.69140625","-60.28125","-81.40625","-2.8125"
"1537898927075","153","-0.32714844","-1.6318359","-0.7080078","35.0625","27.40625","-6.125"
"1537898927274","154","0.83691406","-1.7832031","0.875","18.21875","-26.90625","-27.1875"
"1537898927274","155","-0.359375","0.23535156","0.6748047","115.625","252.375","-49.28125"
"1537898927274","156","1.3691406","-1.9960938","-0.4453125","205.34375","53.46875","-108.21875"
"1537898927275","157","-0.19140625","-0.5673828","0.4580078","210.71875","112.8125","-50.6875"
"1537898927275","158","-0.44921875","-0.68847656","0.30664062","111.65625","-41.5","-30.03125"
"1537898927470","159","0.07421875","-1.0224609","-0.20410156","170.1875","114.6875","-97.125"
"1537898927471","160","0.11816406","-0.78808594","0.17773438","16.03125","166.9375","-46.65625"
"1537898927471","161","0.37597656","-0.78808594","0.27246094","57.65625","42.90625","-42.6875"
"1537898927471","162","0.09082031","-0.93847656","-0.24414062","82.84375","63.125","-47.75"
"1537898927471","163","-0.22558594","-1.0917969","-0.265625","50.21875","27.28125","-23.625"
"1537898927670","164","0.71972656","-1.3408203","0.30566406","-0.40625","53.28125","-8.0"
"1537898927671","165","0.06933594","-1.2910156","-0.31054688","-26.09375","24.375","-14.3125"
"1537898927870","166","0.4296875","-1.6591797","-0.13769531","-114.21875","13.875","62.78125"
"1537898927870","167","-0.048828125","-1.3222656","0.51171875","-207.78125","-64.9375","71.59375"
"1537898927871","168","-0.18457031","-1.8388672","-0.0234375","-195.8125","54.4375","74.6875"
"1537898927872","169","0.28125","-1.9960938","2.2265625","-14.0625","-398.375","-22.65625"
"1537898927873","170","0.111328125","-1.1015625","0.5527344","-239.15625","-206.78125","49.65625"
"1537898927873","171","0.0390625","-0.5546875","0.18359375","-183.0","-198.0","48.03125"
"1537898927873","172","0.115234375","-0.09082031","0.07421875","-114.90625","-148.3125","60.15625"
"1537898927873","173","0.0146484375","-0.19238281","0.0625","-66.3125","-137.25","56.9375"
"1537898928067","174","-0.103515625","-0.18554688","-0.17285156","27.625","-19.28125","-20.84375"
"1537898928067","175","-0.29492188","-0.3828125","-0.36035156","119.25","87.71875","-94.9375"
"1537898928067","176","-0.81640625","-1.1943359","-0.8408203","82.0","109.9375","-38.65625"
"1537898928069","177","-0.3046875","-1.9960938","-0.984375","-2.34375","-147.6875","47.65625"
"1537898928069","178","-1.2099609","-0.4296875","-0.2890625","-86.40625","-53.59375","-14.3125"
"1537898928267","179","0.020507812","-1.9960938","-0.26953125","17.625","140.6875","53.03125"
"1537898928267","180","0.076171875","1.0908203","0.46679688","-62.84375","-24.34375","-91.3125"
"1537898928268","181","0.34179688","-0.96972656","0.059570312","165.375","350.53125","-18.4375"
"1537898928268","182","1.0068359","-1.2841797","0.8955078","281.46875","245.96875","-117.03125"
"1537898928268","183","-0.6328125","-0.296875","-0.1875","198.875","28.09375","-62.5"
"1537898928463","184","0.0029296875","-0.9609375","-0.0087890625","142.4375","64.46875","-27.84375"
"1537898928463","185","0.3955078","-1.0361328","-0.09667969","134.75","118.0","-76.84375"
"1537898928466","186","0.16015625","-0.75878906","0.23339844","47.53125","135.6875","-56.21875"
"1537898928466","187","0.087890625","-0.7783203","0.078125","67.90625","29.1875","-43.78125"
"1537898928466","188","0.0859375","-0.9794922","-0.25390625","97.375","72.21875","-53.84375"
"1537898928665","189","-0.07128906","-1.0927734","-0.22558594","43.5","21.78125","-13.125"
"1537898928665","190","0.7363281","-1.3974609","0.44921875","14.9375","49.5","-10.5625"
"1537898928665","191","-0.017578125","-1.3837891","-0.37695312","-19.0","2.75","-15.21875"
"1537898928665","192","0.017578125","-1.7548828","-0.19824219","-68.15625","-5.1875","68.59375"
"1537898928666","193","-0.1484375","-1.2236328","0.3388672","-274.875","24.53125","108.0625"
"1537898928861","194","0.0390625","-1.1201172","-0.14941406","-221.59375","-165.34375","89.21875"
"1537898928861","195","0.37109375","-1.9960938","1.1816406","-26.28125","-130.90625","43.0625"
"1537898928861","196","0.107421875","-1.15625","0.25878906","-211.4375","-231.9375","56.9375"
"1537898928862","197","0.15820312","-0.58203125","0.12109375","-159.4375","-193.15625","34.40625"
"1537898928863","198","0.09082031","-0.16601562","0.08691406","-123.6875","-117.90625","29.59375"
"1537898929061","199","0.061523438","-9.765625E-4","0.19140625","-53.625","-89.96875","0.34375"
"1537898929061","200","0.044921875","-0.12011719","0.19628906","45.5625","-104.1875","-62.40625"
"1537898929062","201","-0.24707031","-0.44726562","-0.59472656","119.125","67.21875","-101.625"
"1537898929062","202","-0.76953125","-1.9960938","-1.3505859","63.8125","92.0625","22.6875"
"1537898929062","203","-0.8886719","-1.2939453","-0.5683594","-107.875","-127.9375","45.28125"
"1537898929259","204","-0.47558594","0.13964844","-0.46191406","-82.53125","-18.4375","-49.6875"
"1537898929260","205","0.08886719","-1.9960938","-1.0019531","116.375","-3.71875","37.03125"
"1537898929260","206","-0.3857422","1.1650391","1.6005859","73.03125","-82.4375","-107.3125"
"1537898929260","207","-0.061523438","-0.21386719","-0.8095703","41.34375","187.03125","-41.59375"
"1537898929457","208","1.9433594","-1.6191406","1.21875","304.21875","248.0625","-115.25"
"1537898929458","209","-0.390625","-0.50097656","0.045898438","153.21875","22.40625","-39.4375"
"1537898929459","210","-0.3095703","-0.8701172","-0.18066406","99.53125","33.5","-48.53125"
"1537898929459","211","0.2421875","-1.3564453","-0.091796875","53.0","166.3125","-48.125"
"1537898929460","212","-0.06347656","-0.5917969","0.10546875","42.9375","147.84375","-66.125"
"1537898929659","213","0.23339844","-0.90722656","-0.091796875","75.59375","25.03125","-51.78125"
"1537898929659","214","0.0078125","-0.68359375","-0.11035156","75.0","73.3125","-39.4375"
"1537898929659","215","0.2265625","-1.2255859","0.057617188","39.59375","78.75","-0.375"
"1537898929659","216","0.43164062","-1.546875","-0.12890625","12.71875","27.90625","-23.21875"
"1537898929660","217","0.09277344","-1.1494141","-0.34570312","-20.21875","21.1875","10.40625"
"1537898929857","218","0.22167969","-1.8212891","0.041015625","-158.40625","11.59375","75.65625"
"1537898929858","219","0.032226562","-1.0166016","0.60058594","-221.84375","-43.8125","80.4375"
"1537898929858","220","0.083984375","-1.9560547","-0.17089844","-194.71875","54.34375","95.0625"
"1537898929858","221","0.5449219","-1.4570312","-0.34472656","-304.03125","-384.03125","-62.875"
"1537898929858","222","0.16503906","-1.0019531","0.37597656","-207.84375","-196.40625","47.65625"
"1537898930054","223","0.057617188","-0.28125","0.2763672","-163.125","-170.21875","28.625"
"1537898930054","224","0.1953125","0.022460938","0.060546875","-143.28125","-159.96875","49.0"
"1537898930055","225","0.12597656","-0.30078125","0.15429688","-35.625","-154.53125","17.6875"
"1537898930055","226","-0.18554688","-0.31054688","-0.26953125","75.40625","-42.53125","-70.03125"
"1537898930056","227","-0.47460938","-0.6748047","-1.0595703","145.25","147.90625","-126.125"
"1537898930254","228","-0.66308594","-1.9960938","-0.484375","39.59375","-66.9375","31.84375"
"1537898930256","229","-0.76953125","-0.9580078","-0.7246094","-77.0","-94.84375","20.96875"
"1537898930256","230","-0.5029297","-1.4423828","-0.484375","10.96875","19.59375","15.3125"
"1537898930256","231","0.84472656","-1.9960938","-0.13574219","-24.1875","-12.5625","33.4375"
"1537898930256","232","-0.36523438","0.8378906","1.1220703","162.375","205.75","-112.6875"
"1537898930452","233","0.68652344","-1.9960938","-1.0556641","80.96875","53.34375","-46.28125"
"1537898930452","234","0.33203125","-0.484375","0.51660156","210.53125","122.5625","-70.3125"
"1537898930452","235","-0.2890625","-0.45117188","-0.15039062","115.5","20.21875","-68.0"
"1537898930453","236","0.14160156","-1.2265625","-0.10839844","140.125","65.0625","-62.09375"
"1537898930453","237","-0.12402344","-0.7705078","0.07519531","14.3125","192.5","-49.21875"
"1537898930650","238","0.36035156","-0.79003906","0.3623047","60.40625","106.75","-45.375"
"1537898930650","239","0.26367188","-1.0019531","-0.27929688","85.1875","59.75","-56.15625"
"1537898930651","240","-0.11425781","-0.8515625","0.14160156","68.5625","79.40625","-41.03125"
"1537898930651","241","0.3876953","-1.1748047","0.07910156","9.90625","76.65625","1.21875"
"1537898930652","242","0.4169922","-1.4589844","-0.10546875","-6.0","29.125","-17.71875"
"1537898930849","243","0.103515625","-1.5214844","-0.375","-45.25","-2.5","25.25"
"1537898930849","244","0.060546875","-1.7705078","0.0234375","-200.71875","13.96875","72.5625"
"1537898930849","245","-0.10839844","-1.0058594","0.6582031","-216.46875","-26.84375","75.1875"
"1537898930849","246","0.021484375","-1.7998047","-0.16015625","-170.4375","-54.0","108.6875"
"1537898930850","247","0.28515625","-1.1484375","-0.22460938","-290.8125","-261.59375","8.28125"
"1537898931047","248","0.17089844","-0.7158203","0.048828125","-192.03125","-222.59375","63.8125"
"1537898931048","249","0.10253906","-0.2421875","0.3076172","-131.375","-161.25","63.59375"
"1537898931048","250","0.09082031","0.078125","0.00390625","-106.34375","-96.25","74.09375"
"1537898931048","251","0.08691406","-0.33203125","0.026367188","26.78125","-111.5","17.1875"
"1537898931049","252","-0.3330078","-0.43359375","-0.3701172","89.6875","0.4375","-80.21875"
"1537898931249","253","-1.015625","-0.8095703","-1.1054688","107.28125","187.3125","-124.65625"
"1537898931249","254","-0.14746094","-1.9960938","-0.39453125","-13.75","-121.5625","48.15625"
"1537898931249","255","-0.73828125","-0.63964844","-0.61035156","-108.5625","-85.625","18.34375"
"1537898931249","256","-0.33691406","-1.5722656","-0.9511719","32.25","41.9375","16.46875"
"1537898931249","257","0.5488281","-1.4511719","0.7578125","50.9375","-50.71875","-14.0625"
"1537898931446","258","-0.48242188","0.12207031","0.82128906","120.09375","298.09375","-42.0625"
"1537898931446","259","1.3320312","-1.9960938","-0.8544922","148.96875","5.875","-119.9375"
"1537898931446","260","-0.3642578","-0.7441406","0.4326172","232.875","130.375","-56.46875"
"1537898931447","261","-0.36328125","-0.47460938","-0.00390625","112.15625","43.71875","-55.75"
"1537898931447","262","0.43847656","-1.2519531","-0.20800781","94.03125","21.25","-57.6875"
"1537898931644","263","-0.17480469","-0.7265625","-0.018554688","17.0625","174.1875","-58.90625"
"1537898931644","264","0.33789062","-0.92089844","0.6064453","53.375","138.5","-50.3125"
"1537898931644","265","0.14355469","-0.9423828","-0.13769531","70.21875","11.375","-46.46875"
"1537898931644","266","-0.119140625","-0.8623047","-0.11328125","69.3125","91.6875","-53.3125"
"1537898931646","267","0.23632812","-1.2841797","-0.025390625","31.46875","89.3125","-11.125"
"1537898931844","268","0.5830078","-1.4414062","-0.064453125","0.59375","0.96875","-14.65625"
"1537898931845","269","0.12402344","-1.4433594","-0.32226562","-34.375","7.03125","8.53125"
"1537898931845","270","0.24804688","-1.5244141","0.047851562","-196.5625","0.6875","62.5"
"1537898931845","271","0.083984375","-1.0107422","0.52246094","-227.6875","-61.40625","72.6875"
"1537898931845","272","-0.078125","-1.8779297","0.022460938","-159.4375","2.6875","98.5625"
"1537898932042","273","0.5283203","-1.1982422","-0.328125","-322.0","-260.96875","-27.3125"
"1537898932042","274","0.16503906","-0.80371094","0.029296875","-221.34375","-193.09375","60.59375"
"1537898932042","275","0.10058594","-0.28027344","0.2548828","-146.21875","-155.09375","44.53125"
"1537898932042","276","0.05859375","0.0087890625","-0.013671875","-103.65625","-89.71875","44.90625"
"1537898932044","277","0.0078125","-0.14648438","0.11328125","17.5625","-102.90625","1.03125"
"1537898932242","278","-0.18164062","-0.2763672","-0.09863281","109.71875","-17.5","-71.84375"
"1537898932242","279","-0.50878906","-0.77246094","-0.9589844","142.78125","126.65625","-105.96875"
"1537898932242","280","-0.23730469","-1.9960938","-1.0400391","21.28125","-26.0625","90.0625"
"1537898932242","281","-0.8828125","-0.18066406","-0.23144531","-159.5","-139.75","-7.34375"
"1537898932243","282","0.0107421875","-1.4082031","-0.67578125","35.96875","29.84375","32.625"
"1537898932439","283","1.0263672","-1.9960938","0.2939453","43.84375","-63.71875","-23.5"
"1537898932440","284","-0.75390625","0.5097656","0.5498047","127.59375","236.15625","-83.375"
"1537898932440","285","0.84375","-1.9960938","-0.4267578","109.46875","91.1875","-48.53125"
"1537898932441","286","-0.043945312","-0.4267578","0.4326172","210.0625","70.875","-70.875"
"1537898932441","287","-0.13378906","-0.7402344","0.38671875","112.9375","14.71875","-42.0"
"1537898932637","288","0.040039062","-1.0117188","-0.13476562","151.59375","77.21875","-81.875"
"1537898932637","289","-0.15332031","-0.6982422","-0.08203125","46.78125","171.5625","-44.9375"
"1537898932638","290","0.4892578","-0.82128906","0.54296875","57.71875","116.40625","-44.875"
"1537898932639","291","0.115234375","-1.0117188","-0.4091797","84.1875","-3.53125","-52.6875"
"1537898932640","292","-0.13964844","-0.8261719","0.10546875","59.71875","84.65625","-47.0625"
"1537898932838","293","0.4482422","-1.2744141","0.017578125","10.28125","58.0625","2.84375"
"1537898932838","294","0.38671875","-1.4550781","-0.0625","-7.78125","40.84375","-29.625"
"1537898932838","295","0.3720703","-1.6933594","-0.20019531","-69.84375","-18.4375","26.03125"
"1537898932838","296","-0.3486328","-1.2568359","0.15429688","-196.375","1.09375","65.53125"
"1537898933035","297","-0.041992188","-1.1884766","0.20605469","-200.03125","-136.40625","94.03125"
"1537898933036","298","0.0029296875","-1.8300781","0.23632812","-140.09375","63.0625","71.625"
"1537898933036","299","0.2939453","-0.7871094","-0.3876953","-349.875","-271.78125","-0.125"
"1537898933036","300","0.052734375","-0.7861328","0.22753906","-192.65625","-188.84375","42.90625"
"1537898933037","301","0.0859375","-0.23730469","0.18457031","-149.125","-143.1875","36.71875"
"1537898933037","302","0.09277344","-0.07128906","0.11816406","-83.40625","-120.96875","41.84375"
"1537898933234","303","0.030273438","-0.28222656","-0.13671875","6.1875","-66.09375","2.65625"
"1537898933235","304","-0.24121094","-0.37890625","-0.44335938","92.8125","69.03125","-64.46875"
"1537898933236","305","-0.72558594","-0.95996094","-0.9609375","98.375","161.5","-96.4375"
"1537898933236","306","-0.2705078","-1.9960938","-0.6933594","-9.5","-127.625","38.1875"
"1537898933236","307","-0.6982422","-0.6845703","-0.59277344","-80.28125","-56.5","12.375"
"1537898933434","308","-0.37890625","-1.9960938","-0.859375","-0.09375","11.0","26.90625"
"1537898933435","309","0.50097656","-0.22070312","0.7060547","-52.6875","-168.21875","-41.6875"
"1537898933631","310","-0.69628906","0.09375","0.7607422","199.375","479.75","-64.71875"
"1537898933631","311","1.4394531","-1.9960938","-0.43554688","144.375","53.34375","-67.09375"
"1537898933632","312","-0.26171875","-0.54589844","0.31835938","230.0","77.34375","-49.34375"
"1537898933632","313","-0.09082031","-0.65625","-0.033203125","137.5","34.75","-51.90625"
"1537898933633","314","0.17675781","-1.1337891","-0.20605469","146.875","100.34375","-78.5"
"1537898933634","315","-0.234375","-0.63183594","0.046875","29.15625","185.1875","-49.46875"
"1537898933635","316","0.3017578","-0.7441406","0.46191406","72.71875","98.46875","-49.46875"
"1537898933635","317","0.22460938","-0.9296875","-0.4716797","82.0625","48.15625","-44.03125"
"1537898933831","318","0.05078125","-1.1777344","-0.08496094","45.75","59.8125","-32.4375"
"1537898933832","319","0.53222656","-1.3291016","0.1875","4.0","50.90625","-6.375"
"1537898933832","320","0.115234375","-1.2744141","-0.21777344","-4.40625","40.71875","-24.78125"
"1537898933833","321","0.19335938","-1.8505859","-0.14648438","-57.78125","8.96875","53.5"
"1537898933834","322","-0.21777344","-1.2324219","0.15722656","-224.75","1.71875","71.875"
"1537898934029","323","0.0068359375","-1.3496094","0.4013672","-199.1875","-41.1875","79.5625"
"1537898934029","324","0.0078125","-1.9960938","0.48828125","-123.625","-127.5","71.15625"
"1537898934029","325","0.18164062","-1.1064453","-0.14355469","-238.6875","-193.71875","62.90625"
"1537898934030","326","0.19628906","-0.6796875","0.021484375","-193.75","-190.0","50.78125"
"1537898934030","327","0.15429688","-0.10058594","0.06347656","-148.65625","-127.0625","56.125"
"1537898934227","328","0.064453125","-0.08203125","0.140625","-99.6875","-137.4375","43.0"
"1537898934228","329","-0.07519531","-0.21777344","0.038085938","-12.28125","-111.0625","-25.59375"
"1537898934228","330","-0.34179688","-0.22949219","-0.47851562","93.84375","9.59375","-77.84375"
"1537898934229","331","-0.89453125","-1.0","-1.0546875","130.28125","240.0","-76.96875"
"1537898934429","332","-0.49121094","-1.9960938","-0.9550781","41.0625","-96.3125","23.96875"
"1537898934429","333","-0.6689453","-0.60546875","-0.47851562","-70.875","-77.6875","-3.5"
"1537898934429","334","-0.33203125","-1.9960938","-0.859375","9.5","14.53125","31.46875"
"1537898934429","335","0.5390625","-0.28222656","0.62109375","-56.1875","-97.34375","-79.0625"
"1537898934429","336","-0.5449219","-0.06347656","0.5957031","203.84375","422.5","-47.3125"
"1537898934625","337","1.3691406","-1.9960938","0.09667969","142.0","125.1875","-80.15625"
"1537898934625","338","-0.44140625","-0.53515625","0.11621094","209.5","49.875","-66.40625"
"1537898934626","339","0.1796875","-1.0800781","0.38964844","161.65625","32.34375","-47.9375"
"1537898934626","340","0.034179688","-0.8779297","-0.061523438","144.8125","110.78125","-102.3125"
"1537898934627","341","-0.14941406","-0.6533203","0.060546875","62.59375","200.375","-44.6875"
"1537898934826","342","0.39746094","-0.8300781","0.3955078","66.125","68.5","-36.15625"
"1537898934826","343","0.06640625","-0.8925781","-0.5214844","89.28125","71.71875","-47.9375"
"1537898934827","344","0.013671875","-1.1914062","-0.10546875","49.71875","87.34375","-18.25"
"1537898934827","345","0.75683594","-1.4140625","0.07519531","7.25","17.28125","-6.84375"
"1537898934827","346","-0.059570312","-1.0976562","-0.27441406","-11.3125","32.96875","-12.90625"
"1537898935023","347","0.40820312","-1.7226562","-0.07519531","-110.125","14.84375","71.15625"
"1537898935023","348","-0.043945312","-1.1953125","0.39746094","-258.6875","-16.34375","73.53125"
"1537898935023","349","-0.296875","-1.4501953","0.13964844","-144.75","-82.4375","95.5625"
"1537898935024","350","0.74902344","-1.8720703","0.25878906","-288.84375","-296.625","-54.15625"
"1537898935024","351","0.21875","-1.0166016","0.14257812","-228.1875","-218.0","75.125"
"1537898935221","352","0.18359375","-0.5527344","0.17578125","-155.59375","-151.0625","51.5625"
"1537898935222","353","0.17089844","-0.11035156","0.05078125","-126.3125","-92.78125","52.0625"
"1537898935222","354","0.15234375","-0.13476562","0.2626953","-73.625","-137.1875","30.5625"
"1537898935223","355","-0.1640625","-0.23632812","-0.111328125","54.59375","-70.3125","-36.28125"
"1537898935223","356","-0.35546875","-0.6298828","-1.0761719","84.6875","153.6875","-85.40625"
"1537898935421","357","-0.67578125","-1.5722656","-0.19726562","84.1875","-12.6875","-54.53125"
"1537898935421","358","-0.3017578","-1.1796875","-0.9267578","-55.25","-138.46875","30.0"
"1537898935421","359","-0.6230469","-0.6455078","-0.39160156","0.40625","14.71875","-39.875"
"1537898935421","360","-0.091796875","-1.9960938","-1.1494141","17.0","-78.90625","17.5"
"1537898935619","361","-0.140625","0.21191406","0.8544922","108.6875","25.8125","-72.40625"
"1537898935619","362","0.20214844","-0.5234375","-0.40527344","16.15625","229.125","-30.21875"
"1537898935620","363","1.6123047","-1.5478516","0.56152344","299.15625","211.90625","-126.0625"
"1537898935620","364","-0.3623047","-0.8046875","-0.034179688","160.96875","-16.21875","-38.40625"
"1537898935620","365","-0.10253906","-0.8652344","0.1875","156.28125","11.46875","-46.71875"
"1537898935621","366","0.078125","-1.0585938","-0.09863281","125.46875","126.09375","-81.9375"
"1537898935819","367","0.08105469","-0.84765625","0.5498047","65.59375","171.09375","-44.375"
"1537898935820","368","0.22949219","-0.8330078","-0.09667969","44.21875","22.28125","-29.96875"
"1537898935820","369","0.19921875","-0.8173828","-0.234375","86.9375","61.53125","-56.0"
"1537898935820","370","-0.14257812","-1.0908203","-0.1640625","46.375","33.46875","-18.625"
"1537898935821","371","0.7324219","-1.5244141","0.34765625","11.6875","61.71875","-20.21875"
"1537898936015","372","-0.09277344","-1.0605469","-0.09082031","-3.875","25.09375","-26.4375"
"1537898936016","373","0.41308594","-1.6982422","-0.11621094","-74.625","18.5","50.46875"
"1537898936017","374","-0.13671875","-1.1474609","0.15820312","-216.59375","-5.71875","61.9375"
"1537898936018","375","-0.16015625","-1.2402344","0.3564453","-220.3125","-84.71875","96.25"
"1537898936018","376","0.1484375","-1.9960938","0.9169922","-60.6875","-75.5625","55.78125"
"1537898936218","377","0.049804688","-1.2548828","0.111328125","-225.625","-180.09375","60.71875"
"1537898936218","378","0.2607422","-0.6738281","0.09667969","-169.34375","-180.03125","44.40625"
"1537898936218","379","0.19628906","-0.046875","-0.051757812","-129.0","-165.28125","37.09375"
"1537898936218","380","-0.0546875","-0.12207031","0.099609375","-53.5625","-116.3125","40.375"
"1537898936218","381","-0.06640625","-0.38867188","0.07128906","23.53125","-80.3125","-19.78125"
"1537898936416","382","-0.2890625","-0.33496094","-0.3623047","80.96875","61.28125","-76.5"
"1537898936416","383","-0.6923828","-1.0029297","-0.98535156","89.6875","181.15625","-95.34375"
"1537898936417","384","-0.33984375","-1.9960938","-0.8144531","47.53125","-125.34375","42.53125"
"1537898936418","385","-0.8125","-1.1982422","-0.8076172","-91.53125","-88.375","40.75"
"1537898936418","386","0.4423828","-1.9960938","-0.67285156","-17.125","69.28125","43.25"
"1537898936612","387","0.029296875","1.2783203","1.1425781","79.5","-48.75","-106.875"
"1537898936613","388","-0.15722656","-0.66796875","0.15429688","140.71875","429.4375","-45.25"
"1537898936613","389","1.2978516","-1.6777344","0.45410156","191.25","182.0625","-72.59375"
"1537898936614","390","-0.0546875","-0.48828125","-0.15136719","202.625","3.65625","-77.46875"
"1537898936614","391","0.09667969","-0.97558594","-0.09472656","101.78125","24.40625","-25.78125"
"1537898936812","392","0.0107421875","-1.0732422","-0.09667969","87.0625","138.875","-63.90625"
"1537898936813","393","0.064453125","-0.8417969","0.3359375","52.65625","104.4375","-48.40625"
"1537898936813","394","0.15917969","-0.8779297","0.16601562","64.78125","52.5625","-37.96875"
"1537898936814","395","0.028320312","-0.8310547","-0.27539062","89.15625","62.5625","-45.0"
"1537898936814","396","0.21289062","-1.2285156","-0.12011719","42.875","54.4375","-6.125"
"1537898937010","397","0.5488281","-1.5244141","0.0859375","2.78125","27.28125","-14.0625"
"1537898937010","398","0.2626953","-1.1660156","-0.23535156","-16.125","12.65625","2.5625"
"1537898937010","399","0.24609375","-1.9023438","0.068359375","-149.0","-2.0625","65.28125"
"1537898937011","400","-0.3623047","-0.8623047","0.625","-212.0625","7.6875","69.875"
"1537898937012","401","-0.09277344","-1.8251953","-0.20703125","-185.9375","-29.0","110.21875"
"1537898937210","402","0.49414062","-1.9960938","1.1376953","-59.34375","-314.625","-45.0625"
"1537898937211","403","0.26367188","-0.9082031","0.056640625","-209.625","-162.34375","60.78125"
"1537898937211","404","0.16894531","-0.34179688","0.25390625","-143.9375","-165.09375","35.3125"
"1537898937211","405","0.19921875","-0.15234375","0.055664062","-129.65625","-108.625","43.6875"
"1537898937211","406","0.11621094","-0.29003906","0.11328125","-47.5","-105.09375","17.6875"
"1537898937410","407","-0.12011719","-0.375","-0.0390625","7.59375","-81.78125","-61.71875"
"1537898937410","408","-0.25195312","-0.4453125","-0.6640625","46.78125","65.6875","-125.5"
"1537898937411","409","-0.99121094","-1.1914062","-0.6748047","96.15625","110.71875","-27.71875"
"1537898937411","410","-0.66015625","-1.6884766","-0.69433594","17.375","-142.375","28.84375"
"1537898937412","411","-0.7949219","-1.0761719","-0.41015625","-21.875","20.875","12.8125"
"1537898937606","412","0.53222656","-1.9960938","-0.33398438","-94.5625","1.09375","61.8125"
"1537898937606","413","-0.25390625","1.0986328","0.7402344","161.84375","123.53125","-77.15625"
"1537898937607","414","0.95410156","-1.7080078","-0.90234375","12.0625","130.0","-46.71875"
"1537898937607","415","0.5078125","-0.62402344","0.7998047","315.21875","179.09375","-110.5625"
"1537898937608","416","-0.3544922","-0.56347656","-0.2705078","99.46875","-29.96875","-70.5"
"1537898937807","417","0.2529297","-1.2363281","-0.10644531","127.0625","51.46875","-55.1875"
"1537898937808","418","-0.27929688","-0.67089844","-0.13671875","45.75","205.6875","-85.15625"
"1537898937808","419","0.24804688","-0.72265625","0.7578125","47.59375","111.53125","-31.21875"
"1537898937809","420","0.27734375","-0.9638672","-0.3017578","76.625","50.78125","-31.25"
"1537898937810","421","0.08984375","-0.84375","-0.09667969","70.90625","80.09375","-39.625"
"1537898938005","422","0.3671875","-1.2841797","0.07128906","15.84375","77.65625","1.75"
"1537898938006","423","0.203125","-1.4746094","-0.25585938","-11.75","31.375","-14.25"
"1537898938006","424","0.22167969","-1.6171875","-0.39160156","-56.1875","8.0625","53.4375"
"1537898938205","425","0.30566406","-1.6386719","0.37597656","-219.3125","-12.25","87.3125"
"1537898938205","426","0.171875","-1.3486328","-0.055664062","-202.0","-120.78125","81.15625"
"1537898938206","427","0.0625","-1.8359375","0.9609375","-189.78125","128.65625","68.03125"
"1537898938206","428","0.31445312","-1.1894531","0.15429688","-189.0","-227.53125","-40.3125"
"1537898938206","429","-0.072265625","-0.6015625","0.10839844","-200.03125","-225.6875","44.40625"
"1537898938206","430","0.15234375","-0.15625","0.13183594","-146.9375","-196.03125","44.0625"
"1537898938206","431","0.1015625","-0.09277344","0.0703125","-75.03125","-130.65625","62.84375"
"1537898938401","432","-0.021484375","-0.3232422","0.052734375","10.65625","-94.59375","9.8125"
"1537898938401","433","-0.29882812","-0.29296875","-0.3544922","106.71875","20.9375","-59.40625"
"1537898938403","434","-0.6376953","-1.0683594","-0.9560547","85.53125","157.40625","-108.0"
"1537898938404","435","-0.123046875","-1.9960938","-1.0234375","-35.375","-107.78125","44.59375"
"1537898938405","436","-0.6591797","-0.6015625","-0.86035156","-81.5","-77.625","12.375"
"1537898938601","437","-0.3623047","-1.2919922","-0.37695312","32.8125","2.5625","-10.875"
"1537898938601","438","0.84375","-1.9960938","0.73535156","61.5625","-16.40625","-20.59375"
"1537898938601","439","-0.7236328","0.26171875","0.69433594","61.0625","218.875","-36.5625"
"1537898938601","440","0.8955078","-1.9755859","-0.7207031","166.53125","32.28125","-83.03125"
"1537898938603","441","0.1015625","-0.62597656","0.68847656","226.65625","115.84375","-74.0"
"1537898938798","442","-0.24023438","-0.47753906","-0.0859375","113.125","-9.625","-52.6875"
"1537898938800","443","0.0107421875","-1.1103516","-0.29785156","129.0625","80.09375","-87.25"
"1537898938801","444","-0.20214844","-0.7578125","-0.013671875","32.5","209.78125","-44.75"
"1537898938802","445","0.38085938","-0.8359375","0.4580078","46.78125","79.78125","-46.21875"
"1537898938802","446","0.18945312","-0.9716797","-0.49804688","86.03125","19.1875","-46.03125"
"1537898938997","447","-0.041015625","-0.97558594","0.047851562","56.84375","78.375","-34.375"
"1537898938997","448","0.4609375","-1.2958984","0.19042969","4.4375","62.4375","-6.96875"
"1537898938998","449","0.30664062","-1.4667969","-0.19726562","-20.90625","17.65625","-19.375"
"1537898938999","450","0.045898438","-1.4609375","-0.28027344","-55.4375","2.4375","36.1875"
"1537898939198","451","0.038085938","-1.4033203","-0.036132812","-216.28125","-5.375","90.5625"
"1537898939199","452","0.36328125","-1.2109375","0.15917969","-214.75","-130.125","77.75"
"1537898939200","453","0.036132812","-1.9228516","1.3574219","-136.1875","113.28125","83.59375"
"1537898939200","454","0.0859375","-1.3466797","-0.11621094","-181.3125","-213.625","6.625"
"1537898939200","455","0.018554688","-0.6748047","0.08886719","-184.0625","-208.4375","36.78125"
"1537898939398","456","0.123046875","-0.14648438","0.10449219","-142.90625","-186.625","28.1875"
"1537898939399","457","0.080078125","-0.078125","0.115234375","-49.21875","-126.34375","44.53125"
"1537898939399","458","0.026367188","-0.33007812","0.0087890625","7.90625","-61.03125","3.71875"
"1537898939399","459","-0.17675781","-0.29003906","-0.234375","63.28125","59.46875","-59.46875"
"1537898939594","460","-0.5283203","-0.93847656","-1.1894531","68.625","193.65625","-94.125"
"1537898939594","461","-0.24414062","-1.9960938","-0.9326172","12.3125","-132.9375","43.3125"
"1537898939594","462","-0.7470703","-0.78808594","-0.5810547","-104.65625","-105.59375","-13.1875"
"1537898939595","463","-0.25097656","-1.9960938","-0.9970703","-4.84375","-5.375","41.625"
"1537898939595","464","0.20507812","-0.08300781","0.48828125","35.5","-79.53125","-95.0625"
"1537898939596","465","-0.55371094","-0.25683594","0.2919922","151.03125","372.5","-30.34375"
"1537898939794","466","1.6357422","-1.9960938","0.28222656","181.75","187.9375","-88.28125"
"1537898939794","467","-0.29492188","-0.51171875","-0.08496094","234.09375","8.3125","-83.09375"
"1537898939991","468","-0.056640625","-0.91015625","0.17089844","136.625","19.90625","-39.5625"
"1537898940190","469","0.016601562","-1.0654297","-9.765625E-4","138.71875","134.96875","-70.3125"
"1537898940190","470","0.08300781","-0.7871094","0.025390625","42.09375","133.90625","-44.3125"
"1537898940191","471","0.39160156","-0.7919922","0.61035156","78.90625","89.84375","-51.96875"
"1537898940191","472","0.045898438","-1.0449219","-0.48242188","79.875","41.28125","-60.125"
"1537898940192","473","-0.0126953125","-1.1318359","0.20117188","55.40625","69.53125","-16.625"
"1537898940193","474","0.50390625","-1.3984375","0.19921875","-0.15625","56.53125","5.28125"
"1537898940193","475","-0.07910156","-1.3076172","-0.30664062","-30.0","49.3125","-20.34375"
"1537898940194","476","0.38183594","-1.8271484","-0.36816406","-122.15625","11.84375","85.875"
"1537898940194","477","-0.13476562","-1.2490234","0.6660156","-236.53125","-53.03125","87.21875"
"1537898940390","478","0.1328125","-0.49902344","0.111328125","-149.6875","-177.65625","43.6875"
"1537898940391","479","0.0625","-0.18066406","-0.13671875","-90.1875","-59.375","56.75"
"1537898940391","480","0.18652344","-0.27929688","0.49414062","-73.03125","-166.625","24.65625"
"1537898940391","481","-0.06738281","-0.25878906","-0.23242188","30.25","-51.875","-30.09375"
"1537898940391","482","-0.3671875","-0.6982422","-0.6425781","30.625","76.78125","-90.59375"
"1537898940588","483","-0.6972656","-1.1660156","-0.31933594","3.9375","78.375","-76.4375"
"1537898940589","484","-0.4609375","-1.3007812","-1.1083984","19.125","-65.1875","22.9375"
"1537898940589","485","-0.25878906","-0.56152344","-0.45898438","-53.4375","-22.46875","-45.90625"
"1537898940589","486","0.43359375","-1.9960938","-1.3671875","35.1875","-101.25","-44.6875"
"1537898940787","487","-0.5878906","0.6699219","1.4990234","97.75","-69.03125","-87.46875"
"1537898940787","488","-0.52246094","-0.25390625","-0.5859375","-8.875","272.15625","8.03125"
"1537898940788","489","2.0019531","-1.9042969","0.90234375","222.875","196.46875","-110.90625"
"1537898940788","490","-0.111328125","-0.6123047","-0.20605469","214.5625","26.3125","-50.6875"
"1537898940788","491","-0.12402344","-1.1376953","-0.2783203","114.15625","-21.46875","-45.96875"
"1537898940788","492","-0.25","-0.8496094","-0.2421875","71.25","179.5625","-69.46875"
"1537898940986","493","0.22460938","-0.8261719","0.6972656","41.40625","149.78125","-30.78125"
"1537898940986","494","0.4013672","-0.953125","-0.08203125","74.0","55.125","-34.5"
"1537898940987","495","0.083984375","-0.6484375","-0.10644531","69.5625","57.8125","-47.1875"
"1537898940987","496","0.14746094","-1.2578125","-0.030273438","22.5625","72.40625","-10.15625"
"1537898940987","497","0.48828125","-1.5039062","-0.052734375","-3.8125","32.0","-16.625"
"1537898941184","498","0.05859375","-0.99121094","-0.115234375","-16.9375","42.71875","-9.46875"
"1537898941185","499","0.4248047","-1.6875","0.119140625","-137.59375","41.5625","59.4375"
"1537898941189","500","-0.2890625","-0.9746094","0.4609375","-236.46875","5.375","79.09375"
"1537898941189","501","-0.16210938","-1.7939453","-0.3251953","-194.96875","-58.84375","117.1875"
"1537898941189","502","0.39941406","-1.9960938","1.4345703","-99.46875","-242.84375","-14.0"
"1537898941383","503","0.11230469","-1.0107422","0.23730469","-208.53125","-213.90625","53.4375"
"1537898941384","504","0.08105469","-0.44726562","0.23046875","-165.625","-170.21875","42.03125"
"1537898941384","505","0.16601562","-0.059570312","0.018554688","-128.5625","-125.3125","50.40625"
"1537898941386","506","0.08691406","-0.21386719","0.06933594","-48.0625","-108.9375","31.65625"
"1537898941386","507","-0.057617188","-0.31347656","-0.10253906","43.0625","-43.875","-48.1875"
"1537898941581","508","-0.34472656","-0.38476562","-0.90527344","123.5","94.1875","-105.46875"
"1537898941581","509","-0.61621094","-1.9960938","-0.61035156","18.53125","42.625","-5.6875"
"1537898941582","510","-0.6328125","-1.2714844","-0.51953125","-20.96875","-149.15625","38.375"
"1537898941582","511","-0.9003906","-0.33691406","-0.13867188","-24.75","22.90625","-21.625"
"1537898941583","512","-0.06738281","-1.9960938","-1.3994141","-14.6875","-10.96875","19.40625"
"1537898941781","513","0.051757812","0.34472656","1.0546875","50.5625","-58.46875","-113.0625"
"1537898941782","514","0.01953125","-0.5957031","-0.4736328","15.0625","259.03125","7.8125"
"1537898941782","515","1.6279297","-1.5888672","0.72265625","266.9375","262.46875","-107.1875"
"1537898941782","516","-0.33691406","-0.7285156","-0.22167969","211.34375","3.25","-62.03125"
"1537898941782","517","-0.01171875","-1.0654297","0.06933594","108.125","12.6875","-22.21875"
"1537898941980","518","-0.12402344","-0.9824219","-0.24414062","87.6875","157.21875","-66.78125"
"1537898941980","519","0.10546875","-0.8486328","0.36035156","50.28125","162.71875","-43.96875"
"1537898941981","520","0.23144531","-0.86621094","0.20605469","70.96875","41.625","-39.125"
"1537898941981","521","0.119140625","-0.7558594","-0.36328125","84.125","66.28125","-51.09375"
"1537898941982","522","-0.056640625","-1.1113281","-0.030273438","42.46875","55.78125","-6.125"
"1537898942178","523","0.8378906","-1.5302734","0.10058594","5.21875","45.34375","-11.1875"
"1537898942178","524","-0.030273438","-1.0341797","-0.34960938","-4.84375","16.78125","-8.375"
"1537898942178","525","0.3251953","-1.7148438","0.125","-105.8125","12.28125","48.875"
"1537898942178","526","-0.3935547","-0.88671875","0.13671875","-213.84375","-31.125","74.5"
"1537898942179","527","-0.18457031","-1.7158203","-0.4140625","-218.84375","-96.1875","110.65625"
"1537898942379","528","0.4970703","-1.9960938","2.2626953","10.40625","-207.03125","18.96875"
"1537898942380","529","0.26953125","-1.1289062","-0.01953125","-227.25","-174.1875","39.59375"
"1537898942380","530","0.103515625","-0.5644531","0.21484375","-164.21875","-162.59375","23.59375"
"1537898942380","531","0.078125","-0.08984375","0.05859375","-129.125","-157.90625","27.5"
"1537898942380","532","0.049804688","-0.17773438","0.0126953125","-48.0625","-112.96875","21.96875"
"1537898942575","533","-0.13867188","-0.39746094","0.016601562","43.90625","-103.9375","-37.84375"
"1537898942576","534","-0.328125","-0.41308594","-0.5205078","100.0625","47.3125","-108.40625"
"1537898942576","535","-0.8359375","-1.2802734","-0.98339844","63.3125","245.0","-90.40625"
"1537898942576","536","-0.33496094","-1.7148438","-0.6044922","16.875","-147.5","42.71875"
"1537898942576","537","-0.6777344","-0.5566406","-0.65527344","-75.65625","-35.75","-6.53125"
"1537898942774","538","-0.072265625","-1.7412109","-1.0771484","10.53125","17.21875","-10.875"
"1537898942774","539","0.39648438","-0.8779297","1.0605469","-23.78125","-62.90625","-77.78125"
"1537898942775","540","-0.63964844","0.21191406","0.7363281","142.0625","337.09375","-35.21875"
"1537898942776","541","0.6425781","-1.9814453","-0.3984375","168.90625","49.4375","-70.8125"
"1537898942777","542","0.29003906","-0.74316406","0.6347656","233.4375","160.40625","-44.8125"
"1537898942974","543","0.044921875","-0.8515625","-0.45703125","92.625","-76.34375","-47.125"
"1537898942974","544","-0.072265625","-0.83691406","0.0126953125","115.625","189.53125","-83.6875"
"1537898942975","545","-0.13964844","-0.7470703","0.41503906","43.4375","120.125","-36.40625"
"1537898942975","546","0.39941406","-0.8408203","0.16113281","55.6875","93.6875","-24.78125"
"1537898942975","547","0.16503906","-0.8144531","0.0126953125","71.4375","75.9375","-42.375"
"1537898943171","548","-0.111328125","-1.2275391","-0.20898438","36.34375","80.09375","-11.84375"
"1537898943171","549","0.55566406","-1.3105469","0.25585938","5.09375","54.4375","-12.40625"
"1537898943172","550","-0.13183594","-1.2011719","-0.328125","-26.21875","38.65625","1.4375"
"1537898943373","551","0.375","-1.8701172","-0.19921875","-113.78125","49.25","86.96875"
"1537898943373","552","0.034179688","-1.265625","0.70214844","-241.25","-23.78125","78.0"
"1537898943373","553","-0.20117188","-1.6376953","-0.3720703","-176.0","-108.75","100.8125"
"1537898943373","554","1.3037109","-1.8681641","-0.07324219","-233.125","-296.9375","-100.53125"
"1537898943373","555","0.16796875","-0.95410156","0.27246094","-212.1875","-283.1875","65.84375"
"1537898943375","556","-0.0068359375","-0.5175781","0.16113281","-165.3125","-195.625","50.21875"
"1537898943375","557","0.041015625","-0.22363281","-0.0078125","-113.96875","-93.25","48.03125"
"1537898943569","558","0.053710938","-0.20996094","0.064453125","-71.1875","-129.8125","22.6875"
"1537898943570","559","-0.12011719","-0.19238281","-0.22949219","17.71875","-22.6875","-40.65625"
"1537898943570","560","-0.49023438","-0.4404297","-0.4580078","115.28125","69.21875","-85.15625"
"1537898943570","561","-0.5878906","-1.7480469","-0.5234375","75.53125","32.40625","-67.59375"
"1537898943570","562","-0.45117188","-1.2871094","-1.1015625","-71.25","-99.65625","42.34375"
"1537898943767","563","-0.46289062","-0.20214844","-0.40234375","-44.46875","35.28125","-43.96875"
"1537898943967","564","0.14941406","-1.9960938","-0.8125","77.65625","-56.03125","1.75"
"1537898944165","565","-0.25097656","0.13085938","1.0224609","104.03125","-15.625","-96.21875"
"1537898944165","566","-0.15332031","-0.35742188","-0.6230469","4.375","188.3125","-3.3125"
"1537898944165","567","1.7666016","-1.6386719","0.4716797","249.375","133.625","-105.4375"
"1537898944166","568","-0.23046875","-0.67285156","0.095703125","193.9375","43.65625","-29.6875"
"1537898944166","569","-0.2578125","-0.98535156","-0.047851562","127.21875","-32.40625","-41.8125"
"1537898944168","570","0.11425781","-0.9794922","-0.07324219","119.125","118.15625","-68.125"
"1537898944168","571","0.14746094","-0.86035156","0.32226562","36.96875","139.09375","-44.09375"
"1537898944168","572","0.2626953","-0.8261719","0.41210938","83.53125","48.53125","-47.4375"
"1537898944169","573","-0.095703125","-0.890625","-0.45410156","84.375","71.65625","-58.375"
"1537898944366","574","-0.20019531","-1.0625","0.6064453","-236.21875","-45.15625","70.46875"
"1537898944366","575","-0.23828125","-1.6708984","-0.3515625","-171.34375","-77.25","104.59375"
"1537898944562","576","0.88964844","-1.9960938","0.7578125","-209.3125","-352.65625","-139.84375"
"1537898944563","577","0.12011719","-1.0556641","0.33398438","-228.96875","-243.84375","70.0"
"1537898944563","578","0.17382812","-0.49121094","0.25585938","-160.65625","-172.34375","42.90625"
"1537898944564","579","0.15332031","-0.18261719","0.0390625","-122.53125","-107.40625","52.59375"
"1537898944564","580","0.05078125","-0.36523438","0.16015625","-53.125","-152.8125","12.9375"
"1537898944564","581","-0.2998047","-0.296875","-0.068359375","16.875","-51.6875","-46.84375"
"1537898944566","582","-0.28808594","-0.33398438","-0.6123047","84.1875","95.65625","-86.1875"
"1537898944566","583","-0.6503906","-1.3837891","-0.79589844","145.96875","78.3125","-29.1875"
"1537898944762","584","-0.5810547","-1.6591797","-0.7470703","-36.59375","-104.65625","15.71875"
"1537898944762","585","-0.70214844","-0.625","-0.30078125","-52.28125","5.625","10.25"
"1537898944763","586","0.65527344","-1.9960938","0.234375","-35.65625","30.59375","41.3125"
"1537898944763","587","-0.36914062","0.49121094","0.6611328","133.09375","179.09375","-94.0"
"1537898944963","588","0.6455078","-1.875","-1.1123047","71.6875","-50.03125","-62.8125"
"1537898944964","589","0.15136719","-0.53027344","0.7832031","276.15625","172.90625","-97.90625"
"1537898944964","590","-0.32421875","-0.6269531","-0.1171875","87.5","6.28125","-46.21875"
"1537898944964","591","0.25195312","-1.2333984","0.08300781","96.28125","83.75","-64.40625"
"1537898944964","592","-0.21386719","-0.7421875","-0.14941406","3.40625","189.8125","-60.875"
"1537898945159","593","0.41601562","-0.8154297","0.45703125","52.03125","87.21875","-40.90625"
"1537898945159","594","0.28222656","-1.0380859","-0.29492188","77.0625","60.5625","-49.34375"
"1537898945159","595","-0.060546875","-0.71777344","0.12597656","67.0","76.0625","-44.75"
"1537898945160","596","0.6074219","-1.3105469","0.21777344","14.375","90.28125","-1.3125"
"1537898945160","597","0.14746094","-1.4677734","-0.34570312","-10.09375","17.875","-23.34375"
"1537898945359","598","0.1640625","-1.6503906","-0.19238281","-44.21875","25.6875","33.5625"
"1537898945360","599","0.30859375","-1.5292969","0.12011719","-198.8125","-2.875","57.1875"
"1537898945360","600","-0.15039062","-0.9169922","0.53222656","-211.40625","-112.1875","78.96875"
"1537898945360","601","0.13476562","-1.9521484","-0.12207031","-183.5","55.4375","114.96875"
"1537898945360","602","0.41210938","-1.1171875","-0.10449219","-234.78125","-223.0","-12.40625"
"1537898945556","603","0.047851562","-0.75","-0.021484375","-193.15625","-214.90625","59.96875"
"1537898945557","604","0.05859375","-0.31445312","0.171875","-143.46875","-170.03125","48.5"
"1537898945557","605","0.06347656","-0.20410156","-0.01953125","-91.15625","-83.3125","58.8125"
"1537898945557","606","0.080078125","-0.3564453","0.04296875","-5.21875","-94.0625","14.375"
"1537898945558","607","-0.203125","-0.38867188","-0.20019531","69.625","4.46875","-54.46875"
"1537898945757","608","-0.39648438","-0.5126953","-0.9746094","146.53125","151.125","-104.4375"
"1537898945757","609","-0.46777344","-1.9960938","-0.6171875","30.0","-86.34375","13.84375"
"1537898945956","610","-0.69628906","-0.78515625","-0.7363281","-96.9375","-129.625","29.78125"
"1537898945957","611","-0.6484375","-0.49414062","-0.20117188","-0.625","24.78125","-31.9375"
"1537898945957","612","0.46679688","-1.9960938","-0.17089844","-43.53125","-5.25","25.5625"
"1537898945957","613","-0.43359375","0.61328125","1.1572266","148.40625","124.21875","-99.0625"
"1537898945957","614","0.5371094","-1.3056641","-1.1425781","60.6875","-34.59375","-47.5"
"1537898945957","615","0.4189453","-0.9423828","0.5546875","259.96875","222.71875","-105.96875"
"1537898945957","616","-0.51660156","-0.54296875","-0.0546875","46.53125","5.0625","-48.46875"
"1537898945958","617","0.23632812","-0.98339844","0.17675781","83.78125","54.03125","-49.9375"
"1537898946153","618","-0.119140625","-0.82421875","0.107421875","70.71875","153.6875","-65.625"
"1537898946153","619","0.36914062","-0.91308594","0.328125","60.15625","121.09375","-34.5"
"1537898946153","620","0.18554688","-0.9638672","-0.095703125","68.28125","29.5625","-42.625"
"1537898946154","621","-0.055664062","-0.9707031","-0.34960938","67.84375","73.6875","-51.21875"
"1537898946154","622","0.15820312","-1.03125","0.09863281","23.09375","80.375","-17.90625"
"1537898946353","623","0.64160156","-1.3212891","-0.0087890625","2.15625","13.625","-9.78125"
"1537898946354","624","0.078125","-1.2197266","-0.119140625","-2.53125","14.53125","-15.46875"
"1537898946355","625","0.41210938","-1.6513672","0.0078125","-83.71875","1.59375","38.25"
"1537898946355","626","-0.32617188","-0.94628906","0.29589844","-184.59375","-41.25","54.5625"
"1537898946355","627","-0.18164062","-1.2363281","0.056640625","-203.15625","-135.84375","105.6875"
"1537898946550","628","0.3095703","-1.9960938","0.9140625","-61.0625","-35.34375","39.71875"
"1537898946550","629","0.23828125","-1.1601562","0.0859375","-197.71875","-221.125","49.53125"
"1537898946550","630","0.0859375","-0.76953125","0.001953125","-163.53125","-178.875","52.84375"
"1537898946551","631","0.049804688","-0.29882812","-0.05859375","-126.8125","-134.625","49.125"
"1537898946551","632","0.032226562","-0.28222656","0.037109375","-77.78125","-83.4375","38.6875"
"1537898946751","633","0.015625","-0.38476562","-0.064453125","-11.875","-79.46875","-16.625"
"1537898946751","634","-0.28710938","-0.28320312","-0.37109375","78.65625","26.5625","-66.375"
"1537898946752","635","-0.42773438","-0.8261719","-0.65722656","121.0","139.40625","-92.25"
"1537898946752","636","-0.25390625","-1.9960938","-0.8925781","35.125","-61.5625","8.15625"
"1537898946753","637","-0.6298828","-0.8515625","-0.61328125","-67.28125","-99.65625","27.375"
"1537898946947","638","-0.4609375","-1.3769531","-0.64160156","7.25","-6.03125","-16.25"
"1537898946948","639","0.8984375","-1.9960938","-0.1015625","8.03125","2.3125","-11.0625"
"1537898946948","640","-0.4111328","0.7792969","0.9267578","208.90625","146.6875","-71.65625"
"1537898946948","641","0.5683594","-1.9570312","-0.82421875","31.78125","131.46875","-26.3125"
"1537898946950","642","0.8876953","-0.5078125","0.8798828","243.3125","145.03125","-83.03125"
"1537898947147","643","-0.24121094","-0.57128906","-0.15625","101.28125","3.3125","-61.21875"
"1537898947147","644","0.0625","-1.2060547","-0.20605469","131.75","91.5","-53.1875"
"1537898947148","645","-0.23046875","-0.7998047","-0.24707031","-4.78125","134.78125","-41.40625"
"1537898947148","646","0.31640625","-0.765625","0.42773438","45.8125","87.46875","-34.8125"
"1537898947148","647","0.26757812","-1.0664062","-0.24121094","81.03125","46.53125","-43.90625"
"1537898947346","648","0.028320312","-0.859375","0.02734375","58.5625","63.71875","-40.53125"
"1537898947347","649","0.40625","-1.2060547","0.06738281","2.84375","70.0625","5.28125"
"1537898947347","650","0.28125","-1.3701172","-0.20117188","-8.6875","10.875","-16.375"
"1537898947347","651","0.2919922","-1.7832031","-0.16601562","-44.65625","4.40625","32.9375"
"1537898947347","652","-0.07519531","-1.6054688","-0.041992188","-196.3125","-17.3125","65.90625"
"1537898947544","653","-0.052734375","-1.0458984","0.28515625","-222.875","-114.3125","93.375"
"1537898947544","654","-0.02734375","-1.9609375","-0.13085938","-190.875","102.375","99.53125"
"1537898947544","655","0.4423828","-1.0810547","-0.47753906","-282.8125","-223.125","16.09375"
"1537898947545","656","0.13867188","-0.71972656","-9.765625E-4","-185.21875","-185.25","59.0625"
"1537898947545","657","0.044921875","-0.16113281","0.091796875","-139.75","-168.9375","35.15625"
"1537898947743","658","0.06640625","-0.083984375","-0.022460938","-71.9375","-90.4375","48.09375"
"1537898947744","659","0.0048828125","-0.38867188","0.030273438","15.125","-86.25","9.03125"
"1537898947744","660","-0.04296875","-0.4013672","-0.234375","54.78125","24.84375","-70.75"
"1537898947745","661","-0.47265625","-0.6279297","-0.95214844","126.375","138.4375","-123.96875"
"1537898947746","662","-0.23632812","-1.9960938","-0.7392578","-30.25","-55.96875","3.59375"
"1537898947941","663","-0.6894531","-1.0644531","-0.6640625","-41.71875","-138.0625","45.6875"
"1537898947941","664","-0.5332031","-0.8496094","-0.4033203","-15.65625","26.1875","-15.59375"
"1537898947942","665","1.0078125","-1.9960938","-0.28515625","-82.53125","-26.40625","30.125"
"1537898947942","666","-0.37695312","0.7373047","1.3232422","201.03125","141.4375","-95.40625"
"1537898947942","667","0.107421875","-1.7890625","-1.4111328","53.875","-20.3125","-39.0625"
"1537898948341","668","0.546875","-0.63378906","1.0771484","219.5625","202.15625","-74.84375"
"1537898948341","669","-0.12890625","-0.35351562","-0.32421875","94.03125","-19.34375","-62.625"
"1537898948341","670","0.14257812","-1.2392578","-0.15039062","140.46875","90.53125","-67.40625"
"1537898948341","671","-0.38476562","-0.66796875","-0.23535156","26.15625","129.9375","-42.5625"
"1537898948343","672","0.3623047","-0.8720703","0.67089844","61.5625","146.3125","-33.53125"
"1537898948344","673","0.3173828","-0.79003906","-0.37890625","84.5625","41.28125","-37.625"
"1537898948344","674","0.080078125","-0.9375","-0.040039062","68.28125","65.3125","-39.6875"
"1537898948345","675","0.36132812","-1.2119141","0.06347656","15.65625","51.875","-6.3125"
"1537898948345","676","0.3876953","-1.4873047","-0.026367188","2.71875","40.71875","-31.5625"
"1537898948537","677","0.072265625","-1.6416016","0.12988281","-167.625","0.875","41.65625"
"1537898948537","678","-0.3779297","-0.8486328","0.62890625","-225.6875","-35.6875","101.65625"
"1537898948538","679","0.111328125","-1.8193359","-0.5332031","-181.3125","-39.125","107.96875"
"1537898948538","680","0.8457031","-1.2207031","-0.19921875","-337.25","-257.4375","-39.1875"
"1537898948539","681","0.16699219","-0.96191406","0.103515625","-201.5625","-199.03125","47.90625"
"1537898948738","682","0.08105469","-0.2626953","0.17675781","-142.125","-173.9375","24.8125"
"1537898948738","683","0.059570312","-0.0390625","0.0625","-91.8125","-116.6875","33.4375"
"1537898948738","684","0.02734375","-0.27441406","-0.005859375","-8.5","-94.21875","6.5625"
"1537898948739","685","-0.18457031","-0.31835938","-0.28222656","92.1875","35.90625","-60.8125"
"1537898948739","686","-0.34765625","-0.8955078","-0.9980469","114.40625","178.90625","-117.4375"
"1537898948937","687","-0.4169922","-1.9960938","-0.7392578","-36.03125","-115.03125","45.875"
"1537898948937","688","-0.55566406","-0.7949219","-0.78808594","-77.0625","-107.28125","19.8125"
"1537898948937","689","-0.359375","-1.0810547","-0.6855469","-10.03125","-11.34375","-7.03125"
"1537898948937","690","1.0810547","-1.9960938","0.7158203","-10.40625","0.9375","8.71875"
"1537898948938","691","-0.71484375","0.48828125","0.6455078","144.3125","248.71875","-50.4375"
"1537898949134","692","0.7480469","-1.9960938","-0.79003906","121.6875","60.0625","-88.46875"
"1537898949135","693","0.28320312","-0.53027344","0.67578125","201.6875","116.59375","-39.125"
"1537898949135","694","-0.30078125","-0.5449219","-0.2939453","107.34375","-10.75","-49.21875"
"1537898949135","695","0.16210938","-1.0986328","-0.29296875","152.8125","116.875","-77.78125"
"1537898949136","696","-0.12890625","-0.78027344","-0.041992188","-3.5625","151.5","-35.71875"
"1537898949333","697","0.26171875","-0.7685547","0.28125","52.15625","61.84375","-38.21875"
"1537898949333","698","0.17480469","-1.0527344","-0.25390625","78.65625","57.375","-46.65625"
"1537898949333","699","0.009765625","-0.8671875","0.09667969","64.4375","66.0","-33.59375"
"1537898949333","700","0.40625","-1.2294922","0.08105469","11.375","72.53125","4.3125"
"1537898949334","701","0.203125","-1.3251953","-0.25585938","-6.8125","19.34375","-17.15625"
"1537898949531","702","0.56347656","-1.7480469","0.08886719","-68.375","27.0","23.90625"
"1537898949531","703","-0.39257812","-1.3134766","0.14648438","-218.15625","5.4375","50.03125"
"1537898949532","704","-0.22265625","-1.1035156","0.13964844","-196.9375","-129.4375","100.5625"
"1537898949532","705","0.27441406","-1.9960938","0.4326172","-153.46875","75.5","97.34375"
"1537898949532","706","0.5410156","-1.0625","-0.111328125","-200.78125","-266.34375","4.5625"
"1537898949732","707","0.119140625","-0.69628906","0.13378906","-167.09375","-227.53125","37.53125"
"1537898949732","708","0.021484375","-0.15039062","0.049804688","-137.21875","-174.96875","34.15625"
"1537898949733","709","-0.029296875","-0.0859375","0.0390625","-56.25","-101.0","35.25"
"1537898949733","710","0.021484375","-0.29296875","-0.0029296875","22.1875","-71.34375","-12.96875"
"1537898949929","711","-0.09667969","-0.3701172","-0.14257812","67.53125","17.21875","-73.875"
"1537898949929","712","-0.6953125","-0.68066406","-0.9404297","104.59375","102.78125","-88.34375"
"1537898949929","713","0.06640625","-1.9960938","-0.65722656","-30.96875","-80.3125","50.8125"
"1537898949930","714","-0.9707031","-0.6611328","-0.6845703","-111.125","-95.875","10.125"
"1537898949931","715","-0.23925781","-1.2304688","-0.5576172","25.5","-0.84375","0.34375"
"1537898950128","716","0.90527344","-1.9960938","0.54589844","53.0","-35.6875","18.59375"
"1537898950128","717","-0.5292969","0.53125","0.82421875","117.90625","229.4375","-85.78125"
"1537898950129","718","0.71484375","-1.5478516","-0.71777344","160.0625","82.96875","-67.28125"
"1537898950129","719","-0.047851562","-0.8671875","0.47265625","229.71875","144.65625","-60.25"
"1537898950130","720","-0.041015625","-0.45117188","-0.059570312","110.15625","1.46875","-62.40625"
"1537898950326","721","0.11328125","-1.2226562","-0.5332031","136.21875","110.3125","-84.0"
"1537898950327","722","-0.35839844","-0.5761719","-0.09472656","22.875","195.625","-54.75"
"1537898950328","723","0.40234375","-0.8671875","0.3544922","32.75","79.78125","-21.6875"
"1537898950328","724","0.4716797","-1.0244141","-0.2939453","84.5625","41.3125","-40.65625"
"1537898950328","725","-0.22167969","-0.7919922","0.034179688","69.125","54.75","-51.90625"
"1537898950525","726","0.21679688","-1.1201172","-0.20703125","9.90625","81.625","0.34375"
"1537898950525","727","0.5410156","-1.4658203","0.103515625","-14.3125","37.3125","-24.625"
"1537898950526","728","0.76953125","-1.5986328","0.0078125","-71.125","-8.84375","13.46875"
"1537898950527","729","-0.51464844","-1.5722656","0.19628906","-192.21875","5.75","39.28125"
"1537898950527","730","-0.359375","-0.9394531","0.3828125","-230.96875","-85.875","108.125"
"1537898950725","731","0.12988281","-1.8955078","-0.24707031","-191.6875","25.03125","118.03125"
"1537898950725","732","0.6826172","-0.9394531","-0.23828125","-271.9375","-242.25","-8.625"
"1537898950725","733","0.21484375","-0.65625","0.07324219","-172.6875","-202.8125","44.0625"
"1537898950726","734","0.0146484375","-0.1875","0.10449219","-142.1875","-168.75","36.0625"
"1537898950726","735","-9.765625E-4","-0.017578125","0.022460938","-82.53125","-102.09375","37.15625"
"1537898950924","736","-0.037109375","-0.27929688","0.013671875","-10.71875","-100.09375","-1.71875"
"1537898950924","737","-0.11230469","-0.38671875","-0.17382812","69.4375","-8.0","-75.6875"
"1537898951123","738","-0.48339844","-0.6621094","-0.89746094","126.4375","122.9375","-115.4375"
"1537898951123","739","-0.17773438","-1.9960938","-0.69921875","6.25","-40.65625","70.25"
"1537898951123","740","-0.80859375","-0.9394531","-0.796875","-69.4375","-86.84375","0.96875"
"1537898951124","741","-0.51171875","-1.2080078","-0.24121094","15.40625","30.09375","-8.8125"
"1537898951124","742","0.88378906","-1.9960938","-0.059570312","-24.875","-1.40625","26.46875"
"1537898951124","743","-0.3095703","0.50390625","1.0761719","184.3125","163.71875","-92.59375"
"1537898951124","744","0.5439453","-1.5205078","-0.96191406","27.0","-41.375","-30.53125"
"1537898951125","745","0.45898438","-0.76171875","0.5595703","244.90625","180.4375","-81.0625"
"1537898951320","746","-0.25878906","-0.6660156","-0.12207031","105.4375","-0.78125","-56.28125"
"1537898951320","747","-0.009765625","-1.1074219","-0.20117188","65.90625","36.5","-65.5"
"1537898951320","748","-0.23144531","-0.66503906","-0.056640625","24.25","180.4375","-61.71875"
"1537898951321","749","0.3251953","-0.80078125","0.4453125","46.40625","114.03125","-38.59375"
"1537898951321","750","0.3173828","-1.0478516","-0.18652344","70.78125","38.59375","-36.46875"
"1537898951519","751","-0.1015625","-0.7080078","0.038085938","70.71875","92.21875","-48.34375"
"1537898951520","752","0.38378906","-1.2880859","0.083984375","17.3125","83.25","0.28125"
"1537898951520","753","0.38085938","-1.4570312","-0.16601562","-7.34375","0.8125","-7.875"
"1537898951522","754","0.37109375","-1.7587891","-0.06738281","-46.0625","3.5625","31.40625"
"1537898951522","755","-0.08984375","-1.4716797","0.048828125","-233.4375","-22.875","79.40625"
"1537898951719","756","0.0546875","-1.0126953","0.21972656","-220.25","-146.90625","88.1875"
"1537898951720","757","0.17382812","-1.9960938","0.40722656","-150.40625","-2.4375","112.34375"
"1537898951720","758","0.2783203","-1.1005859","-0.021484375","-206.375","-202.375","34.96875"
"1537898951721","759","0.11035156","-0.70996094","-0.044921875","-174.28125","-173.34375","49.0625"
"1537898951721","760","-0.01953125","-0.09472656","0.115234375","-121.84375","-162.53125","46.3125"
"1537898951916","761","0.0107421875","0.041992188","-0.06347656","-38.65625","-65.1875","52.96875"
"1537898951917","762","0.06640625","-0.37890625","0.24902344","31.03125","-75.1875","4.5"
"1537898951917","763","-0.3955078","-0.4375","-0.4658203","133.875","37.375","-73.0"
"1537898951917","764","-0.8310547","-1.3242188","-0.7060547","64.3125","66.71875","-107.4375"
"1537898951918","765","-0.15527344","-1.6708984","-0.7089844","-77.0","-80.75","62.25"
"1537898952317","766","-0.49902344","-0.43554688","-0.6796875","-67.21875","-80.8125","-26.5625"
"1537898952317","767","-0.20996094","-1.7636719","-0.98828125","35.0625","7.03125","-18.5625"
"1537898952317","768","0.75878906","-1.4296875","1.0820312","70.09375","-115.53125","-90.03125"
"1537898952317","769","-1.1328125","0.3232422","0.54589844","67.90625","321.65625","-3.96875"
"1537898952318","770","1.4042969","-1.9960938","-0.4814453","178.5","53.59375","-98.96875"
"1537898952318","771","-0.3173828","-0.74609375","0.18261719","196.125","85.03125","-45.84375"
"1537898952318","772","0.06347656","-0.6513672","0.30859375","146.21875","29.4375","-47.1875"
"1537898952318","773","0.078125","-1.0712891","-0.24707031","152.4375","127.875","-96.8125"
"1537898952319","774","-0.21386719","-0.7158203","0.013671875","40.375","192.5625","-47.375"
"1537898952512","775","0.3125","-0.984375","-0.4404297","78.34375","48.71875","-57.8125"
"1537898952513","776","0.016601562","-0.875","0.22167969","55.34375","70.875","-33.40625"
"1537898952513","777","0.5332031","-1.2685547","0.12695312","11.9375","64.65625","-4.71875"
"1537898952513","778","0.16113281","-1.4414062","-0.23144531","-11.625","13.1875","-25.65625"
"1537898952514","779","0.31152344","-1.7099609","-0.11425781","-62.65625","9.03125","33.6875"
"1537898952711","780","-0.2548828","-1.3398438","0.4267578","-225.1875","24.0625","57.0"
"1537898952712","781","-0.16308594","-0.9296875","0.09863281","-204.25","-171.75","109.0625"
"1537898952712","782","0.2626953","-1.9960938","0.19628906","-156.46875","21.375","108.375"
"1537898952712","783","0.29785156","-1.0585938","-0.026367188","-208.65625","-235.09375","46.25"
"1537898952713","784","0.06933594","-0.6386719","0.17480469","-160.1875","-195.65625","48.8125"
"1537898952910","785","0.15234375","-0.3154297","0.05078125","-132.21875","-121.34375","54.375"
"1537898952910","786","0.08203125","-0.2919922","0.0107421875","-65.625","-74.03125","30.625"
"1537898952910","787","0.056640625","-0.375","-0.15722656","-16.5","3.375","-27.40625"
"1537898952911","788","-0.3330078","-0.20898438","-0.4140625","65.34375","35.28125","-88.15625"
"1537898952912","789","-0.5019531","-1.0498047","-0.6357422","97.6875","105.28125","-69.78125"
"1537898953108","790","-0.30566406","-1.9960938","-0.9638672","48.5","-92.71875","43.6875"
"1537898953110","791","-0.7841797","-0.34960938","-0.7060547","-114.28125","-76.46875","-1.0625"
"1537898953110","792","-0.13574219","-1.9960938","-0.9033203","44.71875","31.875","-6.375"
"1537898953111","793","0.34277344","-0.14550781","1.015625","-63.25","-102.09375","-78.4375"
"1537898953112","794","-0.6611328","0.30566406","0.6767578","166.71875","370.25","-31.15625"
"1537898953307","795","1.1347656","-1.9960938","-0.3203125","156.84375","65.1875","-63.84375"
"1537898953307","796","-0.13769531","-0.5371094","0.30859375","243.0","120.6875","-32.125"
"1537898953507","797","-0.083984375","-0.76464844","-0.15527344","113.3125","-32.40625","-52.25"
"1537898953508","798","0.21484375","-1.0458984","0.16503906","131.8125","156.9375","-70.875"
"1537898953508","799","-0.14746094","-0.76660156","0.15429688","36.78125","168.34375","-43.78125"
"1537898953510","800","0.359375","-0.8613281","0.29785156","67.0","49.25","-34.5625"
"1537898953510","801","0.05078125","-1.0410156","-0.3798828","86.03125","69.46875","-62.9375"
"1537898953510","802","-0.11230469","-1.1347656","-0.36621094","40.4375","39.5625","-19.1875"
"1537898953510","803","0.8378906","-1.2880859","0.2763672","-12.0","59.53125","0.65625"
"1537898953510","804","-0.0068359375","-1.0820312","-0.20507812","-23.53125","17.65625","-15.21875"
"1537898953704","805","0.47460938","-1.5048828","-0.020507812","-160.625","13.75","67.96875"
"1537898953705","806","-0.34472656","-1.2421875","0.5810547","-216.21875","-39.0","79.09375"
"1537898953705","807","-0.03515625","-1.8378906","-0.44921875","-183.375","37.90625","99.15625"
"1537898953706","808","0.7294922","-1.6416016","-0.30371094","-265.40625","-398.78125","-50.6875"
"1537898953706","809","0.017578125","-0.98339844","0.24609375","-200.15625","-208.71875","53.09375"
"1537898953907","810","0.056640625","-0.37304688","0.171875","-150.34375","-204.875","34.34375"
"1537898953907","811","0.14746094","-0.115234375","0.026367188","-89.375","-144.40625","56.25"
"1537898953909","812","-0.026367188","-0.33398438","0.09472656","-20.21875","-107.0625","38.5"
"1537898953909","813","-0.029296875","-0.35253906","-0.0703125","29.625","-24.59375","-25.28125"
"1537898953909","814","-0.3046875","-0.35253906","-0.4951172","108.125","63.71875","-92.375"
"1537898954102","815","-0.9296875","-1.7353516","-1.3408203","63.5625","136.125","-15.34375"
"1537898954103","816","-0.6347656","-1.5693359","-0.38085938","25.78125","-168.28125","45.40625"
"1537898954103","817","-0.84472656","-0.5517578","-0.14941406","-75.40625","-29.34375","-6.375"
"1537898954104","818","0.53125","-1.9960938","-0.89453125","-47.21875","40.53125","68.09375"
"1537898954104","819","-0.19238281","1.0917969","0.75","95.25","43.65625","-98.15625"
"1537898954301","820","0.66796875","-1.1455078","-0.80859375","-1.1875","165.0","-29.375"
"1537898954302","821","1.0869141","-1.1416016","0.92089844","288.125","205.09375","-114.59375"
"1537898954302","822","-0.63183594","-0.58203125","-0.22460938","192.0625","-13.375","-77.40625"
"1537898954303","823","-0.0107421875","-1.0576172","0.3515625","138.65625","20.875","-40.40625"
"1537898954304","824","0.029296875","-0.85546875","-0.18847656","124.71875","142.65625","-93.53125"
"1537898954502","825","-0.05859375","-0.70410156","0.37109375","66.5","184.6875","-48.40625"
"1537898954503","826","0.26171875","-0.8730469","0.18945312","73.8125","42.84375","-29.125"
"1537898954504","827","0.17382812","-0.9482422","-0.61328125","74.5625","79.28125","-59.65625"
"1537898954504","828","-0.048828125","-1.1972656","0.033203125","43.6875","52.875","-13.6875"
"1537898954504","829","0.7597656","-1.4482422","-0.024414062","-9.4375","27.09375","2.25"
"1537898954698","830","0.41308594","-1.7080078","-0.25097656","-33.53125","-11.96875","12.5"
"1537898954699","831","-0.03515625","-1.8330078","-0.047851562","-202.84375","-15.6875","57.34375"
"1537898954699","832","-0.17382812","-0.80566406","0.5527344","-209.9375","-85.0","87.375"
"1537898954699","833","0.3544922","-1.9873047","-0.5371094","-195.78125","40.96875","121.9375"
"1537898954897","834","0.59765625","-1.1650391","-0.7167969","-313.375","-335.6875","-41.09375"
"1537898954897","835","0.109375","-0.9423828","0.12792969","-191.0","-215.9375","49.25"
"1537898954899","836","-0.009765625","-0.33007812","0.22363281","-149.25","-186.75","23.0"
"1537898954899","837","0.040039062","-0.07324219","-0.107421875","-103.71875","-98.0","31.65625"
"1537898954899","838","0.06933594","-0.2626953","0.11425781","-3.125","-117.125","-3.875"
"1537898955097","839","-0.12792969","-0.31640625","-0.14453125","43.0","-45.46875","-62.21875"
"1537898955097","840","-0.40820312","-0.7167969","-0.7392578","120.875","142.9375","-98.53125"
"1537898955098","841","-0.3564453","-1.9960938","-0.6298828","34.53125","-15.375","-14.46875"
"1537898955098","842","-0.6386719","-0.8417969","-0.6972656","-70.59375","-132.75","34.46875"
"1537898955098","843","-0.41796875","-0.50097656","-0.31347656","-29.8125","24.40625","-40.46875"
"1537898955296","844","0.51464844","-1.9960938","-0.890625","-6.6875","-4.375","30.0"
"1537898955297","845","-0.40722656","0.8388672","1.0341797","107.34375","71.25","-93.28125"
"1537898955496","846","0.36914062","-0.7949219","-0.8544922","79.9375","93.75","-65.3125"
"1537898955497","847","0.9296875","-1.1259766","1.0185547","227.15625","221.25","-58.5"
"1537898955497","848","-0.21875","-0.56640625","-0.09277344","94.9375","-54.5","-71.5"
"1537898955497","849","0.06542969","-1.0429688","-0.30566406","133.21875","137.34375","-78.875"
"1537898955497","850","-0.068359375","-0.84277344","0.103515625","7.1875","213.6875","-52.375"
"1537898955497","851","0.23925781","-0.70996094","0.15917969","47.15625","54.875","-29.875"
"1537898955497","852","0.390625","-1.1181641","-0.14648438","85.53125","58.65625","-45.25"
"1537898955498","853","-0.12792969","-0.796875","-0.01953125","64.1875","47.5625","-45.65625"
"1537898955693","854","0.3720703","-1.2539062","0.064453125","5.59375","83.5","-1.53125"
"1537898955693","855","0.14941406","-1.4697266","-0.24121094","-15.71875","27.71875","-21.125"
"1537898955693","856","0.22753906","-1.6845703","-0.22753906","-50.375","24.46875","35.1875"
"1537898955694","857","0.22753906","-1.4482422","0.22460938","-229.09375","16.59375","66.6875"
"1537898955694","858","-0.08886719","-1.0595703","0.36035156","-213.09375","-91.125","80.5625"
"1537898955893","859","0.055664062","-1.9755859","-0.08984375","-189.46875","-3.96875","120.28125"
"1537898955893","860","0.34765625","-1.1445312","0.0078125","-214.625","-198.90625","1.3125"
"1537898955893","861","0.09277344","-0.6777344","-0.064453125","-186.0","-201.40625","55.09375"
"1537898955893","862","0.0546875","-0.20605469","0.15722656","-144.875","-177.53125","46.75"
"1537898955893","863","0.078125","-0.10546875","-0.029296875","-89.625","-82.75","57.65625"
"1537898956089","864","0.0078125","-0.33691406","0.036132812","-12.65625","-79.8125","8.84375"
"1537898956091","865","-0.041015625","-0.31347656","-0.19335938","57.84375","-8.125","-76.1875"
"1537898956091","866","-0.60839844","-0.50683594","-1.2128906","178.0625","171.34375","-130.875"
"1537898956091","867","-0.051757812","-1.9960938","-0.7089844","-47.21875","-146.28125","36.3125"
"1537898956092","868","-0.84277344","-0.6142578","-0.56933594","-104.9375","-107.96875","38.0"
"1537898956288","869","-0.26660156","-1.6035156","-0.8095703","13.8125","37.375","13.96875"
"1537898956289","870","1.015625","-1.9580078","0.671875","23.59375","-81.40625","-9.28125"
"1537898956289","871","-0.7861328","0.13183594","0.87109375","127.90625","322.8125","-48.40625"
"1537898956291","872","1.1123047","-1.9960938","-0.75097656","147.96875","23.1875","-77.34375"
"1537898956291","873","-0.12011719","-0.60253906","0.46484375","214.875","102.96875","-67.46875"
"1537898956488","874","-0.22851562","-0.66796875","-9.765625E-4","127.28125","76.90625","-56.59375"
"1537898956489","875","0.21679688","-1.1015625","-0.21191406","120.6875","79.84375","-87.59375"
"1537898956489","876","-0.16601562","-0.5751953","0.10546875","36.09375","235.125","-55.4375"
"1537898956489","877","0.48046875","-0.8232422","0.5263672","64.96875","104.5","-40.1875"
"1537898956490","878","0.2607422","-1.1044922","-0.39257812","85.65625","31.5625","-51.84375"
"1537898956687","879","-0.051757812","-0.83496094","0.021484375","64.65625","77.34375","-40.46875"
"1537898956687","880","0.6171875","-1.2636719","0.15625","2.34375","80.09375","-4.90625"
"1537898956687","881","0.09375","-1.4833984","-0.13574219","0.8125","22.65625","-36.5625"
"1537898956688","882","0.26757812","-1.6640625","-0.1796875","-29.25","9.40625","24.15625"
"1537898956688","883","0.59765625","-1.8154297","0.18847656","-173.3125","-23.5","28.3125"
"1537898956887","884","-0.3828125","-0.75683594","0.42773438","-229.15625","-53.03125","99.15625"
"1537898956887","885","0.171875","-1.9960938","0.15820312","-93.59375","-119.5625","133.78125"
"1537898957084","886","0.2763672","-1.3925781","0.26757812","-167.6875","-201.84375","15.0625"
"1537898957086","887","0.07910156","-0.7480469","-0.16503906","-183.875","-197.9375","94.09375"
"1537898957086","888","0.083984375","-0.46875","0.049804688","-145.0","-132.875","63.46875"
"1537898957086","889","0.11621094","-0.26171875","-0.034179688","-112.34375","-57.0","50.28125"
"1537898957087","890","0.12695312","-0.20117188","0.21191406","-61.25","-91.0625","15.96875"
"1537898957087","891","0.005859375","-0.16210938","-0.038085938","43.3125","-78.25","-37.5"
"1537898957087","892","-0.26660156","-0.47265625","-0.6347656","140.59375","56.46875","-112.375"
"1537898957087","893","-0.5546875","-1.9960938","-1.7373047","29.09375","55.5","-10.6875"
"1537898957283","894","-1.0302734","-0.6513672","-0.08105469","-101.28125","-159.53125","41.96875"
"1537898957283","895","-0.48828125","-1.3164062","-0.5644531","-6.3125","35.40625","25.9375"
"1537898957283","896","1.2646484","-1.6943359","0.08691406","-30.375","-120.90625","-1.90625"
"1537898957283","897","-0.5498047","-0.064453125","1.0615234","187.28125","290.90625","-81.25"
"1537898957284","898","0.9921875","-1.9960938","-0.6435547","108.25","13.25","-68.5625"
"1537898957483","899","-0.12011719","-0.6347656","0.22460938","204.375","95.59375","-82.34375"
"1537898957483","900","-0.033203125","-0.9394531","0.18945312","141.09375","118.53125","-59.90625"
"1537898957484","901","-0.0546875","-1.0253906","-0.07324219","59.96875","51.15625","-60.4375"
"1537898957484","902","-0.103515625","-0.5996094","-0.056640625","22.8125","185.0","-53.0625"
"1537898957484","903","0.5234375","-0.9296875","0.7597656","70.34375","110.25","-35.71875"
"1537898957680","904","0.21679688","-1.0351562","-0.375","87.1875","14.71875","-46.46875"
"1537898957681","905","-0.203125","-0.7089844","0.0","61.8125","110.96875","-57.21875"
"1537898957681","906","0.40625","-1.1708984","-0.07910156","23.78125","69.34375","-4.53125"
"1537898957681","907","0.6171875","-1.4746094","-0.044921875","6.125","14.53125","-20.84375"
"1537898957681","908","0.32617188","-1.6835938","-0.13085938","-6.75","-14.09375","-2.9375"
"1537898957880","909","0.37304688","-1.9960938","0.030273438","-161.21875","-19.53125","39.65625"
"1537898957880","910","-0.4580078","-0.56640625","0.43945312","-225.5","-37.78125","81.09375"
"1537898958077","911","-0.08886719","-1.8115234","0.13183594","-59.40625","-84.65625","111.8125"
"1537898958077","912","0.65527344","-1.3066406","-0.20214844","-294.09375","-245.46875","12.25"
"1537898958078","913","0.21191406","-0.9609375","-0.08496094","-211.75","-207.03125","79.9375"
"1537898958079","914","0.171875","-0.45117188","0.15332031","-152.625","-147.21875","59.6875"
"1537898958079","915","0.04296875","-0.09765625","-0.041015625","-122.78125","-74.09375","49.125"
"1537898958079","916","0.09472656","-0.2607422","0.15332031","-64.25","-105.53125","11.8125"
"1537898958080","917","-0.09765625","-0.25390625","-0.099609375","43.0625","-71.78125","-50.90625"
"1537898958081","918","-0.35546875","-0.24511719","-0.86035156","183.125","113.09375","-119.34375"
"1537898958276","919","-0.6386719","-1.9960938","-0.7167969","-2.96875","48.21875","-25.71875"
"1537898958277","920","-0.8769531","-0.75097656","-0.5107422","-95.0","-109.0625","54.96875"
"1537898958277","921","-0.5136719","-0.921875","-0.6464844","-19.3125","51.09375","-14.46875"
"1537898958278","922","1.3261719","-1.9960938","0.2109375","-48.5625","-10.6875","23.78125"
"1537898958279","923","-0.68359375","0.61816406","1.1748047","238.6875","244.625","-89.96875"
"1537898958478","924","0.5605469","-1.6005859","-1.0820312","74.375","-27.46875","-69.28125"
"1537898958479","925","0.31054688","-0.671875","0.7578125","242.15625","153.875","-66.59375"
"1537898958479","926","-0.328125","-0.3984375","-0.21386719","75.71875","12.46875","-50.96875"
"1537898958479","927","0.171875","-1.3046875","-0.15917969","122.96875","111.28125","-75.6875"
"1537898958479","928","-0.20703125","-0.65722656","-0.07421875","11.15625","164.5625","-46.84375"
"1537898958673","929","0.45410156","-0.80078125","0.375","58.5625","103.21875","-40.53125"
"1537898958674","930","0.15429688","-0.8769531","-0.35839844","82.1875","49.375","-54.9375"
"1537898958674","931","0.07324219","-1.0634766","-0.17480469","55.15625","59.09375","-31.75"
"1537898958674","932","0.6660156","-1.2792969","0.2265625","1.4375","61.03125","-3.96875"
"1537898958675","933","0.15234375","-1.3925781","-0.27539062","-2.96875","13.9375","-30.84375"
"1537898958873","934","0.12109375","-1.8320312","-0.12890625","-73.34375","7.40625","53.21875"
"1537898958873","935","-0.24707031","-1.2705078","0.30859375","-251.3125","29.5","75.84375"
"1537898958873","936","-0.13867188","-1.2783203","0.1953125","-199.125","-90.3125","99.84375"
"1537898958875","937","0.4482422","-1.9960938","0.5214844","-163.65625","-184.125","-14.40625"
"1537898958875","938","0.08105469","-1.1269531","0.24609375","-203.46875","-228.5625","62.375"
"1537898959071","939","0.15429688","-0.5488281","0.15039062","-159.4375","-180.09375","47.53125"
"1537898959072","940","0.15234375","-0.14355469","0.11816406","-127.53125","-136.65625","49.96875"
"1537898959072","941","0.06738281","-0.16992188","0.12597656","-96.875","-102.71875","43.75"
"1537898959072","942","-0.044921875","-0.1796875","0.028320312","34.9375","-86.65625","-39.4375"
"1537898959073","943","-0.3955078","0.015625","-0.9423828","199.75","70.75","-121.71875"
"1537898959270","944","-0.8417969","-1.9960938","-0.6767578","11.21875","64.8125","-38.96875"
"1537898959271","945","-0.859375","-0.99609375","-0.3017578","-118.25","-141.71875","76.9375"
"1537898959271","946","-0.76464844","-1.6601562","-1.1269531","-16.5","72.46875","23.3125"
"1537898959271","947","1.6767578","-1.3105469","0.24804688","-70.40625","-211.25","16.59375"
"1537898959272","948","-0.49609375","0.35839844","1.2724609","283.34375","381.0625","-127.59375"
"1537898959470","949","0.8017578","-1.9960938","-0.5449219","106.125","73.375","-38.84375"
"1537898959470","950","-0.39648438","-0.6660156","0.14648438","194.25","62.3125","-65.8125"
"1537898959470","951","0.27734375","-0.69921875","0.12207031","180.8125","81.78125","-56.28125"
"1537898959470","952","0.29785156","-1.1103516","-0.14160156","121.1875","105.28125","-90.28125"
"1537898959470","953","-0.39746094","-0.59765625","-0.08886719","31.84375","149.96875","-45.1875"
"1537898959668","954","0.38671875","-0.8671875","0.5625","61.5625","70.375","-42.9375"
"1537898959668","955","0.08300781","-0.9970703","-0.50683594","74.4375","58.0","-56.46875"
"1537898959669","956","-0.009765625","-0.87890625","-0.08984375","50.21875","47.3125","-30.46875"
"1537898959669","957","0.79785156","-1.2558594","0.24023438","7.3125","86.90625","-2.625"
"1537898959670","958","0.18457031","-1.3720703","-0.2548828","0.34375","-7.0","-16.625"
"1537898959866","959","0.27734375","-1.8701172","-0.2607422","-32.8125","-1.53125","47.21875"
"1537898959866","960","-0.13867188","-1.4453125","0.095703125","-205.21875","-1.75","67.375"
"1537898960066","961","0.08886719","-0.9970703","0.4892578","-201.5625","-143.90625","77.75"
"1537898960067","962","0.21972656","-1.8847656","-0.00390625","-186.375","101.9375","102.46875"
"1537898960067","963","0.3076172","-1.1884766","-0.0546875","-211.03125","-234.0","7.6875"
"1537898960067","964","0.06738281","-0.6972656","0.03125","-182.9375","-213.5625","45.75"
"1537898960067","965","0.12695312","-0.28710938","0.08984375","-148.34375","-147.5","33.96875"
"1537898960068","966","0.099609375","-0.11328125","0.15429688","-65.34375","-108.4375","26.59375"
"1537898960068","967","0.078125","-0.28320312","9.765625E-4","-28.71875","-74.21875","-11.71875"
"1537898960265","968","-0.3515625","-0.35742188","-0.3623047","47.03125","43.65625","-65.09375"
"1537898960266","969","-0.5888672","-0.75097656","-0.91015625","85.84375","145.9375","-91.03125"
"1537898960266","970","-0.08203125","-1.9960938","-1.3515625","-4.46875","-81.59375","24.71875"
"1537898960266","971","-0.63671875","-0.5449219","-0.84277344","-90.1875","-106.125","6.75"
"1537898960266","972","-0.061523438","-1.7509766","-0.5800781","59.96875","-48.03125","-2.625"
"1537898960465","973","0.63964844","-1.4833984","1.1210938","6.1875","-99.46875","-39.8125"
"1537898960465","974","-0.7236328","0.30566406","0.4248047","76.5625","311.09375","2.375"
"1537898960465","975","1.5009766","-1.9960938","-0.6298828","168.1875","31.5625","-100.84375"
"1537898960465","976","-0.30078125","-0.8027344","0.27929688","198.53125","117.125","-36.09375"
"1537898960465","977","-0.33007812","-0.51660156","-0.24609375","120.40625","46.625","-59.71875"
"1537898960661","978","0.2919922","-1.2695312","-0.609375","130.78125","93.03125","-87.53125"
"1537898960662","979","-0.19042969","-0.58496094","0.036132812","34.34375","206.0","-49.03125"
"1537898960664","980","0.45410156","-0.9033203","0.4091797","53.625","104.625","-28.34375"
"1537898960665","981","0.171875","-1.0400391","-0.28222656","83.53125","26.0625","-44.5"
"1537898960665","982","-0.0078125","-1.0585938","-0.16113281","59.96875","78.25","-28.53125"
"1537898960862","983","0.5908203","-1.25","0.29882812","-6.125","82.28125","0.0"
"1537898960862","984","0.13769531","-1.3046875","-0.27734375","-14.3125","41.625","-19.0625"
"1537898960862","985","0.34472656","-1.8457031","-0.111328125","-63.6875","27.15625","45.40625"
"1537898960862","986","-0.15722656","-1.2373047","0.14648438","-225.84375","-23.625","58.8125"
"1537898960863","987","-0.17285156","-1.0458984","0.17089844","-205.28125","-126.28125","86.78125"
"1537898961059","988","0.2763672","-1.9960938","0.20703125","-158.40625","-16.15625","91.59375"
"1537898961059","989","0.36132812","-1.0986328","-0.049804688","-197.53125","-209.90625","35.8125"
"1537898961060","990","0.13964844","-0.64746094","0.044921875","-165.1875","-184.375","50.28125"
"1537898961061","991","0.052734375","-0.12109375","0.083984375","-129.65625","-144.9375","45.21875"
"1537898961061","992","0.060546875","-0.018554688","-0.013671875","-79.3125","-87.34375","33.25"
"1537898961259","993","0.041015625","-0.21289062","0.103515625","44.03125","-96.5625","-22.0625"
"1537898961259","994","-0.21582031","-0.35546875","-0.07324219","129.6875","-31.5625","-87.0625"
"1537898961259","995","-0.91015625","-1.1494141","-1.2431641","149.21875","107.78125","-93.53125"
"1537898961259","996","-0.17285156","-1.9960938","-0.12695312","50.75","-97.59375","75.125"
"1537898961260","997","-1.1875","0.0703125","-0.24121094","-177.8125","-87.9375","13.15625"
"1537898961456","998","0.27441406","-1.7294922","-0.70410156","68.15625","106.75","37.03125"
"1537898961457","999","0.7060547","-1.0957031","0.32226562","126.6875","-109.5625","-109.375"
"1537898961457","1000","-0.5917969","-0.2998047","0.36621094","78.21875","236.625","-44.875"
"1537898961458","1001","1.3779297","-1.9960938","0.203125","187.53125","169.5625","-87.34375"
"1537898961458","1002","-0.24316406","-0.6152344","0.0390625","187.28125","70.5","-64.65625"
"1537898961655","1003","0.17871094","-0.9794922","0.6123047","162.875","9.90625","-41.65625"
"1537898961656","1004","-0.018554688","-0.9140625","-0.25585938","148.71875","126.84375","-89.84375"
"1537898961656","1005","0.0078125","-0.81347656","-0.047851562","34.6875","162.84375","-39.875"
"1537898961657","1006","0.38867188","-0.8652344","0.35546875","49.59375","46.75","-37.4375"
"1537898961657","1007","0.1875","-1.1875","-0.4794922","67.34375","43.28125","-59.78125"
"1537898961853","1008","-0.1640625","-0.7832031","0.3359375","48.0625","60.75","-40.65625"
"1537898961854","1009","0.7265625","-1.3632812","0.13867188","10.28125","86.625","5.96875"
"1537898961854","1010","0.234375","-1.2773438","-0.11621094","2.34375","1.21875","-24.6875"
"1537898961854","1011","0.41210938","-1.7021484","0.091796875","-60.9375","20.46875","23.1875"
"1537898961856","1012","-0.36132812","-1.2167969","0.18652344","-188.6875","9.71875","40.375"
"1537898962054","1013","-0.076171875","-1.1230469","0.119140625","-194.0625","-77.625","100.3125"
"1537898962054","1014","0.10644531","-1.9697266","-0.0146484375","-181.25","27.65625","90.125"
"1537898962054","1015","0.3466797","-0.99316406","-0.25195312","-218.59375","-245.125","6.34375"
"1537898962055","1016","0.07519531","-0.75","0.07519531","-173.25","-212.28125","49.71875"
"1537898962055","1017","0.045898438","-0.21582031","0.052734375","-142.71875","-167.0","34.03125"
"1537898962253","1018","0.033203125","-0.1953125","0.047851562","-65.15625","-114.375","28.96875"
"1537898962254","1019","0.022460938","-0.36816406","-0.033203125","-17.59375","-86.78125","-5.09375"
"1537898962254","1020","-0.14355469","-0.29785156","-0.28125","56.0625","23.25","-62.09375"
"1537898962255","1021","-0.4736328","-0.7246094","-0.9511719","98.78125","128.65625","-92.90625"
"1537898962255","1022","-0.4814453","-1.9960938","-0.4873047","22.6875","-71.78125","43.9375"
"1537898962450","1023","-0.6611328","-1.1035156","-0.9404297","-48.78125","-55.84375","10.1875"
"1537898962649","1024","-0.49023438","-0.2607422","-0.3828125","-23.9375","8.0","-44.6875"
"1537898962649","1025","0.3251953","-1.9960938","-0.49316406","73.21875","42.4375","-17.15625"
"1537898962650","1026","-0.55859375","0.041015625","0.8623047","111.53125","48.09375","-70.5625"
"1537898962650","1027","0.3876953","-0.7441406","-0.93652344","13.15625","31.875","-60.6875"
"1537898962651","1028","0.7373047","-0.78027344","0.6982422","236.375","241.9375","-95.0625"
"1537898962651","1029","-0.30859375","-0.68847656","-0.07128906","106.46875","19.53125","-37.25"
"1537898962651","1030","0.20410156","-1.1611328","0.13574219","89.28125","66.21875","-66.78125"
"1537898962653","1031","-0.087890625","-0.875","-0.26464844","-16.9375","143.0","-53.25"
"1537898962653","1032","0.28710938","-0.8388672","0.41601562","45.0625","136.90625","-45.59375"
"1537898962848","1033","0.4296875","-0.85058594","-0.001953125","64.59375","52.25","-37.75"
"1537898962848","1034","-0.15136719","-0.75390625","-0.08300781","90.71875","66.09375","-57.4375"
"1537898962848","1035","0.1953125","-1.2519531","-0.2548828","53.625","66.96875","-6.96875"
"1537898962849","1036","0.54785156","-1.5634766","0.034179688","10.59375","33.09375","-16.5625"
"1537898962849","1037","0.25","-1.1396484","-0.25683594","-18.09375","27.53125","-7.65625"
"1537898963048","1038","0.38964844","-1.6787109","0.11328125","-156.53125","19.53125","66.75"
"1537898963049","1039","-0.15527344","-0.9970703","0.39648438","-243.75","-25.75","71.03125"
"1537898963049","1040","-0.07519531","-1.8320312","0.015625","-156.53125","-53.875","122.0"
"1537898963245","1041","0.7128906","-1.9960938","0.65625","-199.1875","-291.625","-40.1875"
"1537898963245","1042","0.068359375","-1.1904297","0.2265625","-225.6875","-197.1875","64.0"
"1537898963246","1043","0.08105469","-0.4580078","0.26953125","-158.78125","-172.90625","34.46875"
"1537898963246","1044","0.12792969","0.041015625","-0.07128906","-112.40625","-132.125","44.34375"
"1537898963247","1045","0.005859375","-0.13964844","0.09667969","-27.0","-107.15625","28.25"
"1537898963248","1046","0.041015625","-0.21972656","-0.03125","53.5","-49.3125","-37.3125"
"1537898963248","1047","-0.20019531","-0.5498047","-0.5625","110.875","59.75","-99.5625"
"1537898963444","1048","-0.7011719","-1.8427734","-1.1132812","26.84375","126.15625","-2.9375"
"1537898963444","1049","-0.4736328","-1.2529297","-0.6298828","-7.03125","-175.28125","28.0"
"1537898963444","1050","-0.9814453","-0.9501953","-0.37695312","-17.78125","22.71875","-12.15625"
"1537898963444","1051","0.5488281","-1.9824219","-0.31835938","-159.03125","-68.84375","79.40625"
"1537898963445","1052","-0.24902344","1.0078125","0.8417969","152.0","136.78125","-113.0"
"1537898963643","1053","0.7597656","-1.9960938","-1.3066406","-19.0","-68.21875","-13.25"
"1537898963643","1054","0.3095703","-0.74316406","0.3359375","277.4375","131.40625","-114.15625"
"1537898963643","1055","-0.6982422","-0.578125","-0.4091797","101.34375","9.59375","-63.8125"
"1537898963643","1056","0.37304688","-1.1523438","0.78222656","187.34375","58.125","-50.25"
"1537898963644","1057","9.765625E-4","-0.6855469","-0.20996094","95.75","122.25","-85.15625"
"1537898963841","1058","0.17285156","-0.7080078","0.22265625","61.0","208.5625","-39.875"
"1537898963841","1059","0.15625","-0.8203125","0.23828125","64.375","52.0","-33.21875"
"1537898964042","1060","0.09863281","-1.0683594","-0.60839844","88.84375","55.0","-50.0"
"1537898964043","1061","0.08300781","-1.0673828","-0.16992188","23.84375","60.8125","-22.0"
"1537898964043","1062","0.5751953","-1.2871094","0.27148438","-0.21875","27.84375","-16.25"
"1537898964043","1063","-0.046875","-1.2275391","-0.25976562","-9.78125","15.75","-23.9375"
"1537898964043","1064","0.234375","-1.8544922","-0.06542969","-57.53125","29.3125","54.625"
"1537898964043","1065","-0.055664062","-1.2285156","0.1015625","-222.6875","-19.46875","74.75"
"1537898964044","1066","0.16796875","-1.1982422","0.048828125","-201.625","-144.34375","94.28125"
"1537898964045","1067","0.27734375","-1.9960938","1.1357422","-110.75","-73.25","40.875"
"1537898964239","1068","0.11035156","-1.3125","0.26464844","-177.8125","-228.9375","45.9375"
"1537898964240","1069","0.1171875","-0.64453125","-0.01953125","-162.0625","-186.53125","43.5"
"1537898964240","1070","0.07128906","-0.15039062","0.015625","-134.96875","-141.78125","41.625"
"1537898964240","1071","0.0546875","-0.1796875","0.099609375","-82.59375","-76.78125","46.5625"
"1537898964240","1072","-0.01953125","-0.3779297","0.024414062","13.03125","-92.53125","-12.46875"
"1537898964438","1073","-0.34375","-0.25097656","-0.47070312","100.375","35.65625","-73.125"
"1537898964439","1074","-0.41796875","-0.82128906","-0.6660156","130.71875","156.875","-108.53125"
"1537898964439","1075","-0.13183594","-1.9960938","-0.9892578","55.21875","-61.15625","36.46875"
"1537898964439","1076","-0.7080078","-0.5439453","-0.65625","-83.53125","-103.5","9.125"
"1537898964439","1077","-0.051757812","-1.9296875","-0.54296875","29.03125","36.8125","9.5"
"1537898964636","1078","0.5751953","-0.8066406","0.60058594","72.3125","-128.71875","-83.03125"
"1537898964637","1079","-0.4091797","-0.390625","0.18652344","82.6875","252.15625","-20.09375"
"1537898964638","1080","1.1611328","-1.8193359","0.13085938","201.03125","137.65625","-96.9375"
"1537898964638","1081","-0.15722656","-0.65722656","0.3203125","159.15625","47.75","-52.3125"
"1537898964639","1082","0.032226562","-1.0380859","0.030273438","144.75","12.875","-37.25"
"1537898964836","1083","-0.048828125","-0.796875","0.064453125","121.5","118.40625","-82.78125"
"1537898964836","1084","0.029296875","-0.9160156","0.16796875","40.9375","166.8125","-32.125"
"1537898965036","1085","0.41015625","-0.7705078","0.12792969","42.5625","54.21875","-35.78125"
"1537898965036","1086","0.17578125","-0.953125","-0.37695312","71.5625","45.40625","-48.40625"
"1537898965037","1087","-0.0107421875","-0.95214844","0.036132812","51.65625","28.8125","-21.9375"
"1537898965037","1088","0.6308594","-1.3496094","0.21191406","5.59375","43.78125","2.3125"
"1537898965037","1089","-0.087890625","-1.2626953","-0.27148438","-0.8125","22.78125","-22.78125"
"1537898965037","1090","0.4892578","-1.7431641","-0.103515625","-83.09375","23.375","52.96875"
"1537898965037","1091","-0.20019531","-1.1044922","0.49023438","-195.71875","-28.0","41.125"
"1537898965037","1092","-0.11816406","-1.0976562","-0.29003906","-188.5625","-205.4375","116.1875"
"1537898965232","1093","0.4814453","-1.9960938","1.1738281","-74.5625","11.71875","59.625"
"1537898965233","1094","0.4736328","-1.1640625","0.13378906","-185.875","-230.09375","19.03125"
"1537898965233","1095","0.09667969","-0.6796875","0.08203125","-150.84375","-174.84375","36.375"
"1537898965234","1096","0.032226562","-0.27246094","0.00390625","-122.21875","-127.1875","31.96875"
"1537898965434","1097","-0.013671875","-0.1953125","0.09277344","-74.375","-86.53125","14.8125"
"1537898965434","1098","0.044921875","-0.26660156","0.087890625","-15.28125","-90.5","-19.96875"
"1537898965435","1099","-0.24023438","-0.26171875","-0.2763672","64.71875","16.59375","-55.0625"
"1537898965435","1100","-0.44140625","-0.9160156","-0.7783203","117.03125","143.875","-97.0"
"1537898965435","1101","-0.26757812","-1.9960938","-1.1386719","17.5","-17.21875","10.3125"
"1537898965630","1102","-0.4921875","-0.4482422","-0.9814453","-62.40625","-108.28125","29.40625"
"1537898965630","1103","-0.09472656","-1.9960938","-0.23535156","59.90625","50.59375","-32.96875"
"1537898965831","1104","0.375","-0.61328125","0.74902344","-103.0","-113.03125","-9.28125"
"1537898965831","1105","-0.68359375","0.40625","0.6894531","201.3125","325.09375","-47.3125"
"1537898965831","1106","0.6894531","-1.9960938","-0.51660156","112.8125","43.46875","-33.15625"
"1537898965832","1107","0.13476562","-0.3173828","0.41992188","229.84375","177.5625","-58.65625"
"1537898965833","1108","-0.23925781","-0.7109375","-0.06640625","92.1875","-8.90625","-67.8125"
"1537898965833","1109","0.32128906","-0.9824219","-0.08203125","151.15625","175.84375","-65.6875"
"1537898965833","1110","-0.12890625","-0.71875","-0.07324219","24.15625","148.25","-33.71875"
"1537898965834","1111","0.41601562","-0.8232422","0.3876953","52.15625","103.21875","-38.65625"
"1537898966027","1112","0.0859375","-0.8769531","-0.40039062","64.4375","23.125","-50.5625"
"1537898966028","1113","0.14746094","-1.1142578","-0.13867188","47.53125","82.40625","-24.0625"
"1537898966029","1114","0.5019531","-1.2851562","0.2890625","6.0","50.46875","-3.3125"
"1537898966029","1115","0.31152344","-1.3222656","-0.21875","-11.3125","34.4375","-11.25"
"1537898966030","1116","0.41210938","-1.7890625","-0.0146484375","-93.15625","-16.84375","48.625"
"1537898966226","1117","-0.38183594","-1.0654297","0.38964844","-209.4375","-43.5","46.96875"
"1537898966226","1118","-0.21875","-1.3769531","0.064453125","-156.34375","-58.53125","112.65625"
"1537898966227","1119","0.9189453","-1.9960938","0.82128906","-239.15625","-236.9375","-53.375"
"1537898966228","1120","0.11328125","-1.0664062","0.125","-201.5625","-230.9375","81.78125"
"1537898966228","1121","0.057617188","-0.5732422","0.10546875","-148.9375","-193.0625","66.6875"
"1537898966427","1122","0.048828125","-0.14746094","-0.032226562","-117.875","-121.5","67.1875"
"1537898966427","1123","9.765625E-4","-0.2763672","0.09863281","-48.0","-79.78125","49.65625"
"1537898966427","1124","-0.0390625","-0.25390625","-0.14160156","35.3125","-39.71875","-16.1875"
"1537898966427","1125","-0.4140625","-0.26757812","-0.6064453","152.6875","83.5625","-80.9375"
"1537898966428","1126","-0.78222656","-1.4794922","-0.609375","62.59375","96.0","-76.0625"
"1537898966624","1127","-0.2763672","-1.7382812","-0.7207031","-35.96875","-129.4375","70.3125"
"1537898966625","1128","-0.875","-0.06542969","-0.6220703","-73.15625","-19.53125","-31.875"
"1537898966625","1129","-0.036132812","-1.9960938","-0.7246094","-62.96875","7.875","54.0625"
"1537898966626","1130","-0.27929688","0.27246094","0.47070312","94.28125","83.5","-56.53125"
"1537898966626","1131","1.0341797","-1.1728516","-0.9794922","23.53125","-40.46875","-80.875"
"1537898966823","1132","0.30078125","-0.98828125","0.54785156","295.75","187.8125","-90.59375"
"1537898967023","1133","-0.7861328","-0.47558594","-0.28222656","166.71875","0.125","-71.375"
"1537898967220","1134","0.13769531","-0.92871094","0.56152344","127.0625","14.84375","-45.0625"
"1537898967220","1135","0.078125","-0.72753906","-0.2529297","144.75","189.71875","-101.9375"
"1537898967221","1136","0.17382812","-0.80371094","0.38671875","72.71875","200.5","-52.3125"
"1537898967221","1137","0.27441406","-0.828125","0.047851562","83.71875","12.34375","-35.40625"
"1537898967222","1138","0.049804688","-0.92578125","-0.45214844","75.21875","74.03125","-62.34375"
"1537898967222","1139","0.0078125","-1.0878906","-0.14160156","31.15625","64.875","-22.84375"
"1537898967223","1140","0.73828125","-1.3847656","0.34765625","4.5","41.625","-18.75"
"1537898967224","1141","0.024414062","-1.2216797","-0.17382812","-15.78125","13.125","-10.625"
"1537898967224","1142","0.4375","-1.7470703","0.10546875","-137.1875","15.4375","64.4375"
"1537898967419","1143","0.10058594","-0.4765625","0.11621094","-148.34375","-152.53125","61.5625"
"1537898967420","1144","0.09277344","-0.20019531","-0.043945312","-107.75","-82.5","45.625"
"1537898967420","1145","0.103515625","-0.20019531","0.22949219","-62.53125","-85.6875","21.78125"
"1537898967420","1146","0.01953125","-0.21582031","-0.076171875","44.84375","-79.09375","-38.40625"
"1537898967420","1147","-0.27441406","-0.57421875","-0.5654297","154.875","87.46875","-105.59375"
"1537898967617","1148","-0.8574219","-1.9960938","-0.99902344","7.25","41.3125","-56.78125"
"1537898967618","1149","-0.57910156","-0.8828125","-0.6347656","-86.5","-163.5625","56.5625"
"1537898967618","1150","-0.6611328","-0.4638672","-0.47265625","-16.125","48.09375","-51.84375"
"1537898967618","1151","0.7050781","-1.9960938","-0.6904297","-67.28125","-59.5625","52.65625"
"1537898967619","1152","-0.7314453","0.44433594","1.0146484","143.53125","159.8125","-68.0"
"1537898967816","1153","0.703125","-1.2578125","-1.3632812","87.1875","-72.1875","-82.59375"
"1537898967816","1154","0.4189453","-0.7236328","0.88378906","245.875","219.125","-85.9375"
"1537898967817","1155","-0.4140625","-0.5","-0.265625","72.53125","-27.28125","-54.40625"
"1537898967817","1156","0.01171875","-1.0791016","-0.13378906","98.53125","81.375","-69.78125"
"1537898967818","1157","-0.07714844","-0.82714844","-0.11621094","-9.78125","201.65625","-50.375"
"1537898968017","1158","0.20117188","-0.7421875","0.40820312","48.9375","94.5","-44.5"
"1537898968017","1159","0.32910156","-0.9794922","-0.33789062","82.8125","41.875","-43.84375"
"1537898968017","1160","0.052734375","-0.71972656","0.10839844","71.375","82.03125","-45.71875"
"1537898968017","1161","0.42382812","-1.3271484","-0.018554688","28.90625","69.59375","-1.25"
"1537898968019","1162","0.31054688","-1.5390625","-0.16113281","1.1875","21.5625","-24.4375"
"1537898968214","1163","0.3857422","-1.7392578","-0.14453125","-25.40625","10.03125","19.21875"
"1537898968215","1164","0.21191406","-1.6708984","0.0234375","-209.6875","8.5625","47.03125"
"1537898968215","1165","-0.20703125","-0.9785156","0.5263672","-230.3125","-60.40625","90.375"
"1537898968215","1166","0.109375","-1.7587891","0.28320312","-170.1875","-100.625","135.1875"
"1537898968216","1167","0.36523438","-1.2001953","-0.13183594","-234.78125","-176.8125","25.75"
"1537898968413","1168","0.22265625","-0.7001953","-0.0029296875","-202.53125","-204.40625","57.125"
"1537898968413","1169","0.044921875","-0.1796875","0.15039062","-144.125","-157.03125","45.21875"
"1537898968413","1170","0.033203125","-0.051757812","-0.049804688","-90.59375","-90.25","47.03125"
"1537898968414","1171","-0.029296875","-0.26464844","0.06640625","6.8125","-94.90625","3.03125"
"1537898968414","1172","-0.14941406","-0.3076172","-0.21191406","83.34375","15.21875","-58.84375"
"1537898968611","1173","-0.5048828","-0.8457031","-0.9033203","125.9375","162.375","-97.65625"
"1537898968612","1174","-0.19921875","-1.9960938","-0.8222656","-8.75","-42.96875","42.84375"
"1537898968612","1175","-0.7207031","-0.67089844","-0.734375","-88.03125","-118.875","11.03125"
"1537898968612","1176","-0.24511719","-1.9960938","-0.875","3.40625","29.96875","18.53125"
"1537898968613","1177","0.7060547","-0.69921875","0.63378906","-51.96875","-141.53125","-57.3125"
"1537898968810","1178","-0.98339844","0.5673828","0.90234375","236.53125","404.65625","-43.59375"
"1537898968810","1179","1.3339844","-1.9960938","-0.83984375","60.40625","4.59375","-41.09375"
"1537898968811","1180","-0.17285156","-0.33789062","0.38671875","219.15625","64.21875","-49.34375"
"1537898968811","1181","-0.3154297","-0.6513672","0.040039062","119.71875","35.78125","-54.21875"
"1537898968811","1182","0.2998047","-1.2050781","-0.06347656","149.8125","101.6875","-66.1875"
"1537898969011","1183","-0.08105469","-0.7089844","-0.041015625","0.15625","134.46875","-38.96875"
"1537898969011","1184","0.3876953","-0.86035156","0.11816406","57.90625","88.25","-41.34375"
"1537898969011","1185","0.265625","-1.0908203","0.07519531","65.09375","22.46875","-47.375"
"1537898969011","1186","-0.3154297","-0.7128906","0.15625","66.9375","82.34375","-50.3125"
"1537898969011","1187","0.32226562","-1.1738281","0.0234375","13.21875","96.9375","7.4375"
"1537898969207","1188","0.51660156","-1.5078125","-0.28710938","-0.5625","20.625","-30.03125"
"1537898969208","1189","0.17089844","-1.8164062","-0.35253906","-52.46875","4.15625","27.4375"
"1537898969208","1190","0.33007812","-1.6015625","0.26953125","-214.4375","25.6875","62.84375"
"1537898969209","1191","-0.07910156","-1.0839844","0.1953125","-200.21875","-127.25","90.0625"
"1537898969209","1192","-0.09472656","-1.8896484","-0.068359375","-187.65625","29.5625","112.34375"
"1537898969409","1193","0.74316406","-1.015625","-0.20703125","-215.59375","-222.59375","10.125"
"1537898969409","1194","0.11328125","-0.703125","0.09765625","-162.9375","-198.78125","43.6875"
"1537898969409","1195","0.060546875","-0.115234375","0.083984375","-131.625","-165.65625","39.71875"
"1537898969409","1196","0.12988281","-0.08105469","0.08105469","-73.34375","-86.1875","43.25"
"1537898969409","1197","0.08496094","-0.27148438","0.0087890625","9.0","-77.09375","-0.6875"
"1537898969605","1198","-0.20703125","-0.37304688","-0.22363281","111.59375","46.9375","-62.46875"
"1537898969605","1199","-0.58203125","-1.0253906","-1.09375","117.84375","146.75","-111.15625"
"1537898969605","1200","0.25976562","-1.9960938","-0.6796875","-46.84375","-129.09375","52.65625"
"1537898969606","1201","-0.84765625","-0.3828125","-0.8330078","-111.84375","-75.4375","11.75"
"1537898969606","1202","-0.0625","-1.3964844","-0.79785156","48.96875","16.125","-14.96875"
"1537898969804","1203","0.76953125","-1.9960938","0.6611328","66.0","-47.78125","-42.5"
"1537898969804","1204","-0.70214844","0.21289062","0.69433594","105.25","248.84375","-39.6875"
"1537898969805","1205","0.85058594","-1.9863281","-0.5957031","165.3125","36.4375","-84.5625"
"1537898969805","1206","0.072265625","-0.54003906","0.5546875","213.09375","146.4375","-50.0"
"1537898969805","1207","-0.33496094","-0.5029297","-0.15429688","85.71875","25.15625","-51.84375"
"1537898970005","1208","0.20703125","-1.1621094","-0.099609375","141.8125","133.5625","-76.5625"
"1537898970005","1209","-0.1015625","-0.53515625","-0.04296875","4.71875","154.5","-51.71875"
"1537898970005","1210","0.4404297","-0.9121094","0.453125","54.59375","97.40625","-36.21875"
"1537898970005","1211","0.28808594","-1.0244141","-0.3076172","70.21875","48.65625","-46.34375"
"1537898970005","1212","0.009765625","-0.77246094","0.09082031","61.1875","51.8125","-45.125"
"1537898970201","1213","0.45898438","-1.3671875","0.047851562","0.9375","72.46875","6.875"
"1537898970202","1214","0.08105469","-1.4833984","-0.2265625","-10.21875","16.59375","-26.5625"
"1537898970202","1215","0.107421875","-1.6679688","-0.2890625","-48.0","26.4375","44.0625"
"1537898970203","1216","0.2626953","-1.5371094","0.21484375","-237.8125","-9.6875","77.3125"
"1537898970399","1217","0.041015625","-0.9658203","0.12597656","-218.28125","-147.75","89.46875"
"1537898970400","1218","0.16992188","-1.9960938","-0.013671875","-182.21875","17.09375","130.71875"
"1537898970402","1219","0.49804688","-1.2324219","0.09277344","-182.03125","-229.78125","12.4375"
"1537898970402","1220","0.16210938","-0.6230469","0.028320312","-162.75","-207.6875","44.0625"
"1537898970402","1221","0.01171875","-0.19824219","0.119140625","-134.3125","-150.09375","42.84375"
"1537898970598","1222","0.06542969","-0.041015625","-0.06640625","-94.375","-67.5","38.875"
"1537898970598","1223","0.059570312","-0.2763672","0.119140625","16.5","-93.375","-12.09375"
"1537898970599","1224","-0.25878906","-0.34277344","-0.22167969","91.40625","-24.21875","-79.84375"
"1537898970600","1225","-0.58691406","-0.8691406","-1.015625","151.21875","153.8125","-114.28125"
"1537898970600","1226","-0.19628906","-1.9960938","-0.578125","-27.8125","-97.28125","39.90625"
"1537898970799","1227","-0.7236328","-0.66015625","-0.7138672","-92.75","-132.5","32.5625"
"1537898970799","1228","-0.46679688","-1.9960938","-1.03125","-22.0","44.625","39.15625"
"1537898970800","1229","0.79785156","-0.8154297","0.8457031","29.5625","-146.34375","-72.90625"
"1537898970800","1230","-0.7285156","-0.23144531","0.55371094","159.34375","427.4375","-18.21875"
"1537898970800","1231","1.6826172","-1.9960938","0.20898438","218.90625","142.59375","-131.125"
"1537898971000","1232","-0.45703125","-0.70410156","0.0107421875","197.0625","66.46875","-63.3125"
"1537898971000","1233","0.18457031","-0.9111328","0.53515625","176.1875","88.5","-47.1875"
"1537898971001","1234","-0.056640625","-0.9033203","-0.4658203","116.84375","101.875","-95.21875"
"1537898971001","1235","-0.11035156","-0.71777344","-0.18261719","45.6875","176.46875","-40.375"
"1537898971001","1236","0.43164062","-0.7548828","0.5878906","53.3125","135.8125","-42.6875"
"1537898971195","1237","0.265625","-0.9658203","-0.24707031","64.25","18.9375","-24.4375"
"1537898971195","1238","-0.029296875","-0.92871094","-0.13378906","64.78125","52.75","-35.15625"
"1537898971195","1239","0.2626953","-1.2392578","0.046875","13.71875","70.8125","-5.6875"
"1537898971196","1240","0.60058594","-1.4111328","-0.07714844","-11.0","19.1875","-11.1875"
"1537898971196","1241","0.4140625","-1.6513672","-0.032226562","-67.96875","-25.5625","15.65625"
"1537898971394","1242","-0.4873047","-1.2734375","-0.10839844","-203.6875","-29.59375","56.6875"
"1537898971394","1243","0.030273438","-1.4550781","0.125","-221.34375","-113.09375","104.53125"
"1537898971394","1244","0.69140625","-1.9960938","2.149414","-11.6875","19.0","18.84375"
"1537898971395","1245","0.19824219","-1.2841797","-0.083984375","-219.3125","-154.71875","38.25"
"1537898971396","1246","0.08105469","-0.6923828","0.01171875","-175.875","-214.28125","44.40625"
"1537898971592","1247","0.1015625","-0.072265625","0.087890625","-133.5625","-186.6875","23.0625"
"1537898971592","1248","0.026367188","-0.080078125","0.048828125","-72.15625","-127.125","31.0625"
"1537898971793","1249","-0.0625","-0.40039062","0.15722656","9.90625","-104.65625","-6.125"
"1537898971793","1250","-0.2109375","-0.30566406","-0.26757812","94.6875","12.21875","-63.90625"
"1537898971992","1251","-0.49316406","-0.68359375","-1.0429688","199.375","177.5625","-111.46875"
"1537898971992","1252","0.00390625","-1.9960938","-0.5996094","-43.65625","-59.5","44.25"
"1537898971993","1253","-0.8652344","-0.44335938","-0.609375","-104.8125","-82.6875","29.28125"
"1537898971993","1254","-0.2685547","-1.9472656","-0.84765625","24.8125","38.875","8.65625"
"1537898971994","1255","0.83203125","-1.1044922","0.66503906","4.71875","-143.71875","-59.28125"
"1537898971995","1256","-0.9296875","0.021484375","0.7529297","197.65625","432.75","-39.9375"
"1537898971995","1257","0.9736328","-1.9960938","-0.4482422","110.9375","68.84375","-64.90625"
"1537898971995","1258","-0.2861328","-0.625","0.2763672","219.03125","96.5","-56.15625"
"1537898971995","1259","0.055664062","-0.90234375","0.203125","147.25","46.34375","-50.625"
"1537898972188","1260","0.33203125","-0.78125","0.40625","46.375","111.03125","-40.40625"
"1537898972189","1261","0.2783203","-1.0332031","-0.08105469","70.21875","43.71875","-34.375"
"1537898972189","1262","0.07910156","-0.80371094","-0.15429688","61.75","55.25","-40.90625"
"1537898972189","1263","0.3828125","-1.3056641","0.047851562","4.375","68.0","-4.21875"
"1537898972190","1264","0.13964844","-1.5341797","-0.31640625","-14.5625","14.84375","-22.125"
"1537898972387","1265","0.26171875","-1.9375","-0.32617188","-73.8125","11.71875","59.90625"
"1537898972388","1266","-0.016601562","-1.3945312","0.30566406","-228.25","-37.78125","75.65625"
"1537898972388","1267","-0.07421875","-1.4628906","-0.017578125","-189.71875","-102.84375","96.78125"
"1537898972388","1268","0.53027344","-1.9960938","1.8164062","-42.8125","-191.75","45.625"
"1537898972389","1269","0.32714844","-1.2197266","0.33984375","-187.21875","-233.40625","17.8125"
"1537898972587","1270","-0.03125","-0.6542969","0.15527344","-177.59375","-197.3125","42.84375"
"1537898972587","1271","0.140625","-0.18945312","-0.00390625","-126.375","-160.03125","48.1875"
"1537898972588","1272","0.091796875","-0.1875","0.080078125","-53.0625","-91.78125","51.0625"
