"# PDIoT walking data"
"# Start time: 20181002T135044"
"# Group: F"
"# Subject: Natasa"
"# Activity type: Descending stairs"
"# Sensor position: Upper arm"
"# Side of body: Right"
"# Sensor mounting: Body"
"# Number of steps: 30"
"# Notes: "
""
"timestamp","seq","accel_x","accel_y","accel_z","gyro_x","gyro_y","gyro_z"
"1538484645280","0","1.0214844","0.25","-0.13085938","-15.65625","-5.0625","2.5"
"1538484645281","1","0.9482422","0.22753906","-0.15234375","-8.3125","4.28125","-4.5625"
"1538484645281","2","0.8964844","0.18066406","-0.14160156","3.625","9.46875","-12.09375"
"1538484645281","3","0.99316406","0.20214844","-0.1484375","7.125","6.65625","-13.65625"
"1538484645284","4","1.0224609","0.17773438","-0.20214844","12.5625","3.0","-7.9375"
"1538484645285","5","1.0751953","0.16210938","-0.24609375","16.15625","5.4375","-12.15625"
"1538484645285","6","0.91503906","0.043945312","-0.2705078","25.96875","14.40625","-17.5"
"1538484645286","7","0.9042969","0.001953125","-0.23144531","12.84375","7.59375","-16.40625"
"1538484645286","8","0.94140625","0.064453125","-0.20605469","-1.25","-1.625","-9.53125"
"1538484645679","9","0.98535156","0.115234375","-0.2109375","1.625","-1.09375","-4.375"
"1538484645679","10","0.96484375","0.064453125","-0.20507812","-8.625","1.78125","-3.21875"
"1538484645877","11","0.92578125","0.087890625","-0.1796875","-20.65625","4.71875","-4.9375"
"1538484645877","12","0.9658203","0.13671875","-0.123046875","-18.15625","4.65625","-4.09375"
"1538484646074","13","1.0244141","0.095703125","-0.13378906","-12.125","-5.46875","-5.625"
"1538484646081","14","1.0615234","0.16015625","-0.123046875","-22.3125","1.0625","-14.46875"
"1538484646081","15","1.0527344","0.24316406","-0.17089844","-17.96875","-1.875","-19.09375"
"1538484646081","16","0.9765625","0.15429688","-0.15039062","-5.59375","-3.34375","-16.46875"
"1538484646082","17","0.87890625","0.12402344","-0.07519531","-14.0","-0.96875","-18.0625"
"1538484646082","18","0.9248047","0.24511719","-0.12597656","3.75","-14.75","-16.0625"
"1538484646082","19","0.86621094","0.25683594","-0.11816406","8.09375","-13.125","-15.5"
"1538484646082","20","1.0869141","0.21582031","-0.22558594","56.625","-30.125","10.4375"
"1538484646083","21","1.0263672","0.31347656","-0.22753906","54.40625","-19.75","17.40625"
"1538484646472","22","0.40625","-0.36132812","-0.18554688","58.5625","21.0625","-9.46875"
"1538484646474","23","1.0371094","-0.171875","-0.2685547","-11.25","15.03125","-14.46875"
"1538484646474","24","1.5888672","0.0029296875","-0.41992188","-52.75","9.03125","-8.40625"
"1538484646474","25","1.2451172","0.06542969","-0.42578125","-38.40625","44.1875","-39.71875"
"1538484646475","26","1.1982422","0.024414062","-0.3203125","-53.0","2.75","-10.25"
"1538484646476","27","0.98046875","0.12207031","-0.3310547","-49.03125","-21.09375","18.625"
"1538484646477","28","0.8955078","0.07910156","-0.24316406","-16.5","-5.46875","27.90625"
"1538484646477","29","0.71972656","-0.15429688","-0.16210938","-23.53125","5.5","5.5625"
"1538484646477","30","0.65625","-0.043945312","-0.12695312","-74.4375","-4.0625","-5.1875"
"1538484646672","31","1.5800781","0.87109375","-0.08105469","-122.53125","-58.28125","17.40625"
"1538484646672","32","1.1601562","0.9404297","-0.46972656","-13.9375","-8.46875","3.65625"
"1538484646672","33","1.2919922","0.5019531","-0.24609375","62.84375","36.8125","-7.8125"
"1538484646674","34","1.1582031","0.24414062","-0.27539062","81.46875","5.375","-24.90625"
"1538484646870","35","0.9638672","0.09472656","-0.23242188","67.46875","15.34375","-25.25"
"1538484647069","36","0.57910156","-0.07910156","-0.18554688","26.15625","7.53125","-12.1875"
"1538484647070","37","0.2890625","-0.0087890625","-0.12109375","-21.375","-0.65625","12.40625"
"1538484647070","38","0.11621094","0.01953125","-0.016601562","-22.71875","-5.125","35.46875"
"1538484647070","39","0.38476562","0.07421875","-0.040039062","-6.0625","-26.40625","26.25"
"1538484647072","40","1.3105469","0.38964844","-0.17871094","-31.6875","-41.1875","32.53125"
"1538484647072","41","1.6835938","0.50097656","-0.52246094","59.78125","-20.125","14.53125"
"1538484647074","42","1.5537109","0.00390625","-0.4921875","120.75","74.0625","-49.5625"
"1538484647075","43","1.328125","-0.26953125","-0.5332031","-62.28125","59.53125","-52.53125"
"1538484647075","44","0.8955078","0.28125","-0.39160156","-60.03125","0.9375","-5.4375"
"1538484647268","45","0.44628906","-0.3125","-0.07714844","14.1875","-7.5625","10.3125"
"1538484647269","46","0.49316406","-0.140625","-0.017578125","-61.0","-28.4375","-4.5625"
"1538484647269","47","1.5078125","0.26660156","-0.059570312","-128.375","-39.0","-8.78125"
"1538484647269","48","1.375","1.1523438","-0.24707031","-133.875","-63.03125","51.28125"
"1538484647271","49","1.2099609","0.75878906","-0.41015625","98.25","21.125","0.0625"
"1538484647667","50","1.2841797","0.056640625","-0.3671875","87.1875","40.65625","-23.625"
"1538484647668","51","0.9189453","0.26757812","-0.3125","-6.25","4.46875","-25.875"
"1538484647668","52","0.4560547","0.20898438","-0.18652344","27.0625","14.28125","-11.65625"
"1538484647668","53","0.09472656","-0.03515625","-0.0234375","4.625","30.03125","6.09375"
"1538484647669","54","0.07519531","-0.0048828125","0.040039062","1.875","10.28125","33.4375"
"1538484647670","55","0.4326172","0.051757812","0.001953125","37.625","-19.625","7.6875"
"1538484647670","56","1.9433594","0.32421875","-0.2421875","-9.84375","-16.03125","52.96875"
"1538484647670","57","1.6201172","0.2841797","-0.78027344","22.75","-13.40625","-33.9375"
"1538484647670","58","1.4882812","0.078125","-0.48828125","23.09375","61.96875","-43.5"
"1538484647864","59","0.6298828","-0.11035156","-0.2890625","19.875","-30.875","25.6875"
"1538484647864","60","0.29492188","-0.5957031","-0.10839844","7.3125","-38.4375","51.53125"
"1538484647867","61","0.6279297","-0.26464844","0.033203125","-146.21875","-33.625","17.65625"
"1538484647867","62","1.5019531","0.9580078","0.359375","-321.8125","-84.46875","23.9375"
"1538484647867","63","1.0751953","1.5996094","-0.16699219","-76.8125","-85.6875","39.6875"
"1538484648063","64","1.1513672","0.8720703","-0.20703125","184.71875","45.71875","10.875"
"1538484648063","65","1.4501953","-0.041992188","-0.18359375","146.46875","34.8125","-26.65625"
"1538484648063","66","0.94140625","0.234375","-0.30566406","32.125","10.75","-54.9375"
"1538484648065","67","0.55371094","0.07714844","-0.19726562","76.875","38.53125","-52.65625"
"1538484648065","68","0.26171875","-0.11230469","-0.013671875","32.125","20.03125","-13.375"
"1538484648263","69","-0.0048828125","-0.025390625","-0.001953125","14.9375","7.09375","22.28125"
"1538484648263","70","0.7060547","0.18554688","-0.1171875","63.09375","1.59375","-18.71875"
"1538484648264","71","2.006836","0.4423828","-0.24609375","19.03125","-19.28125","74.28125"
"1538484648264","72","1.4306641","0.1171875","-0.7285156","76.9375","22.53125","-66.9375"
"1538484648264","73","1.4306641","-0.16601562","-0.44433594","-2.40625","52.1875","-55.28125"
"1538484648460","74","1.0908203","0.18652344","-0.31445312","-31.46875","-21.09375","-17.375"
"1538484648460","75","0.6777344","0.09765625","-0.17578125","45.6875","-14.03125","24.40625"
"1538484648461","76","0.32617188","-0.3408203","-0.037109375","35.3125","-6.53125","23.5625"
"1538484648461","77","0.50878906","-0.15332031","-0.07910156","-56.25","-28.3125","-9.875"
"1538484648462","78","1.2109375","0.58203125","-0.24609375","-137.53125","-105.625","-50.96875"
"1538484649057","79","1.5634766","1.7841797","-0.30664062","-84.5","-65.46875","0.4375"
"1538484649057","80","1.4160156","0.5917969","-0.3701172","130.59375","36.15625","-48.875"
"1538484649057","81","1.1650391","0.18945312","-0.35351562","45.3125","42.125","-50.53125"
"1538484649058","82","0.7548828","0.3857422","-0.23632812","11.21875","34.125","-35.34375"
"1538484649058","83","0.36816406","0.095703125","-0.16113281","42.21875","43.21875","0.1875"
"1538484649059","84","0.1484375","-0.08691406","-0.08984375","22.25","27.84375","26.0625"
"1538484649256","85","0.033203125","-0.13964844","-0.043945312","1.4375","-0.90625","48.96875"
"1538484649256","86","0.10546875","-0.11816406","-0.0048828125","-22.71875","1.53125","44.25"
"1538484649256","87","0.8671875","0.11816406","-0.18261719","-48.3125","-3.78125","19.40625"
"1538484649257","88","1.7207031","0.58203125","-0.15136719","-66.96875","-91.78125","-64.875"
"1538484649258","89","1.1103516","1.4453125","-0.46972656","-117.75","-73.34375","-64.8125"
"1538484649258","90","1.3105469","0.9394531","-0.3984375","139.125","35.0","-71.46875"
"1538484649259","91","1.3701172","0.2578125","-0.14160156","132.84375","-5.96875","-25.09375"
"1538484649259","92","0.8066406","0.020507812","-0.31152344","63.4375","19.90625","-21.46875"
"1538484649454","93","0.31640625","-0.19238281","-0.19238281","-10.34375","35.90625","-8.28125"
"1538484649454","94","-0.01171875","-0.15429688","0.018554688","-121.59375","35.53125","23.75"
"1538484649455","95","-0.056640625","0.16015625","0.17773438","-155.65625","19.375","70.5"
"1538484649456","96","0.13671875","0.35058594","0.12109375","-52.75","-1.34375","65.75"
"1538484649457","97","0.5234375","0.3076172","-0.15625","90.1875","-7.75","48.46875"
"1538484649654","98","2.006836","0.82714844","-0.07910156","78.59375","14.46875","142.15625"
"1538484649654","99","2.006836","-0.07910156","-0.44921875","96.46875","108.46875","-24.96875"
"1538484649654","100","1.25","-0.34765625","-0.6201172","-54.96875","79.40625","-17.34375"
"1538484649654","101","1.1259766","0.115234375","-0.51464844","-80.84375","54.8125","15.8125"
"1538484649656","102","0.6376953","-0.03125","-0.27246094","-32.75","-30.625","63.96875"
"1538484649852","103","0.68652344","0.16601562","0.00390625","-7.09375","-37.84375","36.5625"
"1538484650050","104","1.3417969","0.44433594","0.203125","-49.78125","-35.6875","-13.65625"
"1538484650051","105","1.4492188","0.8925781","-0.07421875","-78.8125","-27.9375","-58.21875"
"1538484650051","106","1.3447266","0.7861328","-0.39257812","101.59375","44.25","-47.78125"
"1538484650051","107","1.3916016","0.026367188","-0.23144531","206.9375","17.34375","-29.78125"
"1538484650052","108","0.92285156","-0.24609375","-0.076171875","119.3125","-3.40625","-40.15625"
"1538484650053","109","0.49609375","0.12890625","0.048828125","38.3125","14.21875","-42.71875"
"1538484650053","110","0.37890625","0.59472656","0.27539062","48.9375","21.3125","-50.90625"
"1538484650054","111","0.15527344","0.9824219","0.26757812","150.25","14.1875","-39.65625"
"1538484650054","112","-0.04296875","0.55371094","0.18652344","319.4375","30.59375","-54.0"
"1538484650248","113","0.5722656","0.27734375","0.087890625","348.1875","35.09375","-119.125"
"1538484650249","114","2.006836","-0.25","-0.0859375","213.40625","-32.21875","48.03125"
"1538484650250","115","2.006836","-0.7832031","-0.7548828","272.5","146.9375","-155.375"
"1538484650250","116","1.71875","-0.39941406","-0.67578125","-58.125","104.625","-78.84375"
"1538484650648","117","1.3466797","0.3720703","-0.38378906","67.34375","48.15625","-31.78125"
"1538484650649","118","0.6816406","-0.064453125","-0.18554688","167.6875","-7.375","-23.5"
"1538484650649","119","0.32226562","-0.119140625","-0.3486328","103.125","-29.15625","-57.71875"
"1538484650649","120","0.43847656","0.033203125","-0.32714844","50.34375","-21.78125","-27.65625"
"1538484650846","121","1.0615234","-0.0087890625","0.0048828125","37.5","21.625","32.59375"
"1538484651044","122","0.98535156","-0.15917969","0.0126953125","61.25","27.28125","28.21875"
"1538484651044","123","0.98535156","-0.12988281","-0.15917969","-98.0625","24.84375","19.0"
"1538484651045","124","1.0927734","0.21777344","-0.3564453","-271.03125","63.0625","39.3125"
"1538484651045","125","1.3613281","1.1025391","-0.35742188","-299.84375","42.8125","68.0"
"1538484651047","126","0.92285156","0.5175781","-0.2529297","60.8125","-20.625","29.65625"
"1538484651047","127","0.6660156","0.09277344","-0.27734375","68.15625","-17.0625","12.6875"
"1538484651047","128","0.6152344","0.18066406","-0.0859375","78.53125","-2.375","15.5625"
"1538484651048","129","0.6435547","0.0703125","0.018554688","108.3125","6.65625","3.25"
"1538484651048","130","0.7402344","-0.0546875","-0.0126953125","85.1875","13.25","-23.625"
"1538484651243","131","0.9785156","0.14746094","-0.6972656","173.875","33.65625","-39.96875"
"1538484651244","132","0.9404297","0.123046875","0.015625","115.34375","4.53125","-20.0625"
"1538484651245","133","1.0791016","0.515625","0.029296875","38.5","-26.71875","-18.375"
"1538484651245","134","0.8066406","0.43554688","-0.013671875","187.28125","-1.625","-32.40625"
"1538484651245","135","0.6591797","0.013671875","0.03515625","218.40625","29.75","-30.34375"
"1538484651442","136","0.70996094","-0.21972656","-0.0703125","166.59375","43.71875","-32.28125"
"1538484651442","137","0.81152344","-0.13378906","-0.107421875","146.21875","23.75","-25.6875"
"1538484651443","138","0.93652344","-0.140625","-0.17773438","140.53125","19.1875","-29.53125"
"1538484651443","139","1.0458984","-0.28320312","-0.2841797","118.1875","35.0","-28.0625"
"1538484651444","140","1.0","-0.19921875","-0.30273438","63.875","37.625","-28.25"
"1538484651640","141","1.0966797","-0.078125","-0.17578125","24.75","30.40625","-16.53125"
"1538484651641","142","1.2626953","0.15722656","-0.23828125","16.5625","24.625","-9.75"
"1538484651641","143","1.7558594","0.045898438","-0.17675781","-5.03125","0.4375","15.625"
"1538484651642","144","1.1425781","0.3544922","-0.3779297","-79.125","-9.21875","18.5625"
"1538484651643","145","0.78808594","0.48242188","-0.119140625","-82.375","-32.8125","25.28125"
"1538484651838","146","1.1796875","0.4716797","0.15332031","-98.34375","-48.375","39.25"
"1538484651841","147","0.9667969","0.7714844","-0.013671875","-57.21875","-44.53125","19.84375"
"1538484651841","148","0.6933594","0.6230469","-0.087890625","49.96875","-2.6875","20.6875"
"1538484651841","149","0.65527344","0.20703125","-0.087890625","60.28125","23.4375","2.625"
"1538484651841","150","0.67285156","0.25390625","-0.044921875","23.28125","13.8125","-4.375"
"1538484652038","151","0.6386719","0.36132812","-0.046875","17.6875","11.0625","-7.75"
"1538484652038","152","0.61035156","0.4267578","-0.049804688","28.65625","19.84375","-12.15625"
"1538484652038","153","0.7734375","0.51171875","-0.01171875","55.28125","25.9375","-4.21875"
"1538484652038","154","0.87402344","0.45117188","0.0859375","104.46875","21.9375","6.0625"
"1538484652039","155","0.64453125","0.3046875","0.07910156","145.1875","25.09375","-4.28125"
"1538484652237","156","0.28515625","0.14160156","-0.0126953125","168.96875","24.1875","-25.75"
"1538484652239","157","0.12695312","-0.12597656","0.080078125","181.8125","-2.84375","-46.75"
"1538484652239","158","0.23144531","-0.41210938","0.19140625","134.3125","-58.03125","-25.625"
"1538484652239","159","1.7207031","-0.23925781","0.038085938","-32.0","23.5625","138.5625"
"1538484652239","160","1.4453125","0.30371094","-0.6855469","116.5","-36.96875","-39.1875"
"1538484652435","161","1.3574219","-0.19238281","-0.6113281","59.375","97.96875","-64.5"
"1538484652435","162","1.2519531","-0.12695312","-0.30859375","-47.375","19.59375","-26.96875"
"1538484652436","163","0.9472656","0.29882812","-0.19433594","-5.46875","-56.03125","34.625"
"1538484652436","164","0.7158203","0.033203125","-0.16015625","63.4375","-74.5625","29.84375"
"1538484652437","165","0.9267578","-0.076171875","-0.07324219","-1.90625","-72.0","15.4375"
"1538484652634","166","2.006836","0.18457031","0.1328125","-142.90625","-54.625","52.0625"
"1538484652634","167","1.3535156","0.8330078","-0.13574219","-118.625","-16.40625","-21.46875"
"1538484652636","168","1.1318359","0.5830078","-0.23242188","67.125","26.0","25.15625"
"1538484652637","169","1.2441406","-0.123046875","-0.19628906","59.0625","34.375","1.59375"
"1538484652637","170","0.91308594","0.11816406","-0.30078125","5.46875","15.5625","-25.8125"
"1538484652833","171","0.62597656","9.765625E-4","-0.25976562","-16.5625","13.1875","-23.0625"
"1538484652835","172","0.4248047","0.17675781","-0.123046875","-83.53125","-4.625","-14.9375"
"1538484652835","173","0.46191406","0.5341797","-0.01171875","-69.90625","-12.5","-2.375"
"1538484652835","174","0.47851562","0.4921875","0.034179688","30.25","-19.21875","17.8125"
"1538484653032","175","0.16992188","0.1640625","-0.06933594","96.96875","-23.53125","-3.34375"
"1538484653033","176","0.31933594","-0.08496094","-0.265625","93.59375","-45.15625","-50.90625"
"1538484653033","177","1.8847656","0.27148438","-0.42285156","50.5","-67.5","-26.4375"
"1538484653033","178","1.5371094","0.10839844","-0.48632812","100.875","-23.4375","-40.09375"
"1538484653033","179","1.2011719","-0.3857422","-0.47558594","99.65625","9.21875","-31.5"
"1538484653035","180","0.9238281","-0.4345703","-0.43652344","-119.53125","27.65625","-3.84375"
"1538484653232","181","0.7578125","0.059570312","-0.2578125","-177.34375","27.125","44.25"
"1538484653232","182","0.60058594","0.15527344","-0.103515625","-80.40625","9.46875","53.84375"
"1538484653232","183","1.0839844","0.203125","-0.11035156","-89.4375","-35.21875","38.46875"
"1538484653233","184","1.4697266","0.5605469","-0.08984375","-224.09375","-46.5625","18.5"
"1538484653233","185","1.1962891","1.3935547","-0.34472656","-137.0625","1.53125","11.40625"
"1538484653430","186","1.3525391","0.88183594","-0.19921875","99.46875","31.09375","23.6875"
"1538484653430","187","1.28125","0.29296875","-0.27539062","125.09375","-4.25","-18.125"
"1538484653432","188","0.8564453","0.12011719","-0.328125","59.65625","14.1875","-43.03125"
"1538484653432","189","0.38964844","0.12792969","-0.14550781","3.40625","16.84375","-31.96875"
"1538484653432","190","0.12402344","0.18847656","-0.060546875","-2.59375","4.09375","-10.96875"
"1538484653627","191","-0.083984375","0.12890625","0.0078125","60.40625","-20.875","7.09375"
"1538484653629","192","0.32910156","0.06347656","-9.765625E-4","85.59375","-30.5","-12.625"
"1538484653629","193","1.7490234","0.21191406","-0.24707031","60.15625","-75.125","20.5625"
"1538484653630","194","1.5175781","-0.016601562","-0.4970703","131.25","4.09375","8.25"
"1538484653630","195","1.3427734","-0.4560547","-0.52246094","113.25","58.25","-4.75"
"1538484653827","196","1.0654297","-0.46875","-0.44335938","-134.65625","50.375","8.375"
"1538484653827","197","0.9091797","0.07324219","-0.27148438","-165.4375","34.5","48.78125"
"1538484653828","198","0.6376953","0.2626953","-0.16503906","-80.34375","10.03125","74.46875"
"1538484653829","199","0.85546875","0.22460938","-0.15722656","-23.28125","-5.84375","43.71875"
"1538484653829","200","1.3466797","0.42871094","-0.21289062","-78.8125","-26.40625","-1.71875"
"1538484654026","201","1.3818359","0.9042969","-0.23144531","-104.625","-43.375","-20.25"
"1538484654026","202","1.2099609","0.85058594","-0.4326172","55.28125","-3.84375","-57.96875"
"1538484654027","203","1.5341797","0.36621094","-0.20605469","139.9375","-7.5","-53.21875"
"1538484654027","204","1.1748047","0.06933594","-0.25878906","94.34375","-20.0625","-77.21875"
"1538484654027","205","0.8251953","0.111328125","-0.18945312","75.15625","-2.25","-73.125"
"1538484654224","206","0.4501953","-0.19140625","-0.0078125","55.34375","3.0625","-49.625"
"1538484654225","207","0.0546875","-0.26367188","0.10058594","-18.28125","5.8125","4.71875"
"1538484654225","208","0.0","-0.03125","0.09765625","-51.46875","21.125","53.90625"
"1538484654226","209","0.40820312","0.13574219","-0.028320312","-28.03125","11.0","52.75"
"1538484654226","210","1.4580078","0.45996094","-0.4501953","-1.25","-35.625","64.8125"
"1538484654424","211","1.7509766","0.08496094","-0.55859375","134.25","24.96875","22.71875"
"1538484654424","212","1.4179688","-0.3671875","-0.51953125","62.65625","63.84375","-27.59375"
"1538484654425","213","1.2363281","-0.23046875","-0.45214844","-106.46875","45.0","-14.8125"
"1538484654425","214","1.0263672","0.087890625","-0.3779297","-87.90625","7.53125","21.5"
"1538484654426","215","0.5966797","0.1953125","-0.32617188","-32.5","-11.875","54.09375"
"1538484654622","216","0.46972656","0.001953125","-0.1875","12.375","-1.8125","26.5"
"1538484654622","217","1.1816406","0.28515625","-0.10058594","-58.8125","-51.125","-47.71875"
"1538484654623","218","1.7353516","0.8486328","-0.060546875","-162.1875","-91.65625","-42.96875"
"1538484654623","219","1.0244141","1.1464844","-0.5644531","5.71875","-32.6875","-62.4375"
"1538484654623","220","1.6083984","0.4970703","-0.28027344","162.75","10.8125","-39.25"
"1538484654820","221","1.1699219","-9.765625E-4","-0.27539062","89.625","-25.1875","-59.0625"
"1538484654821","222","0.68652344","0.095703125","-0.28808594","56.75","18.875","-68.65625"
"1538484654821","223","0.34277344","-0.17773438","-0.087890625","18.09375","35.15625","-40.03125"
"1538484654821","224","0.22851562","0.041015625","0.07714844","-38.84375","39.75","13.3125"
"1538484654822","225","0.23925781","0.03515625","0.123046875","-1.90625","46.46875","55.0625"
"1538484655019","226","0.22851562","-0.0078125","0.013671875","27.625","13.375","50.125"
"1538484655019","227","0.8691406","0.016601562","-0.3671875","2.125","-40.75","31.0625"
"1538484655019","228","1.8066406","0.55859375","-0.54589844","-68.375","22.15625","82.84375"
"1538484655020","229","1.5097656","0.38183594","-0.6923828","63.34375","35.71875","-22.46875"
"1538484655021","230","1.1005859","-0.15136719","-0.5058594","10.71875","20.15625","-19.59375"
"1538484655419","231","1.1064453","0.12597656","-0.3232422","-53.3125","2.46875","-9.9375"
"1538484655420","232","0.75878906","0.19433594","-0.24804688","1.125","-10.25","32.53125"
"1538484655420","233","0.65527344","-0.08203125","-0.16894531","61.4375","-2.0625","18.125"
"1538484655420","234","1.0576172","0.02734375","-0.13183594","-27.5625","-57.0","-16.40625"
"1538484655422","235","1.7236328","0.71191406","-0.14648438","-140.96875","-68.59375","-25.625"
"1538484655422","236","1.0117188","1.0615234","-0.46679688","7.78125","-11.21875","-31.0"
"1538484655423","237","1.3330078","0.53808594","-0.32128906","135.40625","36.03125","-37.84375"
"1538484655423","238","1.0761719","0.20703125","-0.29882812","51.90625","14.0","-56.34375"
"1538484655615","239","0.7324219","0.36132812","-0.25390625","54.46875","49.8125","-66.53125"
"1538484655615","240","0.4267578","-0.009765625","-0.1328125","48.125","44.875","-45.34375"
"1538484655616","241","0.20019531","0.048828125","-0.049804688","-6.6875","42.125","-14.34375"
"1538484655617","242","0.1171875","0.095703125","0.048828125","6.25","36.625","23.3125"
"1538484655814","243","0.30566406","0.07910156","0.024414062","53.5","12.03125","24.96875"
"1538484655815","244","1.1298828","0.24414062","-0.29882812","81.6875","-37.46875","7.03125"
"1538484655815","245","1.5615234","0.25390625","-0.56640625","150.71875","2.21875","19.90625"
"1538484655815","246","1.5332031","-0.11035156","-0.63671875","156.34375","62.15625","-26.96875"
"1538484655816","247","1.0361328","-0.3076172","-0.515625","-9.0625","41.53125","-44.125"
"1538484655817","248","1.1308594","0.19238281","-0.3359375","-18.59375","3.625","-5.78125"
"1538484655817","249","0.8076172","0.18359375","-0.24121094","55.34375","1.65625","32.78125"
"1538484656013","250","0.828125","-0.0390625","-0.13085938","78.40625","14.1875","17.65625"
"1538484656013","251","1.1650391","0.15917969","-0.044921875","-11.6875","-14.21875","-8.0"
"1538484656013","252","1.1494141","0.4794922","-0.30273438","-60.625","-18.96875","-30.4375"
"1538484656015","253","1.1367188","0.69433594","-0.4345703","-2.09375","21.875","-18.3125"
"1538484656015","254","1.3271484","0.40527344","-0.3828125","82.3125","24.3125","-7.875"
"1538484656211","255","1.3212891","0.16113281","-0.30273438","76.5","2.6875","-21.125"
"1538484656212","256","1.0449219","0.125","-0.26367188","51.90625","12.78125","-46.4375"
"1538484656214","257","0.7949219","0.21679688","-0.11621094","35.75","8.1875","-46.0"
"1538484656214","258","0.36816406","0.3125","-0.026367188","45.4375","12.34375","-30.5"
"1538484656214","259","0.22949219","0.4921875","0.08105469","61.6875","26.0625","-14.71875"
"1538484656411","260","0.20019531","0.5371094","0.15820312","117.09375","25.90625","-6.34375"
"1538484656412","261","0.24121094","0.34960938","0.018554688","185.78125","15.21875","-29.28125"
"1538484656412","262","1.3964844","0.6279297","-0.26953125","196.375","-23.78125","-95.875"
"1538484656412","263","2.006836","0.19042969","-0.82714844","284.65625","-2.1875","-100.9375"
"1538484656413","264","2.006836","-0.57714844","-0.92285156","246.75","72.15625","-140.1875"
"1538484656807","265","1.5107422","-0.13769531","-0.60546875","22.125","38.59375","-94.21875"
"1538484656808","266","1.0322266","0.013671875","-0.18066406","101.65625","38.90625","-48.46875"
"1538484656809","267","0.48632812","-0.35546875","-0.10546875","109.46875","17.78125","-30.5625"
"1538484656810","268","0.32226562","-0.16992188","-0.20898438","40.0625","25.09375","-7.0"
"1538484656810","269","0.5878906","0.026367188","-0.20703125","52.59375","53.46875","22.71875"
"1538484656811","270","1.0292969","-0.0068359375","-0.23046875","63.8125","51.34375","26.75"
"1538484656812","271","1.3857422","0.060546875","-0.51171875","-15.21875","24.0","-5.84375"
"1538484656813","272","1.0585938","0.6777344","-0.54785156","-134.65625","30.59375","14.53125"
"1538484656813","273","1.1689453","1.0419922","-0.47460938","-34.8125","23.5","20.75"
"1538484657007","274","0.9033203","0.23144531","-0.4033203","79.875","-1.09375","-10.25"
"1538484657007","275","0.7324219","0.171875","-0.30078125","41.71875","3.5625","-27.28125"
"1538484657009","276","0.67089844","0.24414062","-0.1875","37.09375","9.53125","-22.34375"
"1538484657009","277","0.69921875","0.26757812","-0.12695312","56.8125","18.1875","-11.90625"
"1538484657009","278","0.7324219","0.24316406","-0.12988281","69.90625","23.625","-9.5625"
"1538484657405","279","0.75","0.24023438","-0.14550781","71.4375","29.3125","-18.96875"
"1538484657405","280","0.82421875","0.33789062","-0.13574219","62.0625","35.53125","-25.5625"
"1538484657406","281","0.9892578","0.54003906","-0.11035156","71.75","30.90625","-15.6875"
"1538484657407","282","0.9892578","0.54589844","-0.17578125","133.21875","24.3125","-12.1875"
"1538484657408","283","1.3554688","0.5","-0.25878906","168.625","24.625","-25.4375"
"1538484657409","284","1.2578125","0.29101562","-0.3798828","148.34375","22.53125","-33.125"
"1538484657409","285","0.8066406","0.052734375","-0.44628906","153.40625","44.875","-65.84375"
"1538484657409","286","1.0351562","0.087890625","-0.31152344","86.875","33.65625","-44.5"
"1538484657409","287","1.0859375","0.3046875","-0.234375","86.53125","19.78125","-26.25"
"1538484657603","288","0.77246094","-0.07714844","-0.27929688","81.625","12.59375","-38.625"
"1538484657604","289","0.80566406","0.087890625","-0.24609375","45.6875","18.25","-34.71875"
"1538484657605","290","0.85839844","0.11816406","-0.26171875","75.59375","3.375","-21.96875"
"1538484657605","291","0.8466797","-0.016601562","-0.36132812","93.0","-1.9375","-14.875"
"1538484657605","292","0.80859375","-0.15332031","-0.46289062","65.28125","17.21875","-9.9375"
"1538484657802","293","0.8935547","-0.12890625","-0.39453125","19.375","30.65625","-1.28125"
"1538484657802","294","0.9511719","-0.08496094","-0.30078125","5.09375","17.90625","16.53125"
"1538484657802","295","1.1601562","-0.00390625","-0.2919922","-4.0","3.4375","26.875"
"1538484657802","296","1.2685547","0.14257812","-0.39941406","-64.53125","3.5","37.71875"
"1538484657803","297","0.9433594","0.31347656","-0.43945312","-85.84375","17.65625","23.125"
"1538484658000","298","1.0058594","0.3466797","-0.30664062","-61.84375","2.8125","13.90625"
"1538484658000","299","1.1123047","0.5263672","-0.17382812","-80.78125","-20.1875","3.3125"
"1538484658001","300","0.84375","0.71191406","-0.28320312","-43.84375","-22.21875","-0.65625"
"1538484658200","301","0.6386719","0.41796875","-0.2705078","23.59375","-0.28125","-10.0625"
"1538484658200","302","0.515625","0.19824219","-0.19042969","12.1875","1.125","-14.03125"
"1538484658201","303","0.35546875","0.26660156","-0.15820312","-3.9375","3.625","-12.75"
"1538484658201","304","0.5439453","0.43847656","-0.10839844","21.03125","3.75","-15.75"
"1538484658201","305","0.84277344","0.5878906","-0.12890625","44.53125","-7.75","-9.6875"
"1538484658202","306","0.97753906","0.6455078","-0.19140625","108.5625","10.625","-1.21875"
"1538484658202","307","0.9941406","0.27148438","-0.14355469","173.0625","36.625","-5.5625"
"1538484658400","308","0.58984375","-0.24804688","-0.10253906","137.96875","40.46875","-12.8125"
"1538484658401","309","0.4736328","-0.3876953","-0.11328125","81.53125","31.6875","-30.28125"
"1538484658401","310","1.0302734","-0.14257812","-0.1640625","-4.84375","-5.96875","-19.28125"
"1538484658401","311","1.4882812","0.31152344","-0.47851562","-40.78125","-17.875","9.65625"
"1538484658401","312","1.2900391","0.18164062","-0.6513672","39.28125","4.34375","-5.5625"
"1538484658796","313","1.1992188","-0.08886719","-0.44921875","-28.15625","5.8125","6.0"
"1538484658796","314","0.99902344","0.265625","-0.31152344","-67.78125","-17.6875","21.6875"
"1538484658796","315","0.85253906","0.1875","-0.2578125","13.46875","-14.5","45.34375"
"1538484658796","316","0.7421875","-0.19042969","-0.22363281","26.09375","7.21875","37.25"
"1538484658797","317","0.6933594","-0.16992188","-0.15820312","-53.625","10.9375","19.34375"
"1538484658798","318","1.0029297","0.16992188","-0.23632812","-102.6875","-17.0625","1.28125"
"1538484658798","319","1.5449219","0.7841797","-0.059570312","-200.59375","-57.46875","39.96875"
"1538484658799","320","0.7246094","0.9501953","-0.46484375","-37.8125","-25.5","-14.71875"
"1538484658800","321","1.2109375","0.5644531","-0.17480469","69.75","22.53125","2.15625"
"1538484658994","322","0.8251953","0.31445312","-0.26660156","69.25","18.5625","-29.65625"
"1538484658994","323","0.6191406","0.09667969","-0.14746094","32.625","26.9375","-27.71875"
"1538484658994","324","0.4736328","0.33398438","-0.037109375","19.03125","20.8125","6.96875"
"1538484658995","325","0.41992188","0.13476562","-0.06347656","90.71875","22.0","28.25"
"1538484658996","326","0.8183594","-9.765625E-4","-0.25","96.78125","-3.84375","13.125"
"1538484659194","327","1.9628906","0.024414062","-0.4482422","79.625","-19.53125","8.625"
"1538484659194","328","1.3017578","-0.25","-0.6113281","26.09375","31.25","-65.71875"
"1538484659194","329","1.2763672","-0.07128906","-0.3876953","-73.75","23.875","-18.96875"
"1538484659194","330","0.9970703","0.14160156","-0.25","-46.78125","-12.625","8.5625"
"1538484659196","331","0.77734375","-0.0068359375","-0.22558594","-1.4375","-16.78125","31.125"
"1538484659393","332","0.5859375","-0.17675781","-0.24023438","-12.96875","-0.40625","26.6875"
"1538484659393","333","0.5361328","-0.14941406","-0.15429688","-54.90625","19.0","24.1875"
"1538484659394","334","0.8964844","-0.01953125","-0.07324219","-70.34375","-5.0","16.25"
"1538484659394","335","1.5068359","0.37890625","-0.15527344","-150.78125","-60.15625","25.46875"
"1538484659394","336","1.1054688","1.0126953","-0.3876953","-164.28125","-49.25","13.4375"
"1538484659591","337","1.1181641","0.8144531","-0.43945312","48.75","13.75","6.46875"
"1538484659591","338","1.3300781","0.23046875","-0.203125","73.21875","1.40625","-13.25"
"1538484659593","339","0.87109375","0.32226562","-0.33398438","30.96875","-8.90625","-42.28125"
"1538484659593","340","0.7705078","0.140625","-0.25683594","53.6875","13.1875","-40.78125"
"1538484659593","341","0.6816406","0.16210938","-0.087890625","7.1875","7.75","-19.09375"
"1538484659791","342","0.4814453","0.2607422","-0.064453125","46.78125","19.0","3.84375"
"1538484659792","343","0.54296875","-0.021484375","-0.06738281","85.1875","31.3125","15.03125"
"1538484659792","344","1.0576172","0.0048828125","-0.23242188","40.4375","6.3125","9.46875"
"1538484659792","345","1.3681641","0.06347656","-0.5439453","11.75","-1.625","-13.78125"
"1538484659793","346","1.1660156","-0.00390625","-0.6464844","-3.8125","25.59375","-29.53125"
"1538484659988","347","1.2568359","0.13085938","-0.42578125","-54.34375","20.875","-21.78125"
"1538484659989","348","1.1513672","0.28027344","-0.296875","-19.875","-17.625","5.5"
"1538484659990","349","0.82714844","0.07128906","-0.32128906","12.3125","-25.375","15.09375"
"1538484659990","350","0.7080078","-0.06738281","-0.31152344","-7.03125","-3.84375","16.0625"
"1538484659991","351","0.7480469","-0.048828125","-0.23730469","-25.96875","7.71875","31.625"
"1538484660187","352","0.66015625","-0.07714844","-0.1875","-16.125","-2.5625","38.40625"
"1538484660187","353","1.0048828","-0.047851562","-0.14257812","-51.53125","-20.8125","28.5625"
"1538484660187","354","1.2958984","0.3828125","-0.2607422","-136.9375","-47.90625","17.34375"
"1538484660187","355","1.0703125","0.9111328","-0.34472656","-122.65625","-32.875","14.15625"
"1538484660189","356","1.0400391","0.66503906","-0.35058594","39.78125","15.53125","-6.46875"
"1538484660583","357","1.0732422","0.24511719","-0.16992188","77.625","6.3125","-10.5"
"1538484660584","358","0.69628906","0.19726562","-0.2890625","25.125","-2.6875","-41.1875"
"1538484660587","359","0.57910156","0.28808594","-0.22753906","13.46875","24.90625","-31.1875"
"1538484660587","360","0.6484375","0.36132812","-0.08300781","33.71875","24.84375","-3.34375"
"1538484660587","361","0.5214844","0.19335938","-0.048828125","76.28125","21.9375","22.84375"
"1538484660587","362","0.5253906","-0.029296875","-0.18164062","93.90625","24.4375","7.75"
"1538484660587","363","1.2871094","0.028320312","-0.3173828","54.78125","-13.90625","6.21875"
"1538484660588","364","1.6591797","0.044921875","-0.5751953","65.53125","-5.25","-31.1875"
"1538484660782","365","1.3173828","-0.23730469","-0.5761719","54.53125","21.5","-51.5625"
"1538484660783","366","1.0117188","-0.19628906","-0.36523438","-54.53125","10.28125","-31.0"
"1538484660783","367","0.87890625","0.099609375","-0.24902344","-52.40625","-24.53125","9.59375"
"1538484660783","368","0.73046875","-0.016601562","-0.23144531","5.84375","-23.78125","35.53125"
"1538484660784","369","0.6972656","-0.21777344","-0.19238281","-3.9375","-5.40625","37.3125"
"1538484660785","370","0.8574219","-0.03515625","-0.16210938","-77.84375","2.15625","20.4375"
"1538484660785","371","1.1298828","0.3359375","-0.22753906","-114.03125","-26.46875","15.875"
"1538484660981","372","1.4384766","0.8623047","-0.2265625","-135.71875","-38.875","25.8125"
"1538484660983","373","0.96972656","0.7246094","-0.46972656","-3.125","-4.0","-5.71875"
"1538484660983","374","1.2333984","0.35351562","-0.2841797","44.03125","12.46875","-9.46875"
"1538484660983","375","0.92871094","0.18359375","-0.3251953","25.5625","0.3125","-31.5"
"1538484661181","376","0.7050781","0.12597656","-0.2529297","19.4375","22.65625","-37.46875"
"1538484661181","377","0.6279297","0.1953125","-0.14550781","-20.03125","18.375","-14.28125"
"1538484661182","378","0.453125","0.27148438","-0.0859375","6.4375","22.09375","16.25"
"1538484661183","379","0.40039062","0.125","-0.0703125","61.25","29.8125","17.71875"
"1538484661183","380","1.0390625","0.21679688","-0.18164062","42.15625","-7.1875","9.40625"
"1538484661380","381","1.4892578","0.3017578","-0.4482422","43.90625","-17.375","6.78125"
"1538484661380","382","1.3154297","0.080078125","-0.57910156","89.28125","25.65625","-48.59375"
"1538484661381","383","1.0976562","-0.28710938","-0.4140625","-9.90625","12.71875","-39.84375"
"1538484661382","384","0.9589844","0.16113281","-0.296875","-60.09375","-19.59375","-7.3125"
"1538484661383","385","0.9316406","0.21484375","-0.25683594","-0.09375","-22.5","36.9375"
"1538484661579","386","0.72753906","-0.036132812","-0.26464844","35.625","-10.125","35.84375"
"1538484661580","387","0.8798828","-0.10058594","-0.20117188","-27.0","5.875","16.65625"
"1538484661580","388","1.1474609","0.32421875","-0.16503906","-110.4375","-19.625","6.90625"
"1538484661580","389","1.1826172","0.87109375","-0.25","-98.09375","-30.625","-9.28125"
"1538484661580","390","0.8095703","0.6123047","-0.46289062","40.6875","-0.53125","-5.3125"
"1538484661776","391","1.296875","0.36035156","-0.27539062","79.25","18.09375","-21.78125"
"1538484661777","392","1.0224609","0.22363281","-0.33789062","34.09375","-3.15625","-38.3125"
"1538484661778","393","0.80859375","0.20605469","-0.29589844","43.6875","26.75","-48.40625"
"1538484661778","394","0.7011719","0.14355469","-0.11230469","15.90625","20.09375","-30.375"
"1538484661779","395","0.5566406","0.29785156","-0.055664062","6.8125","20.71875","7.625"
"1538484661976","396","0.41308594","0.1875","-0.02734375","56.25","31.75","29.0"
"1538484661978","397","0.7753906","0.21679688","-0.12207031","66.5","13.3125","19.96875"
"1538484661978","398","1.2304688","0.22851562","-0.3955078","39.53125","-31.78125","45.84375"
"1538484661978","399","1.1816406","0.15722656","-0.6845703","113.25","31.375","-41.3125"
"1538484661978","400","1.4277344","-0.2607422","-0.47070312","34.71875","36.03125","-36.25"
"1538484662174","401","1.1171875","0.17285156","-0.4345703","-55.25","12.90625","-45.90625"
"1538484662374","402","1.0136719","0.24804688","-0.32128906","43.0625","-0.09375","-0.375"
"1538484662374","403","0.8300781","-0.08691406","-0.2939453","77.0625","-4.5","7.75"
"1538484662374","404","0.7246094","-0.17089844","-0.25390625","17.4375","16.375","3.59375"
"1538484662374","405","0.64160156","-0.009765625","-0.16796875","-14.5","14.71875","15.25"
"1538484662376","406","0.7285156","0.048828125","-0.12207031","11.3125","12.09375","13.125"
"1538484662376","407","1.1132812","0.15136719","-0.09667969","-4.1875","-19.40625","16.0625"
"1538484662377","408","1.3203125","0.43652344","-0.38378906","-44.09375","-19.75","-10.5625"
"1538484662571","409","1.0869141","0.5957031","-0.47851562","-17.59375","9.46875","-13.84375"
"1538484662571","410","1.2138672","0.3798828","-0.38378906","67.0","33.15625","-31.25"
"1538484662571","411","1.2949219","0.16113281","-0.2529297","67.0","5.09375","-21.125"
"1538484662572","412","1.0302734","0.15429688","-0.2763672","70.71875","18.5","-37.71875"
"1538484662573","413","0.859375","0.0234375","-0.15429688","54.40625","25.03125","-40.28125"
"1538484662574","414","0.5722656","0.16894531","-0.043945312","36.90625","25.09375","-32.21875"
"1538484662772","415","0.46679688","0.2421875","0.021484375","69.125","25.65625","-13.90625"
"1538484662773","416","0.5527344","0.17773438","0.03515625","87.875","26.375","6.0"
"1538484662773","417","0.6738281","0.20703125","-0.13476562","100.5625","7.53125","-8.46875"
"1538484662773","418","1.3583984","0.4951172","-0.453125","50.5625","-23.125","-23.0"
"1538484662775","419","1.9521484","0.7792969","-0.89160156","106.46875","33.71875","-68.15625"
"1538484662775","420","1.8515625","0.11816406","-0.85839844","113.125","45.125","-89.96875"
"1538484662970","421","1.2333984","0.41601562","-0.52441406","63.15625","33.46875","-67.6875"
"1538484662971","422","0.9638672","0.23144531","-0.10449219","141.75","18.3125","-40.8125"
"1538484662971","423","0.66015625","-0.09667969","-0.046875","164.59375","-6.625","-39.25"
"1538484662972","424","0.515625","-0.18359375","-0.13085938","106.0","-2.6875","-39.3125"
"1538484662972","425","0.58203125","-0.026367188","-0.24316406","80.40625","11.4375","-23.625"
"1538484663170","426","0.72753906","-0.016601562","-0.3076172","85.96875","20.40625","-9.34375"
"1538484663170","427","0.98046875","0.13769531","-0.33496094","67.59375","32.59375","8.1875"
"1538484663170","428","1.1074219","0.107421875","-0.46191406","66.125","34.6875","-2.6875"
"1538484663367","429","1.140625","0.18261719","-0.51171875","16.15625","24.84375","1.21875"
"1538484663368","430","1.0478516","0.4716797","-0.5126953","-13.34375","15.34375","1.40625"
"1538484663369","431","1.1689453","0.7167969","-0.41308594","23.96875","-7.25","7.75"
"1538484663565","432","1.0810547","0.6347656","-0.4873047","82.5","-5.1875","-14.09375"
"1538484663566","433","0.91796875","0.27246094","-0.47753906","109.71875","12.40625","-40.9375"
"1538484663566","434","0.7626953","0.038085938","-0.34960938","99.84375","7.9375","-49.90625"
"1538484663567","435","0.625","0.05078125","-0.21875","66.8125","3.5","-46.9375"
"1538484663567","436","0.69921875","0.12695312","-0.12890625","69.625","2.28125","-37.28125"
"1538484663568","437","0.7607422","0.09375","-0.119140625","73.875","5.375","-24.71875"
"1538484663569","438","0.7939453","0.14550781","-0.19628906","63.5","11.71875","-22.46875"
"1538484663569","439","0.86035156","0.25","-0.2841797","52.28125","25.09375","-24.78125"
"1538484663569","440","0.95410156","0.4140625","-0.34570312","55.875","33.40625","-14.21875"
"1538484663764","441","0.9736328","0.44921875","-0.36328125","100.8125","33.8125","-13.4375"
"1538484663765","442","1.0859375","0.42285156","-0.39648438","137.96875","30.65625","-25.625"
"1538484663765","443","1.3466797","0.421875","-0.40234375","156.96875","28.8125","-21.59375"
"1538484663765","444","0.9248047","0.05859375","-0.4970703","190.65625","39.4375","-52.84375"
"1538484663767","445","1.0683594","-0.053710938","-0.46875","100.5625","36.625","-47.3125"
"1538484663963","446","1.0146484","0.2109375","-0.41992188","77.625","21.0","-44.4375"
"1538484663963","447","0.8359375","0.043945312","-0.34472656","110.9375","18.75","-41.4375"
"1538484663963","448","0.7109375","-0.0078125","-0.2705078","91.71875","18.6875","-48.53125"
"1538484663964","449","0.7939453","0.038085938","-0.20507812","95.75","14.59375","-50.59375"
"1538484663964","450","0.87109375","-0.048828125","-0.24121094","103.1875","5.5625","-51.25"
"1538484664559","451","0.94433594","-0.11328125","-0.34765625","89.875","11.0","-53.71875"
"1538484664559","452","0.8886719","-0.1953125","-0.43652344","66.4375","23.03125","-48.8125"
"1538484664559","453","0.8808594","-0.23828125","-0.43066406","43.5625","23.5","-28.4375"
"1538484664560","454","0.9199219","-0.16503906","-0.37402344","21.65625","9.65625","1.59375"
"1538484664561","455","1.0126953","-0.05078125","-0.34570312","11.4375","1.34375","19.59375"
"1538484664758","456","1.0683594","-0.01953125","-0.42089844","5.15625","-1.8125","17.28125"
"1538484664761","457","1.3837891","0.11035156","-0.5488281","-39.03125","-0.65625","19.21875"
"1538484664761","458","1.0263672","0.33398438","-0.5361328","-75.53125","13.4375","29.25"
"1538484664762","459","0.7451172","0.28808594","-0.4326172","-48.0","14.90625","16.375"
"1538484664762","460","0.70214844","0.6777344","-0.18164062","51.0","12.03125","-19.90625"
"1538484664762","461","1.0332031","0.88183594","-0.1171875","70.03125","26.4375","-0.46875"
"1538484664762","462","0.7910156","0.6142578","-0.09277344","156.65625","45.65625","-3.40625"
"1538484664763","463","0.5830078","-0.0234375","0.10546875","182.21875","54.28125","3.84375"
"1538484664763","464","0.076171875","-0.4794922","0.07519531","142.96875","26.375","4.15625"
"1538484664956","465","0.5419922","-0.23925781","-0.16210938","93.1875","10.875","-51.375"
"1538484664957","466","1.8632812","0.1953125","-0.6064453","110.09375","-29.21875","6.15625"
"1538484664957","467","1.5488281","-0.3779297","-0.70214844","113.3125","19.90625","-55.40625"
"1538484664959","468","1.0605469","-0.6464844","-0.5966797","-55.5","39.5","-46.0625"
"1538484664960","469","0.9667969","0.09375","-0.32910156","-168.90625","17.84375","15.25"
"1538484665155","470","0.9042969","0.26660156","-0.28125","-44.15625","-8.90625","74.28125"
"1538484665156","471","0.6435547","-0.095703125","-0.27148438","31.90625","-16.84375","71.34375"
"1538484665157","472","0.8779297","-0.14746094","-0.20117188","-36.40625","-9.21875","21.78125"
"1538484665157","473","1.3242188","0.33789062","-0.328125","-137.0625","-32.40625","-12.1875"
"1538484665157","474","1.4316406","1.1972656","-0.27539062","-154.0625","-43.6875","4.59375"
"1538484665355","475","0.8671875","0.7841797","-0.5136719","39.09375","-1.21875","-23.4375"
"1538484665355","476","1.0605469","0.27148438","-0.22363281","71.875","14.34375","-17.5625"
"1538484665355","477","0.79003906","0.22460938","-0.24804688","22.0625","-10.1875","-36.75"
"1538484665356","478","0.55371094","0.22070312","-0.24414062","29.34375","8.25","-37.78125"
"1538484665357","479","0.54785156","0.22851562","-0.111328125","2.1875","13.5","-8.96875"
"1538484665553","480","0.53808594","0.34277344","-0.01171875","39.65625","14.96875","27.96875"
"1538484665554","481","0.44433594","0.02734375","-0.080078125","104.40625","25.53125","36.75"
"1538484665554","482","0.93847656","-0.055664062","-0.2939453","81.75","-0.15625","-0.90625"
"1538484665555","483","2.006836","0.15917969","-0.50683594","9.1875","16.0","-10.0"
"1538484665555","484","1.3427734","-0.10449219","-0.75683594","-4.53125","50.25","-79.875"
"1538484665754","485","1.0722656","0.043945312","-0.41308594","-69.0625","28.625","-31.4375"
"1538484665754","486","1.0097656","0.203125","-0.203125","-60.375","-25.1875","14.53125"
"1538484665952","487","0.7578125","0.123046875","-0.20800781","0.34375","-26.90625","37.34375"
"1538484665952","488","0.74121094","-0.09667969","-0.23828125","4.0","-24.65625","24.125"
"1538484665952","489","0.7871094","-0.053710938","-0.24609375","-46.78125","-13.125","23.0625"
"1538484665952","490","0.80078125","0.0107421875","-0.2109375","-35.0","-9.15625","31.4375"
"1538484665953","491","1.109375","0.018554688","-0.15332031","-50.5625","-32.21875","35.78125"
"1538484665954","492","1.5058594","0.47753906","-0.23828125","-146.375","-57.40625","35.53125"
"1538484665955","493","0.72753906","0.8378906","-0.4736328","-115.8125","-19.875","6.15625"
"1538484665956","494","1.1669922","0.765625","-0.29492188","18.53125","18.5","8.5625"
"1538484666348","495","1.1240234","0.4345703","-0.24121094","61.1875","-7.6875","-5.1875"
"1538484666547","496","0.7832031","0.16992188","-0.3515625","66.3125","12.46875","-36.875"
"1538484666745","497","0.7480469","0.045898438","-0.23144531","1.0625","25.40625","-33.875"
"1538484666747","498","0.515625","0.2578125","-0.13476562","-16.5625","21.0625","2.875"
"1538484666748","499","0.3388672","0.13867188","-0.051757812","34.65625","29.96875","35.15625"
"1538484666749","500","0.31152344","-0.01953125","-0.107421875","34.8125","20.03125","42.4375"
"1538484666749","501","0.9199219","0.12011719","-0.2109375","23.90625","12.28125","19.84375"
"1538484666750","502","2.006836","0.39257812","-0.24804688","25.90625","6.375","29.90625"
"1538484666750","503","1.2568359","-0.0546875","-0.8017578","60.78125","28.40625","-84.84375"
"1538484666750","504","1.2666016","-0.17480469","-0.55371094","-64.125","21.1875","-26.96875"
"1538484666751","505","0.9267578","0.1171875","-0.29882812","-37.6875","-42.15625","1.40625"
"1538484667143","506","0.6035156","0.0234375","-0.32617188","53.0625","28.34375","-50.46875"
"1538484667144","507","0.5439453","-0.045898438","-0.12109375","-14.5625","21.0","-19.46875"
"1538484667144","508","0.5839844","0.31347656","-0.045898438","-29.0625","7.40625","27.53125"
"1538484667144","509","0.45703125","0.14648438","-0.025390625","53.6875","19.1875","53.71875"
"1538484667144","510","0.7998047","0.078125","-0.1328125","60.34375","14.0625","16.0625"
"1538484667145","511","1.6044922","0.16210938","-0.38085938","9.9375","-18.125","5.8125"
"1538484667146","512","1.5166016","0.2421875","-0.8027344","20.40625","31.1875","-56.5625"
"1538484667146","513","1.2363281","-0.14941406","-0.6171875","24.75","38.09375","-53.9375"
"1538484667147","514","1.1386719","-0.029296875","-0.26660156","-25.0","-12.3125","-14.8125"
"1538484667341","515","0.92578125","0.043945312","-0.24316406","-2.96875","-47.65625","12.75"
"1538484667342","516","0.67871094","-0.15039062","-0.21289062","28.53125","-20.0625","21.625"
"1538484667344","517","0.67871094","-0.26953125","-0.13671875","-21.5","-5.40625","26.25"
"1538484667344","518","0.6875","-0.11035156","-0.11425781","-66.375","-0.40625","28.9375"
"1538484667344","519","1.296875","0.21289062","-0.12695312","-100.71875","-46.4375","32.53125"
"1538484667344","520","1.4599609","0.7841797","-0.3671875","-153.78125","-60.78125","16.84375"
"1538484667540","521","1.0556641","1.0839844","-0.55859375","-36.65625","-7.625","7.28125"
"1538484667541","522","1.328125","0.5576172","-0.34765625","76.6875","17.40625","-14.75"
"1538484667541","523","0.98046875","0.15136719","-0.3515625","66.5","-7.125","-44.0625"
"1538484667541","524","0.6923828","0.10546875","-0.31152344","29.875","14.28125","-55.84375"
"1538484667542","525","0.3955078","0.14257812","-0.17675781","-10.34375","17.71875","-28.8125"
"1538484667741","526","0.3330078","0.2939453","-0.053710938","1.5","24.1875","8.0625"
"1538484667741","527","0.3203125","0.19628906","0.025390625","60.15625","14.71875","39.625"
"1538484667939","528","0.37597656","0.0625","-0.055664062","83.59375","7.8125","30.34375"
"1538484667940","529","1.0771484","0.13085938","-0.35351562","69.0625","-22.4375","-4.4375"
"1538484667940","530","2.006836","0.16308594","-0.6845703","79.875","22.15625","-10.0625"
"1538484667940","531","1.6953125","-0.3466797","-0.7705078","71.75","55.96875","-66.84375"
"1538484667940","532","1.0576172","-0.29492188","-0.5527344","-65.09375","32.90625","-46.1875"
"1538484667941","533","0.7910156","0.005859375","-0.31054688","-69.3125","-21.03125","5.5"
"1538484667943","534","0.67871094","-0.0087890625","-0.2529297","-26.21875","-32.53125","32.59375"
"1538484667943","535","0.65625","-0.080078125","-0.1484375","-24.3125","-13.59375","40.53125"
"1538484668137","536","0.7734375","0.07324219","-0.08886719","-61.375","-9.5","38.8125"
"1538484668138","537","1.1503906","0.34472656","-0.123046875","-70.40625","-18.3125","31.1875"
"1538484668138","538","1.3769531","0.5830078","-0.328125","-71.625","-25.25","5.1875"
"1538484668138","539","1.109375","0.7753906","-0.3798828","-59.0","4.03125","6.21875"
"1538484668138","540","1.1494141","0.67285156","-0.42871094","44.40625","27.78125","-26.25"
"1538484668336","541","1.1591797","0.34277344","-0.30566406","96.96875","18.1875","-38.625"
"1538484668336","542","0.8925781","0.12890625","-0.32910156","82.1875","12.03125","-60.84375"
"1538484668337","543","0.6855469","0.125","-0.234375","41.59375","17.59375","-54.6875"
"1538484668337","544","0.4951172","0.2607422","-0.08984375","28.28125","19.71875","-21.90625"
"1538484668338","545","0.375","0.2919922","0.0234375","50.28125","25.21875","18.3125"
"1538484668734","546","0.25195312","0.11230469","0.02734375","85.5","26.125","39.875"
"1538484668734","547","0.49414062","0.09765625","-0.044921875","109.03125","20.15625","18.375"
"1538484668735","548","1.6923828","0.22167969","-0.2705078","77.4375","-31.25","8.5"
"1538484668735","549","1.34375","0.05078125","-0.7763672","143.84375","16.125","-84.09375"
"1538484668735","550","1.5361328","-0.390625","-0.5917969","139.0625","44.5","-66.03125"
"1538484668736","551","1.0996094","-0.31152344","-0.46679688","-28.28125","6.375","-69.09375"
"1538484668736","552","0.85546875","0.14550781","-0.3564453","-18.09375","-20.375","3.78125"
"1538484668934","553","0.6894531","-0.083984375","-0.23144531","58.1875","-18.59375","41.4375"
"1538484668934","554","0.5488281","-0.2109375","-0.13476562","24.03125","-0.34375","37.0625"
"1538484668934","555","1.1826172","0.3076172","-0.19628906","-40.3125","-14.9375","43.84375"
"1538484668934","556","1.4560547","0.5283203","-0.41992188","1.25","2.625","-7.25"
"1538484668935","557","1.0449219","0.2548828","-0.50097656","22.0","32.78125","-12.25"
"1538484668935","558","1.3261719","0.31152344","-0.4453125","24.03125","35.0625","-35.40625"
"1538484668935","559","1.0976562","0.23925781","-0.42089844","57.53125","12.03125","-37.96875"
"1538484669131","560","0.921875","0.061523438","-0.33007812","90.6875","9.21875","-52.96875"
"1538484669131","561","0.7207031","0.08300781","-0.18945312","57.34375","-10.125","-54.1875"
"1538484669131","562","0.484375","0.3203125","-0.0859375","49.0","-7.3125","-49.6875"
"1538484669132","563","0.61621094","0.51171875","0.0625","101.71875","-1.28125","-38.6875"
"1538484669331","564","0.734375","0.40527344","0.015625","158.71875","8.25","-38.625"
"1538484669332","565","1.1728516","0.23730469","-0.28320312","146.8125","-4.1875","-51.5625"
"1538484669332","566","1.3496094","-0.026367188","-0.81933594","139.0","-6.8125","-85.375"
"1538484669332","567","1.8310547","-0.12011719","-1.0576172","81.46875","35.84375","-78.3125"
"1538484669333","568","1.5693359","0.037109375","-0.71484375","21.28125","24.0","-55.28125"
"1538484669333","569","0.9863281","0.038085938","-0.43945312","63.21875","12.84375","-34.34375"
"1538484669528","570","0.68652344","-0.1484375","-0.24707031","57.59375","9.46875","-30.28125"
"1538484669529","571","0.5488281","0.016601562","-0.2529297","22.25","10.375","-33.9375"
"1538484669529","572","0.49902344","0.12402344","-0.35742188","40.8125","16.5","-20.375"
"1538484669529","573","0.6484375","0.07324219","-0.44628906","56.25","28.8125","-6.65625"
"1538484669529","574","0.85839844","0.17382812","-0.45703125","38.625","33.21875","3.96875"
"1538484669727","575","0.90234375","0.23828125","-0.5332031","55.875","33.21875","-0.78125"
"1538484669925","576","1.3710938","0.48339844","-0.38867188","17.375","19.84375","4.78125"
"1538484669928","577","0.93359375","0.8261719","-0.57421875","1.5625","2.9375","1.46875"
"1538484669928","578","1.0498047","0.8642578","-0.4580078","82.1875","12.28125","-4.625"
"1538484669929","579","0.98828125","0.68652344","-0.4169922","130.34375","0.625","-21.78125"
"1538484669929","580","0.8847656","0.34765625","-0.4033203","150.25","19.96875","-48.40625"
"1538484669929","581","0.703125","0.17285156","-0.3125","127.71875","16.0","-55.59375"
"1538484669929","582","0.6464844","0.20214844","-0.20996094","116.625","22.21875","-53.53125"
"1538484669929","583","0.74609375","0.15234375","-0.13183594","122.34375","30.65625","-46.6875"
"1538484669931","584","0.7939453","0.07421875","-0.14355469","111.5","35.0625","-42.46875"
"1538484670124","585","0.9003906","0.017578125","-0.18261719","101.71875","40.59375","-40.78125"
"1538484670124","586","0.9580078","-0.02734375","-0.2265625","88.0","37.25","-36.0"
"1538484670125","587","0.9863281","-0.037109375","-0.296875","70.34375","37.84375","-27.46875"
"1538484670126","588","1.0273438","-0.03515625","-0.30859375","65.40625","39.75","-19.59375"
"1538484670127","589","1.015625","-0.07128906","-0.30859375","56.0625","30.65625","-18.625"
"1538484670522","590","1.0556641","0.0087890625","-0.30273438","38.25","21.75","-19.46875"
"1538484670721","591","0.9902344","0.16894531","-0.29492188","36.28125","18.8125","-18.84375"
"1538484670721","592","1.2128906","0.39453125","-0.32714844","50.9375","13.0625","-20.0"
"1538484670723","593","1.1113281","0.47558594","-0.41015625","83.21875","11.3125","-13.59375"
"1538484670724","594","0.6767578","0.24511719","-0.53027344","83.46875","33.9375","-42.71875"
"1538484670724","595","0.8964844","0.48046875","-0.46972656","25.125","40.46875","-41.0625"
"1538484670724","596","1.1015625","0.7363281","-0.36816406","82.375","25.03125","-28.625"
"1538484670921","597","1.0341797","0.23632812","-0.3720703","150.90625","16.6875","-51.15625"
"1538484670922","598","0.8388672","0.024414062","-0.2998047","108.96875","17.34375","-62.25"
"1538484670922","599","0.64160156","-0.044921875","-0.17089844","90.96875","0.5625","-31.71875"
"1538484670922","600","0.8066406","0.072265625","-0.29003906","11.28125","-0.71875","25.40625"
"1538484670923","601","1.0224609","0.16894531","-0.27929688","8.6875","8.75","34.1875"
"1538484670923","602","0.9316406","0.10839844","-0.33984375","2.125","20.09375","25.59375"
"1538484670923","603","0.8730469","0.099609375","-0.37304688","-15.78125","30.03125","22.34375"
"1538484670923","604","1.0634766","0.21191406","-0.38085938","-22.4375","13.8125","24.125"
"1538484671120","605","1.1152344","0.30273438","-0.4794922","-11.875","-14.625","10.5625"
"1538484671121","606","1.5361328","0.5859375","-0.44140625","-52.6875","-18.84375","16.375"
"1538484671121","607","1.1796875","0.58496094","-0.48339844","38.25","-18.59375","-24.09375"
"1538484671121","608","1.046875","0.14648438","-0.3466797","78.90625","-10.125","-27.21875"
"1538484671121","609","0.78808594","0.08886719","-0.3564453","19.375","-10.71875","-34.46875"
"1538484671317","610","0.6064453","0.24023438","-0.30273438","3.875","10.875","-20.25"
"1538484671317","611","0.5527344","0.29492188","-0.22167969","12.125","23.5625","3.65625"
"1538484671318","612","0.5126953","0.2939453","-0.09375","33.0","35.59375","26.0"
"1538484671319","613","0.5019531","0.15039062","-0.0087890625","58.9375","35.71875","34.6875"
"1538484671319","614","0.5800781","0.015625","-0.080078125","60.8125","14.59375","26.875"
"1538484671514","615","0.98828125","0.0078125","-0.3779297","48.4375","-35.875","5.8125"
"1538484671515","616","1.7519531","0.18261719","-0.7626953","39.78125","0.75","-15.1875"
"1538484671516","617","1.4746094","-0.21972656","-0.7753906","26.09375","37.5","-54.3125"
"1538484671516","618","1.2080078","0.009765625","-0.51660156","-65.34375","18.25","-22.8125"
"1538484671517","619","1.0087891","0.15527344","-0.265625","-28.40625","-14.5","10.8125"
"1538484671714","620","0.6855469","0.0234375","-0.19140625","14.3125","-14.6875","27.34375"
"1538484671714","621","0.63671875","-0.125","-0.17089844","28.21875","-3.59375","13.1875"
"1538484671715","622","0.5625","-0.18847656","-0.119140625","-10.09375","2.15625","21.4375"
"1538484672111","623","0.47753906","-0.22363281","-0.15820312","-20.96875","-9.25","14.34375"
"1538484672111","624","1.2167969","0.07128906","-0.35546875","-77.46875","-70.90625","10.0"
"1538484672112","625","1.8945312","1.2148438","-0.26660156","-203.46875","-32.875","69.78125"
"1538484672112","626","1.0820312","1.0449219","-0.6777344","-22.375","27.65625","3.1875"
"1538484672114","627","0.7314453","0.265625","-0.41796875","20.78125","34.75","-0.125"
"1538484672114","628","0.6152344","0.4033203","-0.24316406","-44.21875","34.5625","-18.96875"
"1538484672115","629","0.6796875","0.39160156","-0.1015625","5.84375","32.0","16.84375"
"1538484672116","630","0.6972656","0.08886719","-0.029296875","16.9375","35.34375","27.65625"
"1538484672116","631","0.78027344","0.06640625","0.032226562","-5.03125","40.0625","37.59375"
"1538484672311","632","1.3798828","-0.0068359375","-0.61035156","84.03125","22.78125","-14.875"
"1538484672311","633","1.6533203","0.06933594","-0.3154297","28.96875","33.40625","-32.15625"
"1538484672311","634","1.2226562","0.037109375","-0.40234375","16.21875","11.71875","-24.78125"
"1538484672312","635","1.0068359","0.09863281","-0.11328125","38.3125","5.6875","-10.84375"
"1538484672312","636","0.7675781","-0.05078125","-0.0546875","54.34375","-6.8125","0.0"
"1538484672510","637","0.84472656","-0.037109375","-0.1484375","33.4375","-10.90625","-6.03125"
