# Sensor position: Wrist
# Sensor side: Left
# Activity type: Lying down right
# Activity code: 6
# Subject id: s1701688
timestamp,seq,accel_x,accel_y,accel_z
1601045022003,0,-0.19873047,-0.35040283,0.9279175
1601045022004,1,-0.19873047,-0.35040283,0.9279175
1601045022006,2,-0.19873047,-0.35040283,0.9279175
1601045022006,3,-0.19873047,-0.35040283,0.9279175
1601045022006,4,-0.16455078,-0.347229,0.99017334
1601045022010,5,-0.16455078,-0.347229,0.99017334
1601045022010,6,-0.16455078,-0.347229,0.99017334
1601045022010,7,-0.16455078,-0.347229,0.99017334
1601045022010,8,-0.12792969,-0.32330322,1.0026245
1601045022013,9,-0.12792969,-0.32330322,1.0026245
1601045022013,10,-0.12792969,-0.32330322,1.0026245
1601045022013,11,-0.12792969,-0.32330322,1.0026245
1601045022014,12,-0.13427734,-0.23834229,0.95062256
1601045022014,13,-0.13427734,-0.23834229,0.95062256
1601045022014,14,-0.13427734,-0.23834229,0.95062256
1601045022014,15,-0.13427734,-0.23834229,0.95062256
1601045022014,16,-0.13354492,-0.1897583,0.92059326
1601045022014,17,-0.13354492,-0.1897583,0.92059326
1601045022014,18,-0.13354492,-0.1897583,0.92059326
1601045022015,19,-0.10473633,-0.20367432,0.9611206
1601045022017,20,-0.13354492,-0.1897583,0.92059326
1601045022018,21,-0.10473633,-0.20367432,0.9611206
1601045022018,22,-0.10473633,-0.20367432,0.9611206
1601045022018,23,-0.103515625,-0.269104,0.9581909
1601045022018,24,-0.09643555,-0.22589111,0.93963623
1601045022020,25,-0.10107422,-0.2522583,0.96990967
1601045022021,26,-0.103515625,-0.269104,0.9581909
1601045022022,27,-0.10473633,-0.20367432,0.9611206
1601045022022,28,-0.103515625,-0.269104,0.9581909
1601045022022,29,-0.11328125,-0.23052979,0.99749756
1601045022022,30,-0.13647461,-0.12506104,0.9328003
1601045022022,31,-0.09643555,-0.22589111,0.93963623
1601045022023,32,-0.09643555,-0.22589111,0.93963623
1601045022023,33,-0.10107422,-0.2522583,0.96990967
1601045022024,34,-0.14770508,-0.16925049,0.9335327
1601045022024,35,-0.11328125,-0.23052979,0.99749756
1601045022025,36,-0.17333984,-0.23077393,0.95062256
1601045022031,37,-0.10107422,-0.2522583,0.96990967
1601045022032,38,-0.13647461,-0.12506104,0.9328003
1601045022032,39,-0.103515625,-0.269104,0.9581909
1601045022032,40,-0.14770508,-0.16925049,0.9335327
1601045022032,41,-0.11328125,-0.23052979,0.99749756
1601045022032,42,-0.09643555,-0.22589111,0.93963623
1601045022032,43,-0.13647461,-0.12506104,0.9328003
1601045022032,44,-0.16308594,-0.30181885,0.95721436
1601045022033,45,-0.10107422,-0.2522583,0.96990967
1601045022033,46,-0.11328125,-0.23052979,0.99749756
1601045022033,47,-0.14770508,-0.16925049,0.9335327
1601045022033,48,-0.17333984,-0.23077393,0.95062256
1601045022033,49,-0.14428711,-0.28814697,0.951355
1601045022033,50,-0.16308594,-0.30181885,0.95721436
1601045022035,51,-0.13647461,-0.12506104,0.9328003
1601045022036,52,-0.14428711,-0.28814697,0.951355
1601045022036,53,-0.15136719,-0.27642822,0.94940186
1601045022036,54,-0.17333984,-0.23077393,0.95062256
1601045022039,55,-0.14770508,-0.16925049,0.9335327
1601045022039,56,-0.15136719,-0.27642822,0.94940186
1601045022039,57,-0.16308594,-0.30181885,0.95721436
1601045022039,58,-0.15478516,-0.23858643,0.951355
1601045022041,59,-0.17333984,-0.23077393,0.95062256
1601045022042,60,-0.14428711,-0.28814697,0.951355
1601045022042,61,-0.15478516,-0.23858643,0.951355
1601045022042,62,-0.14282227,-0.23345947,0.9520874
1601045022044,63,-0.16308594,-0.30181885,0.95721436
1601045022044,64,-0.14282227,-0.23345947,0.9520874
1601045022044,65,-0.15136719,-0.27642822,0.94940186
1601045022045,66,-0.12792969,-0.22393799,0.9533081
1601045022045,67,-0.14428711,-0.28814697,0.951355
1601045022045,68,-0.12792969,-0.22393799,0.9533081
1601045022045,69,-0.13574219,-0.23712158,0.9476929
1601045022046,70,-0.15136719,-0.27642822,0.94940186
1601045022046,71,-0.13574219,-0.23712158,0.9476929
1601045022046,72,-0.15478516,-0.23858643,0.951355
1601045022047,73,-0.1418457,-0.24810791,0.9503784
1601045022050,74,-0.1418457,-0.24810791,0.9503784
1601045022050,75,-0.14550781,-0.25030518,0.9489136
1601045022050,76,-0.14282227,-0.23345947,0.9520874
1601045022050,77,-0.15478516,-0.23858643,0.951355
1601045022050,78,-0.12792969,-0.22393799,0.9533081
1601045022050,79,-0.14282227,-0.23345947,0.9520874
1601045022052,80,-0.14794922,-0.24884033,0.949646
1601045022052,81,-0.13574219,-0.23712158,0.9476929
1601045022053,82,-0.14550781,-0.25030518,0.9489136
1601045022053,83,-0.12792969,-0.22393799,0.9533081
1601045022053,84,-0.14794922,-0.24932861,0.94866943
1601045022053,85,-0.1418457,-0.24810791,0.9503784
1601045022053,86,-0.13574219,-0.23712158,0.9476929
1601045022055,87,-0.14257812,-0.2546997,0.94744873
1601045022055,88,-0.14794922,-0.24884033,0.949646
1601045022055,89,-0.14550781,-0.25030518,0.9489136
1601045022055,90,-0.1418457,-0.24810791,0.9503784
1601045022055,91,-0.14550781,-0.25030518,0.9489136
1601045022059,92,-0.14794922,-0.24884033,0.949646
1601045022059,93,-0.14868164,-0.25543213,0.9430542
1601045022060,94,-0.14794922,-0.24884033,0.949646
1601045022060,95,-0.14794922,-0.24932861,0.94866943
1601045022060,96,-0.14550781,-0.24786377,0.9491577
1601045022060,97,-0.14794922,-0.24932861,0.94866943
1601045022060,98,-0.14257812,-0.2546997,0.94744873
1601045022060,99,-0.14794922,-0.24932861,0.94866943
1601045022060,100,-0.14697266,-0.24884033,0.9454956
1601045022061,101,-0.14257812,-0.2546997,0.94744873
1601045022067,102,-0.14868164,-0.25543213,0.9430542
1601045022068,103,-0.14257812,-0.2546997,0.94744873
1601045022071,104,-0.14648438,-0.25323486,0.9472046
1601045022071,105,-0.14868164,-0.25543213,0.9430542
1601045022073,106,-0.14550781,-0.24786377,0.9491577
1601045022073,107,-0.14868164,-0.25543213,0.9430542
1601045022074,108,-0.14550781,-0.24786377,0.9491577
1601045022074,109,-0.14794922,-0.253479,0.94403076
1601045022074,110,-0.14550781,-0.24786377,0.9491577
1601045022074,111,-0.14697266,-0.24884033,0.9454956
1601045022074,112,-0.14697266,-0.24884033,0.9454956
1601045022074,113,-0.14794922,-0.25372314,0.94647217
1601045022074,114,-0.14697266,-0.24884033,0.9454956
1601045022074,115,-0.14648438,-0.25323486,0.9472046
1601045022074,116,-0.1496582,-0.2564087,0.947937
1601045022074,117,-0.14648438,-0.25323486,0.9472046
1601045022074,118,-0.14648438,-0.25323486,0.9472046
1601045022074,119,-0.14794922,-0.253479,0.94403076
1601045022075,120,-0.14794922,-0.253479,0.94403076
1601045022076,121,-0.14794922,-0.253479,0.94403076
1601045022076,122,-0.14794922,-0.25372314,0.94647217
1601045022076,123,-0.14794922,-0.25372314,0.94647217
1601045022076,124,-0.14794922,-0.25372314,0.94647217
1601045022076,125,-0.1496582,-0.2564087,0.947937
1601045022077,126,-0.1496582,-0.2564087,0.947937
1601045022077,127,-0.1496582,-0.2564087,0.947937
1601045024530,128,-0.14990234,-0.25811768,0.94525146
1601045024531,129,-0.14990234,-0.25811768,0.94525146
1601045024532,130,-0.14477539,-0.25250244,0.94818115
1601045024532,131,-0.14990234,-0.25811768,0.94525146
1601045024532,132,-0.14477539,-0.25250244,0.94818115
1601045024532,133,-0.15039062,-0.25250244,0.94940186
1601045024532,134,-0.15039062,-0.25250244,0.94940186
1601045024533,135,-0.14550781,-0.25421143,0.9430542
1601045024533,136,-0.14477539,-0.25250244,0.94818115
1601045024533,137,-0.14868164,-0.24786377,0.94744873
1601045024534,138,-0.14550781,-0.25421143,0.9430542
1601045024534,139,-0.15039062,-0.25250244,0.94940186
1601045024534,140,-0.14868164,-0.24786377,0.94744873
1601045024535,141,-0.14990234,-0.25811768,0.94525146
1601045024535,142,-0.14379883,-0.2510376,0.9503784
1601045024536,143,-0.14550781,-0.25421143,0.9430542
1601045024536,144,-0.14379883,-0.2510376,0.9503784
1601045024536,145,-0.14477539,-0.25250244,0.94818115
1601045024536,146,-0.14331055,-0.26055908,0.9484253
1601045024537,147,-0.14868164,-0.24786377,0.94744873
1601045024537,148,-0.14404297,-0.24932861,0.9447632
1601045024537,149,-0.14331055,-0.26055908,0.9484253
1601045024538,150,-0.15039062,-0.25250244,0.94940186
1601045024538,151,-0.14379883,-0.2510376,0.9503784
1601045024538,152,-0.14404297,-0.24932861,0.9447632
1601045024539,153,-0.14550781,-0.25421143,0.9430542
1601045024544,154,-0.14331055,-0.26055908,0.9484253
1601045024545,155,-0.14233398,-0.25543213,0.9476929
1601045024545,156,-0.14233398,-0.25543213,0.9476929
1601045024550,157,-0.14404297,-0.24932861,0.9447632
1601045024550,158,-0.14868164,-0.24786377,0.94744873
1601045024550,159,-0.14233398,-0.25543213,0.9476929
1601045024550,160,-0.13769531,-0.2539673,0.9489136
1601045024550,161,-0.13769531,-0.2539673,0.9489136
1601045024550,162,-0.13769531,-0.2539673,0.9489136
1601045024551,163,-0.14453125,-0.25299072,0.9472046
1601045024551,164,-0.14379883,-0.2510376,0.9503784
1601045024551,165,-0.14453125,-0.25299072,0.9472046
1601045024551,166,-0.14355469,-0.2522583,0.9484253
1601045024551,167,-0.14355469,-0.2522583,0.9484253
1601045024551,168,-0.13916016,-0.25006104,0.949646
1601045024551,169,-0.14453125,-0.25299072,0.9472046
1601045024551,170,-0.13916016,-0.25006104,0.949646
1601045024552,171,-0.14331055,-0.26055908,0.9484253
1601045024552,172,-0.13891602,-0.25054932,0.9484253
1601045024552,173,-0.13891602,-0.25054932,0.9484253
1601045024553,174,-0.1418457,-0.24371338,0.9520874
1601045024553,175,-0.14404297,-0.24932861,0.9447632
1601045024553,176,-0.14355469,-0.2522583,0.9484253
1601045024553,177,-0.1418457,-0.24371338,0.9520874
1601045024553,178,-0.14379883,-0.24517822,0.9476929
1601045024554,179,-0.13916016,-0.25006104,0.949646
1601045024554,180,-0.14379883,-0.24517822,0.9476929
1601045024555,181,-0.14233398,-0.25543213,0.9476929
1601045024555,182,-0.14013672,-0.2444458,0.9472046
1601045024555,183,-0.13891602,-0.25054932,0.9484253
1601045024555,184,-0.14013672,-0.2444458,0.9472046
1601045024556,185,-0.13769531,-0.2539673,0.9489136
1601045024556,186,-0.14233398,-0.24884033,0.94744873
1601045024557,187,-0.14233398,-0.24884033,0.94744873
1601045024558,188,-0.14453125,-0.25299072,0.9472046
1601045024558,189,-0.1418457,-0.24371338,0.9520874
1601045024558,190,-0.14086914,-0.25054932,0.9520874
1601045024558,191,-0.14086914,-0.25054932,0.9520874
1601045024559,192,-0.14355469,-0.2522583,0.9484253
1601045024559,193,-0.13793945,-0.23956299,0.9528198
1601045024561,194,-0.13916016,-0.25006104,0.949646
1601045024561,195,-0.13793945,-0.23956299,0.9528198
1601045024562,196,-0.13647461,-0.24127197,0.94866943
1601045024562,197,-0.13891602,-0.25054932,0.9484253
1601045024562,198,-0.13647461,-0.24127197,0.94866943
1601045024562,199,-0.13647461,-0.24713135,0.9489136
1601045024562,200,-0.14379883,-0.24517822,0.9476929
1601045024563,201,-0.13964844,-0.2456665,0.9491577
1601045024563,202,-0.1418457,-0.24371338,0.9520874
1601045024563,203,-0.14013672,-0.2444458,0.9472046
1601045024563,204,-0.1394043,-0.24884033,0.9503784
1601045024564,205,-0.14233398,-0.24884033,0.94744873
1601045024564,206,-0.14379883,-0.24517822,0.9476929
1601045024564,207,-0.13598633,-0.24884033,0.9491577
1601045024565,208,-0.14086914,-0.25054932,0.9520874
1601045024565,209,-0.14013672,-0.2444458,0.9472046
1601045024565,210,-0.1381836,-0.24761963,0.94818115
1601045024565,211,-0.14233398,-0.24884033,0.94744873
1601045024566,212,-0.13769531,-0.25299072,0.9484253
1601045024566,213,-0.14086914,-0.25054932,0.9520874
1601045024567,214,-0.13647461,-0.24713135,0.9489136
1601045024567,215,-0.13793945,-0.23956299,0.9528198
1601045024567,216,-0.13745117,-0.2571411,0.94696045
1601045024567,217,-0.13793945,-0.23956299,0.9528198
1601045024568,218,-0.13647461,-0.24127197,0.94866943
1601045024568,219,-0.14233398,-0.2559204,0.946228
1601045024568,220,-0.13647461,-0.24127197,0.94866943
1601045024569,221,-0.13647461,-0.24713135,0.9489136
1601045024569,222,-0.13964844,-0.2456665,0.9491577
1601045024570,223,-0.13647461,-0.24713135,0.9489136
1601045024570,224,-0.13964844,-0.2456665,0.9491577
1601045024571,225,-0.13964844,-0.25079346,0.949646
1601045024571,226,-0.1394043,-0.24884033,0.9503784
1601045024571,227,-0.13964844,-0.2456665,0.9491577
1601045024571,228,-0.1394043,-0.24884033,0.9503784
1601045024571,229,-0.14013672,-0.25567627,0.9459839
1601045024571,230,-0.13598633,-0.24884033,0.9491577
1601045024573,231,-0.13598633,-0.24884033,0.9491577
1601045024573,232,-0.14355469,-0.25958252,0.94403076
1601045024573,233,-0.1394043,-0.24884033,0.9503784
1601045024574,234,-0.1381836,-0.24761963,0.94818115
1601045024574,235,-0.1381836,-0.24761963,0.94818115
1601045024574,236,-0.13598633,-0.24884033,0.9491577
1601045024575,237,-0.13769531,-0.25299072,0.9484253
1601045024575,238,-0.1381836,-0.24761963,0.94818115
1601045024576,239,-0.13745117,-0.2571411,0.94696045
1601045024576,240,-0.13769531,-0.25299072,0.9484253
1601045024577,241,-0.13769531,-0.25299072,0.9484253
1601045024577,242,-0.13745117,-0.2571411,0.94696045
1601045024578,243,-0.13745117,-0.2571411,0.94696045
1601045024578,244,-0.14233398,-0.2559204,0.946228
1601045024579,245,-0.14233398,-0.2559204,0.946228
1601045024579,246,-0.14233398,-0.2559204,0.946228
1601045024579,247,-0.13964844,-0.25079346,0.949646
1601045024580,248,-0.14013672,-0.25567627,0.9459839
1601045024581,249,-0.13964844,-0.25079346,0.949646
1601045024581,250,-0.13964844,-0.25079346,0.949646
1601045024581,251,-0.14355469,-0.25958252,0.94403076
1601045024581,252,-0.14013672,-0.25567627,0.9459839
1601045024582,253,-0.14013672,-0.25567627,0.9459839
1601045024582,254,-0.14355469,-0.25958252,0.94403076
1601045024583,255,-0.14355469,-0.25958252,0.94403076
1601045027458,256,-0.14233398,-0.25909424,0.94207764
1601045027459,257,-0.14233398,-0.25909424,0.94207764
1601045027461,258,-0.14233398,-0.25909424,0.94207764
1601045027462,259,-0.14233398,-0.25909424,0.94207764
1601045027463,260,-0.14208984,-0.25909424,0.94281006
1601045027464,261,-0.14208984,-0.25909424,0.94281006
1601045027466,262,-0.14208984,-0.25909424,0.94281006
1601045027467,263,-0.13916016,-0.25909424,0.94403076
1601045027473,264,-0.14355469,-0.26104736,0.94818115
1601045027474,265,-0.14379883,-0.2600708,0.94573975
1601045027475,266,-0.14208984,-0.25909424,0.94281006
1601045027475,267,-0.13916016,-0.25909424,0.94403076
1601045027475,268,-0.14282227,-0.2637329,0.94573975
1601045027475,269,-0.13916016,-0.25909424,0.94403076
1601045027476,270,-0.13916016,-0.25909424,0.94403076
1601045027476,271,-0.14355469,-0.26104736,0.94818115
1601045027476,272,-0.14501953,-0.26080322,0.94525146
1601045027476,273,-0.14355469,-0.26104736,0.94818115
1601045027476,274,-0.14355469,-0.26104736,0.94818115
1601045027477,275,-0.14257812,-0.26104736,0.9430542
1601045027477,276,-0.14379883,-0.2600708,0.94573975
1601045027478,277,-0.14379883,-0.2600708,0.94573975
1601045027483,278,-0.14038086,-0.27716064,0.94451904
1601045027483,279,-0.14282227,-0.2637329,0.94573975
1601045027483,280,-0.14379883,-0.2600708,0.94573975
1601045027483,281,-0.14282227,-0.2637329,0.94573975
1601045027484,282,-0.14282227,-0.2637329,0.94573975
1601045027484,283,-0.14501953,-0.26080322,0.94525146
1601045027484,284,-0.14501953,-0.26080322,0.94525146
1601045027484,285,-0.14501953,-0.26080322,0.94525146
1601045027488,286,-0.14257812,-0.26104736,0.9430542
1601045027488,287,-0.14257812,-0.26104736,0.9430542
1601045027488,288,-0.14404297,-0.26519775,0.9435425
1601045027489,289,-0.14257812,-0.26104736,0.9430542
1601045027492,290,-0.14038086,-0.27716064,0.94451904
1601045027493,291,-0.14038086,-0.27716064,0.94451904
1601045027493,292,-0.14038086,-0.27716064,0.94451904
1601045027494,293,-0.1430664,-0.26861572,0.9425659
1601045027497,294,-0.14404297,-0.26519775,0.9435425
1601045027497,295,-0.14086914,-0.27056885,0.94281006
1601045027497,296,-0.1430664,-0.26861572,0.9425659
1601045027498,297,-0.1430664,-0.27008057,0.94281006
1601045027499,298,-0.14404297,-0.26519775,0.9435425
1601045027501,299,-0.14086914,-0.27056885,0.94281006
1601045027501,300,-0.1430664,-0.26861572,0.9425659
1601045027502,301,-0.14404297,-0.26519775,0.9435425
1601045027503,302,-0.14013672,-0.2732544,0.9437866
1601045027504,303,-0.14086914,-0.27056885,0.94281006
1601045027504,304,-0.1430664,-0.27008057,0.94281006
1601045027505,305,-0.1430664,-0.26861572,0.9425659
1601045027512,306,-0.1430664,-0.27008057,0.94281006
1601045027512,307,-0.1430664,-0.26641846,0.94085693
1601045027512,308,-0.14013672,-0.2732544,0.9437866
1601045027512,309,-0.14086914,-0.27056885,0.94281006
1601045027512,310,-0.14013672,-0.2732544,0.9437866
1601045027513,311,-0.1430664,-0.27008057,0.94281006
1601045027513,312,-0.1430664,-0.26641846,0.94085693
1601045027514,313,-0.1430664,-0.26641846,0.94085693
1601045027514,314,-0.14013672,-0.2732544,0.9437866
1601045027515,315,-0.13964844,-0.2678833,0.9442749
1601045027516,316,-0.13964844,-0.2678833,0.9442749
1601045027516,317,-0.13964844,-0.2678833,0.9442749
1601045027516,318,-0.1430664,-0.26641846,0.94085693
1601045027516,319,-0.13793945,-0.27178955,0.94329834
1601045027517,320,-0.13793945,-0.27178955,0.94329834
1601045027517,321,-0.13793945,-0.27178955,0.94329834
1601045027519,322,-0.140625,-0.2695923,0.9425659
1601045027519,323,-0.140625,-0.2695923,0.9425659
1601045027520,324,-0.140625,-0.2695923,0.9425659
1601045027520,325,-0.13964844,-0.2678833,0.9442749
1601045027521,326,-0.14013672,-0.27056885,0.9437866
1601045027522,327,-0.14013672,-0.27056885,0.9437866
1601045027523,328,-0.14013672,-0.2649536,0.94329834
1601045027524,329,-0.14013672,-0.27056885,0.9437866
1601045027525,330,-0.13793945,-0.27178955,0.94329834
1601045027532,331,-0.14013672,-0.2649536,0.94329834
1601045027532,332,-0.14013672,-0.2649536,0.94329834
1601045027532,333,-0.13989258,-0.2695923,0.9406128
1601045027533,334,-0.140625,-0.2695923,0.9425659
1601045027534,335,-0.13989258,-0.2695923,0.9406128
1601045027538,336,-0.13989258,-0.2695923,0.9406128
1601045027538,337,-0.13964844,-0.27056885,0.9425659
1601045027538,338,-0.14013672,-0.27056885,0.9437866
1601045027538,339,-0.13964844,-0.27056885,0.9425659
1601045027542,340,-0.13891602,-0.26690674,0.9435425
1601045027542,341,-0.14013672,-0.2649536,0.94329834
1601045027542,342,-0.13891602,-0.26690674,0.9435425
1601045027542,343,-0.13964844,-0.27056885,0.9425659
1601045027546,344,-0.13623047,-0.26812744,0.94647217
1601045027546,345,-0.13623047,-0.26812744,0.94647217
1601045027546,346,-0.13891602,-0.26690674,0.9435425
1601045027547,347,-0.13916016,-0.2678833,0.94525146
1601045027547,348,-0.13916016,-0.2678833,0.94525146
1601045027549,349,-0.13623047,-0.26812744,0.94647217
1601045027549,350,-0.13989258,-0.2695923,0.9406128
1601045027549,351,-0.13793945,-0.27252197,0.9430542
1601045027550,352,-0.13793945,-0.27252197,0.9430542
1601045027550,353,-0.1381836,-0.2630005,0.9430542
1601045027550,354,-0.13916016,-0.2678833,0.94525146
1601045027550,355,-0.13793945,-0.27252197,0.9430542
1601045027551,356,-0.13964844,-0.27056885,0.9425659
1601045027551,357,-0.1381836,-0.2630005,0.9430542
1601045027551,358,-0.1381836,-0.2630005,0.9430542
1601045027551,359,-0.13696289,-0.2695923,0.94403076
1601045027552,360,-0.13696289,-0.2695923,0.94403076
1601045027552,361,-0.13891602,-0.26690674,0.9435425
1601045027552,362,-0.13696289,-0.2695923,0.94403076
1601045027553,363,-0.14038086,-0.26983643,0.9430542
1601045027553,364,-0.14038086,-0.26983643,0.9430542
1601045027553,365,-0.13623047,-0.26812744,0.94647217
1601045027554,366,-0.140625,-0.26739502,0.94329834
1601045027555,367,-0.14038086,-0.26983643,0.9430542
1601045027555,368,-0.13916016,-0.2678833,0.94525146
1601045027555,369,-0.140625,-0.26739502,0.94329834
1601045027556,370,-0.13671875,-0.26617432,0.9450073
1601045027557,371,-0.140625,-0.26739502,0.94329834
1601045027557,372,-0.13793945,-0.27252197,0.9430542
1601045027557,373,-0.13671875,-0.26617432,0.9450073
1601045027557,374,-0.13671875,-0.26617432,0.9450073
1601045027557,375,-0.13745117,-0.26885986,0.9435425
1601045027558,376,-0.1381836,-0.2630005,0.9430542
1601045027558,377,-0.13745117,-0.26885986,0.9435425
1601045027558,378,-0.13745117,-0.26885986,0.9435425
1601045027558,379,-0.13696289,-0.2695923,0.94403076
1601045027563,380,-0.14038086,-0.26983643,0.9430542
1601045027566,381,-0.140625,-0.26739502,0.94329834
1601045027574,382,-0.13671875,-0.26617432,0.9450073
1601045027575,383,-0.13745117,-0.26885986,0.9435425
1601045029949,384,-0.13989258,-0.26690674,0.94647217
1601045029951,385,-0.13989258,-0.26690674,0.94647217
1601045029952,386,-0.1381836,-0.2715454,0.9447632
1601045029952,387,-0.13989258,-0.26690674,0.94647217
1601045029952,388,-0.13989258,-0.26690674,0.94647217
1601045029952,389,-0.1381836,-0.2715454,0.9447632
1601045029952,390,-0.13623047,-0.27130127,0.94329834
1601045029952,391,-0.1381836,-0.2715454,0.9447632
1601045029952,392,-0.1381836,-0.2715454,0.9447632
1601045029952,393,-0.13623047,-0.27130127,0.94329834
1601045029952,394,-0.13623047,-0.27130127,0.94329834
1601045029952,395,-0.13623047,-0.27130127,0.94329834
1601045029953,396,-0.1381836,-0.269104,0.94451904
1601045029953,397,-0.1381836,-0.269104,0.94451904
1601045029953,398,-0.1381836,-0.269104,0.94451904
1601045029953,399,-0.1381836,-0.269104,0.94451904
1601045029953,400,-0.13916016,-0.270813,0.94158936
1601045029953,401,-0.13916016,-0.270813,0.94158936
1601045029953,402,-0.13916016,-0.270813,0.94158936
1601045029953,403,-0.1394043,-0.27056885,0.94329834
1601045029953,404,-0.1394043,-0.27056885,0.94329834
1601045029953,405,-0.1394043,-0.27056885,0.94329834
1601045029953,406,-0.13916016,-0.270813,0.94158936
1601045029954,407,-0.1394043,-0.27178955,0.93963623
1601045029954,408,-0.1394043,-0.27056885,0.94329834
1601045029954,409,-0.1394043,-0.27178955,0.93963623
1601045029954,410,-0.1394043,-0.27178955,0.93963623
1601045029961,411,-0.14160156,-0.269104,0.9450073
1601045029962,412,-0.14160156,-0.269104,0.9450073
1601045029962,413,-0.14160156,-0.269104,0.9450073
1601045029962,414,-0.14013672,-0.2678833,0.94525146
1601045029962,415,-0.1394043,-0.27178955,0.93963623
1601045029962,416,-0.14013672,-0.2678833,0.94525146
1601045029962,417,-0.13867188,-0.2756958,0.94525146
1601045029962,418,-0.14013672,-0.2678833,0.94525146
1601045029963,419,-0.13867188,-0.2756958,0.94525146
1601045029963,420,-0.14160156,-0.269104,0.9450073
1601045029963,421,-0.14135742,-0.2678833,0.94329834
1601045029963,422,-0.14135742,-0.2678833,0.94329834
1601045029963,423,-0.14013672,-0.2678833,0.94525146
1601045029963,424,-0.13867188,-0.2756958,0.94525146
1601045029963,425,-0.14111328,-0.27130127,0.94451904
1601045029963,426,-0.13867188,-0.2756958,0.94525146
1601045029963,427,-0.14135742,-0.2678833,0.94329834
1601045029963,428,-0.13867188,-0.27301025,0.9454956
1601045029963,429,-0.14135742,-0.2678833,0.94329834
1601045029964,430,-0.14111328,-0.27130127,0.94451904
1601045029964,431,-0.14111328,-0.27130127,0.94451904
1601045029964,432,-0.14111328,-0.27130127,0.94451904
1601045029964,433,-0.14160156,-0.2703247,0.9418335
1601045029964,434,-0.13867188,-0.27301025,0.9454956
1601045029964,435,-0.13867188,-0.27301025,0.9454956
1601045029964,436,-0.13867188,-0.27301025,0.9454956
1601045029992,437,-0.14160156,-0.2703247,0.9418335
1601045029993,438,-0.14160156,-0.2703247,0.9418335
1601045029993,439,-0.14160156,-0.2703247,0.9418335
1601045029993,440,-0.1418457,-0.27667236,0.94281006
1601045029993,441,-0.1418457,-0.27667236,0.94281006
1601045029993,442,-0.1418457,-0.27667236,0.94281006
1601045029993,443,-0.14160156,-0.27520752,0.9435425
1601045029993,444,-0.1418457,-0.27667236,0.94281006
1601045029993,445,-0.14160156,-0.27520752,0.9435425
1601045029993,446,-0.14160156,-0.27520752,0.9435425
1601045029995,447,-0.13916016,-0.2727661,0.9430542
1601045029995,448,-0.13916016,-0.2727661,0.9430542
1601045029995,449,-0.13916016,-0.2727661,0.9430542
1601045029995,450,-0.14160156,-0.27520752,0.9435425
1601045030006,451,-0.14453125,-0.27374268,0.94329834
1601045030006,452,-0.13916016,-0.2727661,0.9430542
1601045030006,453,-0.14453125,-0.27374268,0.94329834
1601045030006,454,-0.14453125,-0.27374268,0.94329834
1601045030006,455,-0.14379883,-0.27178955,0.9442749
1601045030006,456,-0.14379883,-0.27178955,0.9442749
1601045030006,457,-0.14453125,-0.27374268,0.94329834
1601045030006,458,-0.14379883,-0.27178955,0.9442749
1601045030006,459,-0.14086914,-0.2720337,0.94281006
1601045030007,460,-0.14379883,-0.27178955,0.9442749
1601045030012,461,-0.14086914,-0.2720337,0.94281006
1601045030012,462,-0.14233398,-0.26739502,0.94085693
1601045030012,463,-0.14233398,-0.26739502,0.94085693
1601045030012,464,-0.14086914,-0.2720337,0.94281006
1601045030013,465,-0.14086914,-0.2720337,0.94281006
1601045030013,466,-0.140625,-0.27301025,0.9450073
1601045030013,467,-0.140625,-0.27301025,0.9450073
1601045030013,468,-0.1381836,-0.27056885,0.94573975
1601045030013,469,-0.1381836,-0.27056885,0.94573975
1601045030013,470,-0.14233398,-0.26739502,0.94085693
1601045030013,471,-0.14013672,-0.2695923,0.94573975
1601045030014,472,-0.140625,-0.27301025,0.9450073
1601045030014,473,-0.14013672,-0.2695923,0.94573975
1601045030014,474,-0.14233398,-0.26739502,0.94085693
1601045030015,475,-0.1394043,-0.27301025,0.9450073
1601045030016,476,-0.140625,-0.27301025,0.9450073
1601045030029,477,-0.1381836,-0.27056885,0.94573975
1601045030030,478,-0.13964844,-0.27056885,0.9459839
1601045030030,479,-0.1394043,-0.27301025,0.9450073
1601045030030,480,-0.13867188,-0.2720337,0.94403076
1601045030030,481,-0.1381836,-0.27056885,0.94573975
1601045030030,482,-0.13916016,-0.2678833,0.9413452
1601045030030,483,-0.14013672,-0.2695923,0.94573975
1601045030030,484,-0.1394043,-0.27301025,0.9450073
1601045030030,485,-0.13842773,-0.26690674,0.9435425
1601045030030,486,-0.13964844,-0.27056885,0.9459839
1601045030030,487,-0.13964844,-0.27056885,0.9459839
1601045030031,488,-0.13867188,-0.2720337,0.94403076
1601045030031,489,-0.13916016,-0.2678833,0.9413452
1601045030031,490,-0.13842773,-0.26690674,0.9435425
1601045030031,491,-0.13891602,-0.26983643,0.94696045
1601045030031,492,-0.13867188,-0.2720337,0.94403076
1601045030031,493,-0.13916016,-0.2678833,0.9413452
1601045030031,494,-0.13720703,-0.27178955,0.9447632
1601045030031,495,-0.13842773,-0.26690674,0.9435425
1601045030033,496,-0.1381836,-0.2654419,0.9447632
1601045030033,497,-0.13891602,-0.26983643,0.94696045
1601045030035,498,-0.14013672,-0.2695923,0.94573975
1601045030035,499,-0.13891602,-0.26983643,0.94696045
1601045030035,500,-0.13720703,-0.27178955,0.9447632
1601045030035,501,-0.1394043,-0.27301025,0.9450073
1601045030037,502,-0.1381836,-0.2654419,0.9447632
1601045030037,503,-0.13964844,-0.27056885,0.9459839
1601045030037,504,-0.13720703,-0.27178955,0.9447632
1601045030037,505,-0.13867188,-0.2720337,0.94403076
1601045030037,506,-0.1381836,-0.2654419,0.9447632
1601045030037,507,-0.13916016,-0.2678833,0.9413452
1601045030038,508,-0.13842773,-0.26690674,0.9435425
1601045030038,509,-0.13891602,-0.26983643,0.94696045
1601045030039,510,-0.13720703,-0.27178955,0.9447632
1601045030040,511,-0.1381836,-0.2654419,0.9447632
1601045032333,512,-0.1394043,-0.27227783,0.94647217
1601045032333,513,-0.1394043,-0.27227783,0.94647217
1601045032334,514,-0.13647461,-0.26519775,0.9447632
1601045032337,515,-0.13647461,-0.26519775,0.9447632
1601045032337,516,-0.1394043,-0.27227783,0.94647217
1601045032337,517,-0.13574219,-0.2637329,0.9442749
1601045032337,518,-0.13647461,-0.26519775,0.9447632
1601045032338,519,-0.13574219,-0.2637329,0.9442749
1601045032338,520,-0.13574219,-0.2637329,0.9442749
1601045032339,521,-0.1394043,-0.27227783,0.94647217
1601045032340,522,-0.13623047,-0.2654419,0.9430542
1601045032340,523,-0.13623047,-0.2654419,0.9430542
1601045032344,524,-0.13916016,-0.2732544,0.9447632
1601045032345,525,-0.13623047,-0.2654419,0.9430542
1601045032345,526,-0.13916016,-0.2732544,0.9447632
1601045032346,527,-0.13623047,-0.27349854,0.94647217
1601045032346,528,-0.13623047,-0.27349854,0.94647217
1601045032347,529,-0.13916016,-0.2732544,0.9447632
1601045032347,530,-0.13647461,-0.26519775,0.9447632
1601045032347,531,-0.13574219,-0.2637329,0.9442749
1601045032349,532,-0.13623047,-0.27349854,0.94647217
1601045032349,533,-0.13500977,-0.26837158,0.94281006
1601045032350,534,-0.13623047,-0.2654419,0.9430542
1601045032352,535,-0.13671875,-0.26715088,0.94866943
1601045032352,536,-0.13500977,-0.26837158,0.94281006
1601045032352,537,-0.13916016,-0.2732544,0.9447632
1601045032352,538,-0.13671875,-0.26715088,0.94866943
1601045032352,539,-0.13623047,-0.27349854,0.94647217
1601045032352,540,-0.13500977,-0.26837158,0.94281006
1601045032353,541,-0.13476562,-0.26934814,0.9450073
1601045032353,542,-0.13500977,-0.26837158,0.94281006
1601045032354,543,-0.13671875,-0.26715088,0.94866943
1601045032355,544,-0.13476562,-0.26934814,0.9450073
1601045032355,545,-0.13964844,-0.26812744,0.9411011
1601045032355,546,-0.13671875,-0.26715088,0.94866943
1601045032356,547,-0.13476562,-0.26934814,0.9450073
1601045032358,548,-0.13964844,-0.26812744,0.9411011
1601045032358,549,-0.13964844,-0.26812744,0.9411011
1601045032361,550,-0.13500977,-0.26470947,0.9442749
1601045032363,551,-0.13476562,-0.26934814,0.9450073
1601045032364,552,-0.13671875,-0.26739502,0.94451904
1601045032364,553,-0.13500977,-0.26470947,0.9442749
1601045032364,554,-0.13500977,-0.26470947,0.9442749
1601045032364,555,-0.13964844,-0.26812744,0.9411011
1601045032364,556,-0.13769531,-0.26568604,0.94329834
1601045032364,557,-0.13671875,-0.26739502,0.94451904
1601045032364,558,-0.13671875,-0.26739502,0.94451904
1601045032364,559,-0.13256836,-0.27105713,0.9467163
1601045032365,560,-0.13769531,-0.26568604,0.94329834
1601045032366,561,-0.13769531,-0.26568604,0.94329834
1601045032366,562,-0.13500977,-0.26470947,0.9442749
1601045032366,563,-0.13256836,-0.27105713,0.9467163
1601045032367,564,-0.13793945,-0.27496338,0.9467163
1601045032368,565,-0.13256836,-0.27105713,0.9467163
1601045032369,566,-0.13964844,-0.27056885,0.9450073
1601045032372,567,-0.13671875,-0.26739502,0.94451904
1601045032372,568,-0.14379883,-0.27398682,0.94085693
1601045032372,569,-0.13793945,-0.27496338,0.9467163
1601045032372,570,-0.13793945,-0.27496338,0.9467163
1601045032372,571,-0.13769531,-0.26568604,0.94329834
1601045032375,572,-0.13964844,-0.27056885,0.9450073
1601045032375,573,-0.13964844,-0.27056885,0.9450073
1601045032375,574,-0.14379883,-0.27398682,0.94085693
1601045032376,575,-0.12451172,-0.26617432,0.9442749
1601045032382,576,-0.13256836,-0.27105713,0.9467163
1601045032383,577,-0.14379883,-0.27398682,0.94085693
1601045032383,578,-0.12451172,-0.26617432,0.9442749
1601045032383,579,-0.13745117,-0.26763916,0.9411011
1601045032384,580,-0.12451172,-0.26617432,0.9442749
1601045032384,581,-0.13793945,-0.27496338,0.9467163
1601045032385,582,-0.14038086,-0.2678833,0.94329834
1601045032387,583,-0.13964844,-0.27056885,0.9450073
1601045032388,584,-0.13745117,-0.26763916,0.9411011
1601045032388,585,-0.13745117,-0.26763916,0.9411011
1601045032388,586,-0.13891602,-0.27301025,0.9450073
1601045032390,587,-0.14038086,-0.2678833,0.94329834
1601045032390,588,-0.1418457,-0.28131104,0.9454956
1601045032391,589,-0.14038086,-0.2678833,0.94329834
1601045032391,590,-0.14379883,-0.27398682,0.94085693
1601045032391,591,-0.13891602,-0.27301025,0.9450073
1601045032394,592,-0.1418457,-0.28131104,0.9454956
1601045032395,593,-0.12451172,-0.26617432,0.9442749
1601045032395,594,-0.13842773,-0.27374268,0.9389038
1601045032395,595,-0.13891602,-0.27301025,0.9450073
1601045032395,596,-0.13842773,-0.27374268,0.9389038
1601045032395,597,-0.13745117,-0.26763916,0.9411011
1601045032395,598,-0.1418457,-0.28131104,0.9454956
1601045032396,599,-0.13842773,-0.27374268,0.9389038
1601045032396,600,-0.1394043,-0.27520752,0.94085693
1601045032397,601,-0.1394043,-0.27520752,0.94085693
1601045032398,602,-0.1394043,-0.27520752,0.94085693
1601045032398,603,-0.14038086,-0.2678833,0.94329834
1601045032400,604,-0.13891602,-0.2781372,0.9435425
1601045032403,605,-0.13891602,-0.2781372,0.9435425
1601045032403,606,-0.13891602,-0.2781372,0.9435425
1601045032403,607,-0.13867188,-0.27642822,0.94085693
1601045032415,608,-0.13867188,-0.27642822,0.94085693
1601045032415,609,-0.13867188,-0.27642822,0.94085693
1601045032415,610,-0.140625,-0.2781372,0.94403076
1601045032415,611,-0.13891602,-0.27301025,0.9450073
1601045032415,612,-0.140625,-0.2781372,0.94403076
1601045032415,613,-0.140625,-0.2781372,0.94403076
1601045032415,614,-0.1418457,-0.28131104,0.9454956
1601045032416,615,-0.14233398,-0.28179932,0.93865967
1601045032416,616,-0.14233398,-0.28179932,0.93865967
1601045032416,617,-0.14233398,-0.28179932,0.93865967
1601045032416,618,-0.13842773,-0.27374268,0.9389038
1601045032416,619,-0.14331055,-0.2835083,0.9430542
1601045032416,620,-0.14331055,-0.2835083,0.9430542
1601045032416,621,-0.140625,-0.27764893,0.9430542
1601045032416,622,-0.14331055,-0.2835083,0.9430542
1601045032416,623,-0.140625,-0.27764893,0.9430542
1601045032416,624,-0.1394043,-0.27520752,0.94085693
1601045032416,625,-0.1394043,-0.28179932,0.94085693
1601045032417,626,-0.140625,-0.27764893,0.9430542
1601045032417,627,-0.1394043,-0.28179932,0.94085693
1601045032417,628,-0.13891602,-0.2781372,0.9435425
1601045032417,629,-0.1394043,-0.28179932,0.94085693
1601045032417,630,-0.14257812,-0.27496338,0.9389038
1601045032421,631,-0.14257812,-0.27496338,0.9389038
1601045032423,632,-0.13867188,-0.27642822,0.94085693
1601045032423,633,-0.14257812,-0.27496338,0.9389038
1601045032423,634,-0.140625,-0.2781372,0.94403076
1601045032423,635,-0.14233398,-0.28179932,0.93865967
1601045032424,636,-0.14331055,-0.2835083,0.9430542
1601045032424,637,-0.140625,-0.27764893,0.9430542
1601045032426,638,-0.1394043,-0.28179932,0.94085693
1601045032427,639,-0.14257812,-0.27496338,0.9389038
1601045034869,640,-0.14379883,-0.2810669,0.94281006
1601045034875,641,-0.14013672,-0.27960205,0.9442749
1601045034875,642,-0.14379883,-0.2810669,0.94281006
1601045034875,643,-0.14379883,-0.2810669,0.94281006
1601045034875,644,-0.14379883,-0.2810669,0.94281006
1601045034875,645,-0.14013672,-0.27960205,0.9442749
1601045034875,646,-0.14013672,-0.27960205,0.9442749
1601045034875,647,-0.14013672,-0.27960205,0.9442749
1601045034875,648,-0.13964844,-0.2732544,0.94036865
1601045034876,649,-0.13964844,-0.2732544,0.94036865
1601045034876,650,-0.13964844,-0.2732544,0.94036865
1601045034876,651,-0.13964844,-0.2732544,0.94036865
1601045034877,652,-0.140625,-0.27764893,0.93963623
1601045034877,653,-0.140625,-0.27764893,0.93963623
1601045034877,654,-0.140625,-0.27764893,0.93963623
1601045034878,655,-0.14257812,-0.2793579,0.9371948
1601045034881,656,-0.1381836,-0.27911377,0.9447632
1601045034882,657,-0.14257812,-0.2793579,0.9371948
1601045034882,658,-0.14257812,-0.2793579,0.9371948
1601045034882,659,-0.140625,-0.27764893,0.93963623
1601045034883,660,-0.13842773,-0.27886963,0.94451904
1601045034883,661,-0.14257812,-0.2793579,0.9371948
1601045034883,662,-0.1381836,-0.27911377,0.9447632
1601045034888,663,-0.1381836,-0.27911377,0.9447632
1601045034889,664,-0.1381836,-0.27911377,0.9447632
1601045034891,665,-0.13842773,-0.27886963,0.94451904
1601045034891,666,-0.13769531,-0.27618408,0.94036865
1601045034891,667,-0.13842773,-0.27886963,0.94451904
1601045034892,668,-0.13769531,-0.27618408,0.94036865
1601045034892,669,-0.13842773,-0.27886963,0.94451904
1601045034892,670,-0.13745117,-0.27471924,0.94329834
1601045034892,671,-0.13769531,-0.27618408,0.94036865
1601045034893,672,-0.13745117,-0.27471924,0.94329834
1601045034893,673,-0.13769531,-0.27618408,0.94036865
1601045034893,674,-0.13696289,-0.27838135,0.94281006
1601045034894,675,-0.13745117,-0.27471924,0.94329834
1601045034894,676,-0.13696289,-0.27838135,0.94281006
1601045034894,677,-0.13745117,-0.27471924,0.94329834
1601045034894,678,-0.13696289,-0.27838135,0.94281006
1601045034895,679,-0.13891602,-0.27545166,0.94281006
1601045034895,680,-0.13891602,-0.27545166,0.94281006
1601045034897,681,-0.13696289,-0.27838135,0.94281006
1601045034897,682,-0.13891602,-0.27545166,0.94281006
1601045034897,683,-0.13720703,-0.27789307,0.9450073
1601045034897,684,-0.13720703,-0.27789307,0.9450073
1601045034897,685,-0.13891602,-0.27545166,0.94281006
1601045034918,686,-0.1394043,-0.27496338,0.94207764
1601045034918,687,-0.13720703,-0.27789307,0.9450073
1601045034920,688,-0.1394043,-0.27496338,0.94207764
1601045034920,689,-0.13720703,-0.27789307,0.9450073
1601045034920,690,-0.1394043,-0.27496338,0.94207764
1601045034922,691,-0.13793945,-0.27593994,0.94085693
1601045034922,692,-0.1394043,-0.27496338,0.94207764
1601045034922,693,-0.13793945,-0.27593994,0.94085693
1601045034923,694,-0.13793945,-0.27593994,0.94085693
1601045034923,695,-0.13549805,-0.27545166,0.946228
1601045034923,696,-0.13793945,-0.27593994,0.94085693
1601045034923,697,-0.13549805,-0.27545166,0.946228
1601045034923,698,-0.13549805,-0.27545166,0.946228
1601045034923,699,-0.13745117,-0.27423096,0.9413452
1601045034923,700,-0.13549805,-0.27545166,0.946228
1601045034923,701,-0.13745117,-0.27423096,0.9413452
1601045034923,702,-0.13745117,-0.27423096,0.9413452
1601045034923,703,-0.13671875,-0.27667236,0.9423218
1601045034923,704,-0.13671875,-0.27667236,0.9423218
1601045034923,705,-0.13745117,-0.27423096,0.9413452
1601045034924,706,-0.13671875,-0.27667236,0.9423218
1601045034924,707,-0.13671875,-0.27667236,0.9423218
1601045034924,708,-0.13867188,-0.27716064,0.9425659
1601045034924,709,-0.13867188,-0.27716064,0.9425659
1601045034924,710,-0.13696289,-0.27838135,0.9435425
1601045034924,711,-0.13867188,-0.27716064,0.9425659
1601045034924,712,-0.13500977,-0.27667236,0.94451904
1601045034924,713,-0.13867188,-0.27716064,0.9425659
1601045034925,714,-0.13696289,-0.27838135,0.9435425
1601045034925,715,-0.13696289,-0.27838135,0.9435425
1601045034925,716,-0.13842773,-0.27520752,0.94281006
1601045034925,717,-0.13500977,-0.27667236,0.94451904
1601045034925,718,-0.13500977,-0.27667236,0.94451904
1601045034928,719,-0.13549805,-0.2720337,0.94573975
1601045034928,720,-0.13842773,-0.27520752,0.94281006
1601045034928,721,-0.13696289,-0.27838135,0.9435425
1601045034928,722,-0.13842773,-0.27520752,0.94281006
1601045034929,723,-0.13549805,-0.2720337,0.94573975
1601045034929,724,-0.13500977,-0.27667236,0.94451904
1601045034929,725,-0.1394043,-0.27349854,0.94085693
1601045034929,726,-0.13842773,-0.27520752,0.94281006
1601045034929,727,-0.1394043,-0.27349854,0.94085693
1601045034929,728,-0.13549805,-0.2720337,0.94573975
1601045034929,729,-0.13647461,-0.2805786,0.94281006
1601045034929,730,-0.13549805,-0.2720337,0.94573975
1601045034930,731,-0.13647461,-0.2805786,0.94281006
1601045034930,732,-0.1394043,-0.27349854,0.94085693
1601045034930,733,-0.14013672,-0.2744751,0.94085693
1601045034931,734,-0.1394043,-0.27349854,0.94085693
1601045034931,735,-0.13671875,-0.2835083,0.94329834
1601045034931,736,-0.13647461,-0.2805786,0.94281006
1601045034931,737,-0.13647461,-0.2805786,0.94281006
1601045034932,738,-0.14038086,-0.2781372,0.9413452
1601045034932,739,-0.14013672,-0.2744751,0.94085693
1601045034932,740,-0.14013672,-0.2744751,0.94085693
1601045034932,741,-0.1381836,-0.28179932,0.94207764
1601045034932,742,-0.14013672,-0.2744751,0.94085693
1601045034933,743,-0.13671875,-0.2835083,0.94329834
1601045034934,744,-0.13745117,-0.28326416,0.9411011
1601045034934,745,-0.13671875,-0.2835083,0.94329834
1601045034934,746,-0.13671875,-0.2835083,0.94329834
1601045034934,747,-0.14038086,-0.2781372,0.9413452
1601045034934,748,-0.13769531,-0.28131104,0.94036865
1601045034936,749,-0.140625,-0.2805786,0.9418335
1601045034936,750,-0.14038086,-0.2781372,0.9413452
1601045034937,751,-0.1381836,-0.28179932,0.94207764
1601045034937,752,-0.13842773,-0.28204346,0.9425659
1601045034937,753,-0.14038086,-0.2781372,0.9413452
1601045034937,754,-0.1381836,-0.28179932,0.94207764
1601045034937,755,-0.1381836,-0.28179932,0.94207764
1601045034938,756,-0.13745117,-0.28326416,0.9411011
1601045034939,757,-0.13745117,-0.28326416,0.9411011
1601045034939,758,-0.13769531,-0.28131104,0.94036865
1601045034940,759,-0.13745117,-0.28326416,0.9411011
1601045034940,760,-0.140625,-0.2805786,0.9418335
1601045034942,761,-0.13769531,-0.28131104,0.94036865
1601045034942,762,-0.13769531,-0.28131104,0.94036865
1601045034946,763,-0.140625,-0.2805786,0.9418335
1601045034947,764,-0.140625,-0.2805786,0.9418335
1601045034947,765,-0.13842773,-0.28204346,0.9425659
1601045034947,766,-0.13842773,-0.28204346,0.9425659
1601045034948,767,-0.13842773,-0.28204346,0.9425659
1601045037411,768,-0.13867188,-0.27911377,0.94281006
1601045037416,769,-0.13867188,-0.27911377,0.94281006
1601045037417,770,-0.13989258,-0.2835083,0.9393921
1601045037417,771,-0.13867188,-0.27911377,0.94281006
1601045037419,772,-0.13867188,-0.27911377,0.94281006
1601045037420,773,-0.13989258,-0.2835083,0.9393921
1601045037422,774,-0.13989258,-0.2805786,0.93865967
1601045037423,775,-0.13989258,-0.2835083,0.9393921
1601045037424,776,-0.13989258,-0.2835083,0.9393921
1601045037425,777,-0.13989258,-0.2805786,0.93865967
1601045037431,778,-0.13989258,-0.2805786,0.93865967
1601045037432,779,-0.13989258,-0.2805786,0.93865967
1601045037432,780,-0.14135742,-0.28082275,0.9398804
1601045037432,781,-0.14135742,-0.28082275,0.9398804
1601045037432,782,-0.13916016,-0.28546143,0.94036865
1601045037432,783,-0.14135742,-0.28082275,0.9398804
1601045037433,784,-0.13916016,-0.28546143,0.94036865
1601045037434,785,-0.13916016,-0.28546143,0.94036865
1601045037437,786,-0.14135742,-0.28082275,0.9398804
1601045037438,787,-0.13989258,-0.2732544,0.9423218
1601045037438,788,-0.13916016,-0.28546143,0.94036865
1601045037438,789,-0.13989258,-0.2732544,0.9423218
1601045037438,790,-0.13867188,-0.28326416,0.94207764
1601045037439,791,-0.13989258,-0.2732544,0.9423218
1601045037439,792,-0.13989258,-0.2732544,0.9423218
1601045037440,793,-0.13696289,-0.28302002,0.9413452
1601045037441,794,-0.13867188,-0.28326416,0.94207764
1601045037444,795,-0.13867188,-0.28326416,0.94207764
1601045037447,796,-0.1381836,-0.28253174,0.94085693
1601045037447,797,-0.13867188,-0.28326416,0.94207764
1601045037447,798,-0.13696289,-0.28302002,0.9413452
1601045037447,799,-0.13696289,-0.28302002,0.9413452
1601045037450,800,-0.13696289,-0.28302002,0.9413452
1601045037450,801,-0.1381836,-0.28253174,0.94085693
1601045037450,802,-0.13696289,-0.2774048,0.94329834
1601045037451,803,-0.1381836,-0.28253174,0.94085693
1601045037453,804,-0.13696289,-0.2774048,0.94329834
1601045037453,805,-0.13696289,-0.2774048,0.94329834
1601045037453,806,-0.1381836,-0.28253174,0.94085693
1601045037453,807,-0.13696289,-0.27716064,0.9418335
1601045037454,808,-0.13696289,-0.2774048,0.94329834
1601045037454,809,-0.13696289,-0.27716064,0.9418335
1601045037456,810,-0.13696289,-0.27716064,0.9418335
1601045037456,811,-0.13916016,-0.28326416,0.9425659
1601045037457,812,-0.13696289,-0.27716064,0.9418335
1601045037457,813,-0.13916016,-0.28326416,0.9425659
1601045037457,814,-0.13916016,-0.28326416,0.9425659
1601045037457,815,-0.13793945,-0.28033447,0.9413452
1601045037457,816,-0.13793945,-0.28033447,0.9413452
1601045037459,817,-0.13916016,-0.28326416,0.9425659
1601045037459,818,-0.13623047,-0.28277588,0.94158936
1601045037463,819,-0.13623047,-0.28277588,0.94158936
1601045037464,820,-0.1352539,-0.27496338,0.9411011
1601045037465,821,-0.13793945,-0.28033447,0.9413452
1601045037466,822,-0.13623047,-0.28277588,0.94158936
1601045037466,823,-0.13793945,-0.28033447,0.9413452
1601045037466,824,-0.13647461,-0.2793579,0.93963623
1601045037469,825,-0.13623047,-0.28277588,0.94158936
1601045037472,826,-0.1352539,-0.2769165,0.9454956
1601045037472,827,-0.1352539,-0.27496338,0.9411011
1601045037472,828,-0.1352539,-0.27496338,0.9411011
1601045037474,829,-0.13842773,-0.27789307,0.9454956
1601045037474,830,-0.13647461,-0.2793579,0.93963623
1601045037474,831,-0.1352539,-0.27496338,0.9411011
1601045037475,832,-0.13647461,-0.2793579,0.93963623
1601045037475,833,-0.13647461,-0.2793579,0.93963623
1601045037475,834,-0.13085938,-0.27911377,0.94696045
1601045037475,835,-0.1352539,-0.2769165,0.9454956
1601045037475,836,-0.13891602,-0.2715454,0.94158936
1601045037475,837,-0.1352539,-0.2769165,0.9454956
1601045037475,838,-0.1352539,-0.2769165,0.9454956
1601045037476,839,-0.13842773,-0.27789307,0.9454956
1601045037476,840,-0.13623047,-0.2805786,0.94329834
1601045037479,841,-0.13085938,-0.27911377,0.94696045
1601045037480,842,-0.13842773,-0.27789307,0.9454956
1601045037480,843,-0.13085938,-0.27911377,0.94696045
1601045037481,844,-0.13891602,-0.2715454,0.94158936
1601045037482,845,-0.13720703,-0.2786255,0.94158936
1601045037482,846,-0.13891602,-0.2715454,0.94158936
1601045037484,847,-0.13696289,-0.28155518,0.9411011
1601045037484,848,-0.13842773,-0.27789307,0.9454956
1601045037484,849,-0.13623047,-0.2805786,0.94329834
1601045037484,850,-0.13623047,-0.2805786,0.94329834
1601045037484,851,-0.13012695,-0.27642822,0.946228
1601045037486,852,-0.13085938,-0.27911377,0.94696045
1601045037486,853,-0.13842773,-0.27886963,0.94158936
1601045037486,854,-0.13720703,-0.2786255,0.94158936
1601045037486,855,-0.13891602,-0.2715454,0.94158936
1601045037489,856,-0.1381836,-0.28033447,0.9423218
1601045037489,857,-0.13696289,-0.28155518,0.9411011
1601045037489,858,-0.13720703,-0.2786255,0.94158936
1601045037491,859,-0.13623047,-0.2805786,0.94329834
1601045037491,860,-0.13012695,-0.27642822,0.946228
1601045037491,861,-0.13671875,-0.2822876,0.94207764
1601045037492,862,-0.13696289,-0.28155518,0.9411011
1601045037493,863,-0.13720703,-0.2786255,0.94158936
1601045037494,864,-0.13842773,-0.27886963,0.94158936
1601045037494,865,-0.13574219,-0.27642822,0.94281006
1601045037496,866,-0.13012695,-0.27642822,0.946228
1601045037497,867,-0.13696289,-0.28155518,0.9411011
1601045037497,868,-0.13842773,-0.27886963,0.94158936
1601045037498,869,-0.1381836,-0.28033447,0.9423218
1601045037499,870,-0.13671875,-0.2822876,0.94207764
1601045037500,871,-0.13256836,-0.27911377,0.94207764
1601045037500,872,-0.13012695,-0.27642822,0.946228
1601045037502,873,-0.1381836,-0.28033447,0.9423218
1601045037502,874,-0.13574219,-0.27642822,0.94281006
1601045037502,875,-0.13647461,-0.28033447,0.94329834
1601045037502,876,-0.13842773,-0.27886963,0.94158936
1601045037502,877,-0.13671875,-0.2822876,0.94207764
1601045037503,878,-0.1381836,-0.28033447,0.9423218
1601045037504,879,-0.13574219,-0.27642822,0.94281006
1601045037504,880,-0.13598633,-0.2786255,0.94158936
1601045037504,881,-0.13671875,-0.2822876,0.94207764
1601045037504,882,-0.13256836,-0.27911377,0.94207764
1601045037504,883,-0.13256836,-0.27911377,0.94207764
1601045037505,884,-0.13745117,-0.28009033,0.9437866
1601045037505,885,-0.13574219,-0.27642822,0.94281006
1601045037506,886,-0.13647461,-0.28033447,0.94329834
1601045037507,887,-0.13647461,-0.28033447,0.94329834
1601045037508,888,-0.13256836,-0.27911377,0.94207764
1601045037511,889,-0.13598633,-0.2786255,0.94158936
1601045037512,890,-0.13647461,-0.28033447,0.94329834
1601045037513,891,-0.13598633,-0.2786255,0.94158936
1601045037514,892,-0.13745117,-0.28009033,0.9437866
1601045037516,893,-0.13598633,-0.2786255,0.94158936
1601045037516,894,-0.13745117,-0.28009033,0.9437866
1601045037516,895,-0.13745117,-0.28009033,0.9437866
1601045040128,896,-0.13574219,-0.27960205,0.94158936
1601045040128,897,-0.13574219,-0.27960205,0.94158936
1601045040128,898,-0.13574219,-0.27960205,0.94158936
1601045040128,899,-0.1381836,-0.27838135,0.9384155
1601045040129,900,-0.1381836,-0.27838135,0.9384155
1601045040129,901,-0.13330078,-0.28546143,0.94525146
1601045040129,902,-0.13330078,-0.28546143,0.94525146
1601045040130,903,-0.1381836,-0.27838135,0.9384155
1601045040130,904,-0.13574219,-0.27960205,0.94158936
1601045040131,905,-0.13867188,-0.28448486,0.9423218
1601045040131,906,-0.13867188,-0.28448486,0.9423218
1601045040132,907,-0.1381836,-0.27838135,0.9384155
1601045040132,908,-0.13330078,-0.28546143,0.94525146
1601045040133,909,-0.13793945,-0.28253174,0.9418335
1601045040133,910,-0.13330078,-0.28546143,0.94525146
1601045040133,911,-0.13867188,-0.28448486,0.9423218
1601045040134,912,-0.13867188,-0.28448486,0.9423218
1601045040134,913,-0.13793945,-0.28253174,0.9418335
1601045040134,914,-0.13793945,-0.28253174,0.9418335
1601045040135,915,-0.13671875,-0.28302002,0.94207764
1601045040135,916,-0.13671875,-0.28302002,0.94207764
1601045040135,917,-0.13671875,-0.28302002,0.94207764
1601045040138,918,-0.13745117,-0.28619385,0.9393921
1601045040138,919,-0.13793945,-0.28253174,0.9418335
1601045040139,920,-0.13745117,-0.28619385,0.9393921
1601045040139,921,-0.13745117,-0.28619385,0.9393921
1601045040139,922,-0.13916016,-0.2852173,0.9423218
1601045040139,923,-0.13916016,-0.2852173,0.9423218
1601045040139,924,-0.13916016,-0.2852173,0.9423218
1601045040139,925,-0.13623047,-0.28375244,0.9389038
1601045040140,926,-0.13623047,-0.28375244,0.9389038
1601045040140,927,-0.13623047,-0.28375244,0.9389038
1601045040140,928,-0.13671875,-0.28302002,0.94207764
1601045040140,929,-0.13964844,-0.284729,0.93865967
1601045040140,930,-0.13964844,-0.284729,0.93865967
1601045040140,931,-0.13964844,-0.284729,0.93865967
1601045040140,932,-0.13745117,-0.28619385,0.9393921
1601045040140,933,-0.13867188,-0.2835083,0.9411011
1601045040140,934,-0.13867188,-0.2835083,0.9411011
1601045040143,935,-0.13916016,-0.2852173,0.9423218
1601045040144,936,-0.13867188,-0.2835083,0.9411011
1601045040144,937,-0.13623047,-0.28375244,0.9389038
1601045040144,938,-0.1394043,-0.2852173,0.9418335
1601045040145,939,-0.13964844,-0.284729,0.93865967
1601045040145,940,-0.1394043,-0.2852173,0.9418335
1601045040145,941,-0.13867188,-0.2835083,0.9411011
1601045040145,942,-0.13916016,-0.2852173,0.94329834
1601045040145,943,-0.1394043,-0.2852173,0.9418335
1601045040145,944,-0.13916016,-0.2852173,0.94329834
1601045040145,945,-0.13916016,-0.2852173,0.94329834
1601045040145,946,-0.140625,-0.28668213,0.9384155
1601045040146,947,-0.140625,-0.28668213,0.9384155
1601045040146,948,-0.140625,-0.28668213,0.9384155
1601045040146,949,-0.14086914,-0.2835083,0.93865967
1601045040146,950,-0.14086914,-0.2835083,0.93865967
1601045040146,951,-0.14086914,-0.2835083,0.93865967
1601045040146,952,-0.1394043,-0.2852173,0.9418335
1601045040146,953,-0.13891602,-0.28448486,0.94036865
1601045040152,954,-0.13891602,-0.28448486,0.94036865
1601045040153,955,-0.13916016,-0.2852173,0.94329834
1601045040153,956,-0.13891602,-0.28448486,0.94036865
1601045040154,957,-0.1394043,-0.2876587,0.9376831
1601045040154,958,-0.1394043,-0.2876587,0.9376831
1601045040154,959,-0.1394043,-0.2876587,0.9376831
1601045040154,960,-0.140625,-0.28668213,0.9384155
1601045040154,961,-0.14257812,-0.28399658,0.9384155
1601045040154,962,-0.14257812,-0.28399658,0.9384155
1601045040154,963,-0.14086914,-0.2835083,0.93865967
1601045040154,964,-0.14257812,-0.28399658,0.9384155
1601045040155,965,-0.13891602,-0.28448486,0.94036865
1601045040155,966,-0.13720703,-0.28546143,0.9381714
1601045040155,967,-0.1394043,-0.2876587,0.9376831
1601045040155,968,-0.13720703,-0.28546143,0.9381714
1601045040155,969,-0.14257812,-0.28399658,0.9384155
1601045040155,970,-0.13989258,-0.2852173,0.9430542
1601045040155,971,-0.13720703,-0.28546143,0.9381714
1601045040155,972,-0.13989258,-0.2852173,0.9430542
1601045040155,973,-0.13989258,-0.2852173,0.9430542
1601045040156,974,-0.13867188,-0.2871704,0.9381714
1601045040156,975,-0.13867188,-0.2871704,0.9381714
1601045040156,976,-0.13842773,-0.284729,0.94281006
1601045040156,977,-0.13842773,-0.284729,0.94281006
1601045040156,978,-0.13867188,-0.2871704,0.9381714
1601045040156,979,-0.13720703,-0.28546143,0.9381714
1601045040156,980,-0.13989258,-0.2852173,0.9430542
1601045040159,981,-0.13867188,-0.284729,0.9376831
1601045040161,982,-0.13842773,-0.284729,0.94281006
1601045040161,983,-0.13867188,-0.284729,0.9376831
1601045040167,984,-0.13867188,-0.2871704,0.9381714
1601045040167,985,-0.13647461,-0.2822876,0.9384155
1601045040167,986,-0.13647461,-0.2822876,0.9384155
1601045040167,987,-0.13842773,-0.284729,0.94281006
1601045040167,988,-0.1352539,-0.284729,0.94036865
1601045040167,989,-0.1352539,-0.284729,0.94036865
1601045040168,990,-0.13623047,-0.2810669,0.9423218
1601045040168,991,-0.13867188,-0.284729,0.9376831
1601045040168,992,-0.13867188,-0.284729,0.9376831
1601045040168,993,-0.13623047,-0.2810669,0.9423218
1601045040168,994,-0.13647461,-0.2822876,0.9384155
1601045040168,995,-0.13647461,-0.2822876,0.9384155
1601045040168,996,-0.1352539,-0.284729,0.94036865
1601045040168,997,-0.13867188,-0.28448486,0.9406128
1601045040168,998,-0.13867188,-0.28448486,0.9406128
1601045040169,999,-0.13623047,-0.2810669,0.9423218
1601045040169,1000,-0.1340332,-0.28619385,0.9418335
1601045040169,1001,-0.1352539,-0.284729,0.94036865
1601045040169,1002,-0.1340332,-0.28619385,0.9418335
1601045040169,1003,-0.13623047,-0.2810669,0.9423218
1601045040169,1004,-0.13867188,-0.28448486,0.9406128
1601045040169,1005,-0.13793945,-0.27789307,0.9401245
1601045040170,1006,-0.13867188,-0.28448486,0.9406128
1601045040170,1007,-0.13793945,-0.27789307,0.9401245
1601045040170,1008,-0.1340332,-0.28619385,0.9418335
1601045040170,1009,-0.13647461,-0.28497314,0.94036865
1601045040170,1010,-0.1340332,-0.28619385,0.9418335
1601045040170,1011,-0.13793945,-0.27789307,0.9401245
1601045040170,1012,-0.13793945,-0.27789307,0.9401245
1601045040170,1013,-0.13354492,-0.28277588,0.93963623
1601045040170,1014,-0.13647461,-0.28497314,0.94036865
1601045040170,1015,-0.13647461,-0.28497314,0.94036865
1601045040170,1016,-0.13647461,-0.27911377,0.9401245
1601045040170,1017,-0.13354492,-0.28277588,0.93963623
1601045040171,1018,-0.13647461,-0.28497314,0.94036865
1601045040171,1019,-0.13354492,-0.28277588,0.93963623
1601045040171,1020,-0.13354492,-0.28277588,0.93963623
1601045040172,1021,-0.13647461,-0.27911377,0.9401245
1601045040172,1022,-0.13647461,-0.27911377,0.9401245
1601045040172,1023,-0.13647461,-0.27911377,0.9401245
1601045042667,1024,-0.13623047,-0.28131104,0.94403076
1601045042667,1025,-0.13623047,-0.28131104,0.94403076
1601045042668,1026,-0.13623047,-0.28131104,0.94403076
1601045042668,1027,-0.1352539,-0.28399658,0.93792725
1601045042668,1028,-0.1352539,-0.28399658,0.93792725
1601045042668,1029,-0.1352539,-0.28399658,0.93792725
1601045042668,1030,-0.13623047,-0.28131104,0.94403076
1601045042669,1031,-0.1352539,-0.28399658,0.93792725
1601045042670,1032,-0.13623047,-0.2810669,0.9398804
1601045042670,1033,-0.13623047,-0.2810669,0.9398804
1601045042670,1034,-0.13623047,-0.2810669,0.9398804
1601045042670,1035,-0.13623047,-0.2810669,0.9398804
1601045042671,1036,-0.13720703,-0.28448486,0.94158936
1601045042671,1037,-0.13720703,-0.28448486,0.94158936
1601045042673,1038,-0.13720703,-0.28448486,0.94158936
1601045042673,1039,-0.13574219,-0.28399658,0.94329834
1601045042673,1040,-0.13720703,-0.28448486,0.94158936
1601045042673,1041,-0.13574219,-0.28399658,0.94329834
1601045042673,1042,-0.13574219,-0.28399658,0.94329834
1601045042673,1043,-0.13671875,-0.28155518,0.94207764
1601045042673,1044,-0.13574219,-0.28399658,0.94329834
1601045042674,1045,-0.13671875,-0.28155518,0.94207764
1601045042674,1046,-0.13671875,-0.28155518,0.94207764
1601045042674,1047,-0.13671875,-0.28155518,0.94207764
1601045042674,1048,-0.1381836,-0.28277588,0.94036865
1601045042675,1049,-0.1381836,-0.28277588,0.94036865
1601045042675,1050,-0.1381836,-0.28277588,0.94036865
1601045042675,1051,-0.13598633,-0.28424072,0.9401245
1601045042675,1052,-0.13598633,-0.28424072,0.9401245
1601045042677,1053,-0.13500977,-0.28375244,0.9406128
1601045042677,1054,-0.13598633,-0.28424072,0.9401245
1601045042677,1055,-0.1381836,-0.28277588,0.94036865
1601045042677,1056,-0.13500977,-0.28375244,0.9406128
1601045042678,1057,-0.13354492,-0.28619385,0.94403076
1601045042681,1058,-0.13354492,-0.28619385,0.94403076
1601045042682,1059,-0.13745117,-0.28326416,0.9406128
1601045042682,1060,-0.13598633,-0.28424072,0.9401245
1601045042685,1061,-0.13500977,-0.28375244,0.9406128
1601045042685,1062,-0.13354492,-0.284729,0.93963623
1601045042685,1063,-0.1381836,-0.28570557,0.94329834
1601045042685,1064,-0.13745117,-0.28326416,0.9406128
1601045042685,1065,-0.13354492,-0.28619385,0.94403076
1601045042685,1066,-0.13793945,-0.28570557,0.9359741
1601045042685,1067,-0.13354492,-0.284729,0.93963623
1601045042686,1068,-0.13745117,-0.28326416,0.9406128
1601045042686,1069,-0.13671875,-0.28692627,0.9430542
1601045042686,1070,-0.1381836,-0.28570557,0.94329834
1601045042687,1071,-0.13500977,-0.28375244,0.9406128
1601045042687,1072,-0.13671875,-0.2859497,0.94158936
1601045042688,1073,-0.13793945,-0.28570557,0.9359741
1601045042689,1074,-0.13354492,-0.28619385,0.94403076
1601045042689,1075,-0.13745117,-0.28936768,0.9413452
1601045042689,1076,-0.13745117,-0.28326416,0.9406128
1601045042690,1077,-0.14013672,-0.2871704,0.9381714
1601045042690,1078,-0.13354492,-0.284729,0.93963623
1601045042690,1079,-0.13671875,-0.28692627,0.9430542
1601045042691,1080,-0.13671875,-0.2876587,0.9376831
1601045042691,1081,-0.13354492,-0.284729,0.93963623
1601045042691,1082,-0.13671875,-0.2859497,0.94158936
1601045042692,1083,-0.13574219,-0.28619385,0.93865967
1601045042692,1084,-0.13745117,-0.28936768,0.9413452
1601045042692,1085,-0.1381836,-0.28570557,0.94329834
1601045042692,1086,-0.1381836,-0.28570557,0.94329834
1601045042693,1087,-0.14013672,-0.2871704,0.9381714
1601045042693,1088,-0.13891602,-0.28985596,0.9406128
1601045042693,1089,-0.13793945,-0.28570557,0.9359741
1601045042694,1090,-0.13793945,-0.28570557,0.9359741
1601045042694,1091,-0.13964844,-0.28936768,0.93743896
1601045042694,1092,-0.13671875,-0.28692627,0.9430542
1601045042695,1093,-0.13671875,-0.2876587,0.9376831
1601045042695,1094,-0.13671875,-0.2859497,0.94158936
1601045042696,1095,-0.13916016,-0.29034424,0.9418335
1601045042697,1096,-0.13671875,-0.28692627,0.9430542
1601045042698,1097,-0.13574219,-0.28619385,0.93865967
1601045042698,1098,-0.13964844,-0.28741455,0.93670654
1601045042698,1099,-0.13891602,-0.28985596,0.9406128
1601045042699,1100,-0.13745117,-0.28936768,0.9413452
1601045042700,1101,-0.13671875,-0.2859497,0.94158936
1601045042700,1102,-0.14013672,-0.2871704,0.9381714
1601045042700,1103,-0.13745117,-0.28936768,0.9413452
1601045042700,1104,-0.13623047,-0.2888794,0.94085693
1601045042700,1105,-0.14013672,-0.2871704,0.9381714
1601045042702,1106,-0.13891602,-0.29058838,0.9393921
1601045042702,1107,-0.13964844,-0.28936768,0.93743896
1601045042702,1108,-0.13671875,-0.2876587,0.9376831
1601045042702,1109,-0.1418457,-0.28692627,0.9371948
1601045042702,1110,-0.13671875,-0.2876587,0.9376831
1601045042702,1111,-0.13769531,-0.2876587,0.94403076
1601045042702,1112,-0.13916016,-0.29034424,0.9418335
1601045042703,1113,-0.13574219,-0.28619385,0.93865967
1601045042703,1114,-0.13574219,-0.28619385,0.93865967
1601045042703,1115,-0.13964844,-0.28741455,0.93670654
1601045042703,1116,-0.13867188,-0.28741455,0.9411011
1601045042703,1117,-0.13891602,-0.28985596,0.9406128
1601045042703,1118,-0.1381836,-0.28790283,0.9401245
1601045042703,1119,-0.13891602,-0.28985596,0.9406128
1601045042703,1120,-0.13623047,-0.2888794,0.94085693
1601045042704,1121,-0.13745117,-0.2888794,0.9401245
1601045042705,1122,-0.13891602,-0.29058838,0.9393921
1601045042705,1123,-0.13964844,-0.28936768,0.93743896
1601045042705,1124,-0.13964844,-0.28936768,0.93743896
1601045042705,1125,-0.13916016,-0.29034424,0.9418335
1601045042706,1126,-0.13916016,-0.29034424,0.9418335
1601045042706,1127,-0.13769531,-0.2852173,0.9389038
1601045042706,1128,-0.1418457,-0.28692627,0.9371948
1601045042706,1129,-0.13964844,-0.28741455,0.93670654
1601045042707,1130,-0.13964844,-0.28741455,0.93670654
1601045042707,1131,-0.13769531,-0.2876587,0.94403076
1601045042707,1132,-0.13867188,-0.28741455,0.9411011
1601045042708,1133,-0.13623047,-0.2888794,0.94085693
1601045042708,1134,-0.13623047,-0.2888794,0.94085693
1601045042709,1135,-0.1381836,-0.28790283,0.9401245
1601045042709,1136,-0.13891602,-0.29058838,0.9393921
1601045042709,1137,-0.13891602,-0.29058838,0.9393921
1601045042710,1138,-0.13745117,-0.2888794,0.9401245
1601045042710,1139,-0.1418457,-0.28692627,0.9371948
1601045042710,1140,-0.13769531,-0.2852173,0.9389038
1601045042711,1141,-0.13769531,-0.2876587,0.94403076
1601045042711,1142,-0.1418457,-0.28692627,0.9371948
1601045042711,1143,-0.13867188,-0.28741455,0.9411011
1601045042711,1144,-0.13769531,-0.2876587,0.94403076
1601045042712,1145,-0.13867188,-0.28741455,0.9411011
1601045042713,1146,-0.1381836,-0.28790283,0.9401245
1601045042713,1147,-0.1381836,-0.28790283,0.9401245
1601045042714,1148,-0.13745117,-0.2888794,0.9401245
1601045042714,1149,-0.13745117,-0.2888794,0.9401245
1601045042714,1150,-0.13769531,-0.2852173,0.9389038
1601045042714,1151,-0.13769531,-0.2852173,0.9389038
1601045045212,1152,-0.13623047,-0.28424072,0.9418335
1601045045212,1153,-0.13623047,-0.28424072,0.9418335
1601045045215,1154,-0.13549805,-0.2859497,0.9411011
1601045045215,1155,-0.13623047,-0.28424072,0.9418335
1601045045216,1156,-0.13549805,-0.2859497,0.9411011
1601045045218,1157,-0.13623047,-0.28424072,0.9418335
1601045045218,1158,-0.13769531,-0.28424072,0.94281006
1601045045218,1159,-0.13549805,-0.2859497,0.9411011
1601045045220,1160,-0.13769531,-0.28424072,0.94281006
1601045045221,1161,-0.13549805,-0.2859497,0.9411011
1601045045221,1162,-0.13623047,-0.28692627,0.9401245
1601045045222,1163,-0.13623047,-0.28692627,0.9401245
1601045045223,1164,-0.13574219,-0.2822876,0.9406128
1601045045228,1165,-0.13769531,-0.28424072,0.94281006
1601045045230,1166,-0.13769531,-0.28424072,0.94281006
1601045045230,1167,-0.13476562,-0.2852173,0.9376831
1601045045230,1168,-0.13574219,-0.2822876,0.9406128
1601045045230,1169,-0.13623047,-0.28692627,0.9401245
1601045045230,1170,-0.13623047,-0.28448486,0.93792725
1601045045230,1171,-0.13476562,-0.2852173,0.9376831
1601045045230,1172,-0.13574219,-0.2822876,0.9406128
1601045045230,1173,-0.13623047,-0.28692627,0.9401245
1601045045231,1174,-0.13574219,-0.28253174,0.9376831
1601045045233,1175,-0.13623047,-0.28448486,0.93792725
1601045045233,1176,-0.13574219,-0.2822876,0.9406128
1601045045234,1177,-0.13232422,-0.28399658,0.9381714
1601045045234,1178,-0.13476562,-0.2852173,0.9376831
1601045045235,1179,-0.13476562,-0.2852173,0.9376831
1601045045235,1180,-0.13574219,-0.28253174,0.9376831
1601045045235,1181,-0.13623047,-0.28448486,0.93792725
1601045045236,1182,-0.13378906,-0.28131104,0.9389038
1601045045236,1183,-0.13232422,-0.28399658,0.9381714
1601045045236,1184,-0.13574219,-0.28253174,0.9376831
1601045045236,1185,-0.13623047,-0.2852173,0.9401245
1601045045237,1186,-0.13623047,-0.28448486,0.93792725
1601045045237,1187,-0.13623047,-0.28546143,0.9384155
1601045045237,1188,-0.13232422,-0.28399658,0.9381714
1601045045238,1189,-0.13574219,-0.28253174,0.9376831
1601045045238,1190,-0.13378906,-0.28131104,0.9389038
1601045045239,1191,-0.13671875,-0.28424072,0.94085693
1601045045240,1192,-0.13378906,-0.28131104,0.9389038
1601045045241,1193,-0.13232422,-0.28399658,0.9381714
1601045045241,1194,-0.13623047,-0.2852173,0.9401245
1601045045241,1195,-0.13623047,-0.2852173,0.9401245
1601045045242,1196,-0.13623047,-0.28546143,0.9384155
1601045045244,1197,-0.13378906,-0.28131104,0.9389038
1601045045246,1198,-0.13623047,-0.28546143,0.9384155
1601045045247,1199,-0.13671875,-0.28424072,0.94085693
1601045045247,1200,-0.13208008,-0.28082275,0.9376831
1601045045249,1201,-0.13671875,-0.28424072,0.94085693
1601045045249,1202,-0.13208008,-0.28082275,0.9376831
1601045045249,1203,-0.13623047,-0.2852173,0.9401245
1601045045249,1204,-0.13208008,-0.28082275,0.9376831
1601045045249,1205,-0.13696289,-0.2852173,0.93963623
1601045045249,1206,-0.13623047,-0.28546143,0.9384155
1601045045249,1207,-0.13696289,-0.2852173,0.93963623
1601045045249,1208,-0.13696289,-0.2852173,0.93963623
1601045045250,1209,-0.13671875,-0.28424072,0.94085693
1601045045250,1210,-0.1352539,-0.2859497,0.94158936
1601045045250,1211,-0.1352539,-0.2859497,0.94158936
1601045045250,1212,-0.1352539,-0.2859497,0.94158936
1601045045251,1213,-0.13745117,-0.284729,0.93792725
1601045045251,1214,-0.13745117,-0.284729,0.93792725
1601045045252,1215,-0.13647461,-0.28619385,0.9430542
1601045045253,1216,-0.13647461,-0.28619385,0.9430542
1601045045254,1217,-0.13745117,-0.284729,0.93792725
1601045045254,1218,-0.13208008,-0.28082275,0.9376831
1601045045254,1219,-0.13745117,-0.28302002,0.9411011
1601045045254,1220,-0.13745117,-0.28302002,0.9411011
1601045045254,1221,-0.13696289,-0.2852173,0.93963623
1601045045254,1222,-0.13647461,-0.28619385,0.9430542
1601045045256,1223,-0.13330078,-0.28790283,0.9398804
1601045045256,1224,-0.1352539,-0.2859497,0.94158936
1601045045256,1225,-0.13330078,-0.28790283,0.9398804
1601045045257,1226,-0.13745117,-0.28302002,0.9411011
1601045045257,1227,-0.14013672,-0.28619385,0.9413452
1601045045258,1228,-0.13745117,-0.284729,0.93792725
1601045045258,1229,-0.13330078,-0.28790283,0.9398804
1601045045258,1230,-0.14013672,-0.28619385,0.9413452
1601045045258,1231,-0.13720703,-0.2871704,0.9381714
1601045045259,1232,-0.13647461,-0.28619385,0.9430542
1601045045259,1233,-0.1381836,-0.28619385,0.9393921
1601045045259,1234,-0.13720703,-0.2871704,0.9381714
1601045045259,1235,-0.14013672,-0.28619385,0.9413452
1601045045260,1236,-0.13745117,-0.28302002,0.9411011
1601045045260,1237,-0.1381836,-0.28619385,0.9393921
1601045045261,1238,-0.13745117,-0.28912354,0.9369507
1601045045261,1239,-0.13745117,-0.28912354,0.9369507
1601045045261,1240,-0.13330078,-0.28790283,0.9398804
1601045045263,1241,-0.13989258,-0.28814697,0.9384155
1601045045263,1242,-0.13989258,-0.28814697,0.9384155
1601045045263,1243,-0.13720703,-0.2871704,0.9381714
1601045045263,1244,-0.14013672,-0.28619385,0.9413452
1601045045263,1245,-0.13867188,-0.29034424,0.9371948
1601045045263,1246,-0.13867188,-0.29034424,0.9371948
1601045045263,1247,-0.13720703,-0.2871704,0.9381714
1601045045263,1248,-0.1381836,-0.2876587,0.93914795
1601045045263,1249,-0.1381836,-0.28619385,0.9393921
1601045045266,1250,-0.13842773,-0.28863525,0.94036865
1601045045266,1251,-0.1381836,-0.28619385,0.9393921
1601045045266,1252,-0.1381836,-0.2876587,0.93914795
1601045045266,1253,-0.1381836,-0.28912354,0.9411011
1601045045266,1254,-0.13745117,-0.28912354,0.9369507
1601045045267,1255,-0.13842773,-0.28863525,0.94036865
1601045045267,1256,-0.13842773,-0.2876587,0.9389038
1601045045267,1257,-0.13745117,-0.28912354,0.9369507
1601045045267,1258,-0.13793945,-0.28961182,0.9398804
1601045045267,1259,-0.13989258,-0.28814697,0.9384155
1601045045267,1260,-0.13989258,-0.28814697,0.9384155
1601045045267,1261,-0.1381836,-0.28912354,0.9411011
1601045045269,1262,-0.1394043,-0.2913208,0.9406128
1601045045269,1263,-0.13867188,-0.29034424,0.9371948
1601045045271,1264,-0.13842773,-0.2876587,0.9389038
1601045045271,1265,-0.13867188,-0.29034424,0.9371948
1601045045271,1266,-0.1381836,-0.2876587,0.93914795
1601045045271,1267,-0.13793945,-0.28961182,0.9398804
1601045045273,1268,-0.13842773,-0.28863525,0.94036865
1601045045273,1269,-0.1381836,-0.2876587,0.93914795
1601045045273,1270,-0.1381836,-0.28912354,0.9411011
1601045045273,1271,-0.1394043,-0.2913208,0.9406128
1601045045274,1272,-0.13842773,-0.2876587,0.9389038
1601045045274,1273,-0.13842773,-0.28863525,0.94036865
1601045045276,1274,-0.13793945,-0.28961182,0.9398804
1601045045276,1275,-0.1381836,-0.28912354,0.9411011
1601045045276,1276,-0.1394043,-0.2913208,0.9406128
1601045045276,1277,-0.13842773,-0.2876587,0.9389038
1601045045280,1278,-0.13793945,-0.28961182,0.9398804
1601045045280,1279,-0.1394043,-0.2913208,0.9406128
1601045047781,1280,-0.13574219,-0.286438,0.9381714
1601045047782,1281,-0.13574219,-0.286438,0.9381714
1601045047782,1282,-0.13574219,-0.286438,0.9381714
1601045047782,1283,-0.13574219,-0.286438,0.9381714
1601045047782,1284,-0.13696289,-0.28399658,0.9393921
1601045047782,1285,-0.13696289,-0.28399658,0.9393921
1601045047782,1286,-0.13696289,-0.28399658,0.9393921
1601045047782,1287,-0.1381836,-0.28448486,0.9425659
1601045047803,1288,-0.1381836,-0.28448486,0.9425659
1601045047803,1289,-0.1381836,-0.28448486,0.9425659
1601045047803,1290,-0.13867188,-0.28497314,0.9389038
1601045047804,1291,-0.13696289,-0.28399658,0.9393921
1601045047804,1292,-0.13867188,-0.28497314,0.9389038
1601045047804,1293,-0.13696289,-0.28814697,0.94085693
1601045047804,1294,-0.1381836,-0.28448486,0.9425659
1601045047804,1295,-0.13867188,-0.28497314,0.9389038
1601045047804,1296,-0.13696289,-0.28814697,0.94085693
1601045047804,1297,-0.13867188,-0.28497314,0.9389038
1601045047804,1298,-0.140625,-0.28692627,0.9437866
1601045047804,1299,-0.13696289,-0.28814697,0.94085693
1601045047804,1300,-0.140625,-0.28692627,0.9437866
1601045047804,1301,-0.13671875,-0.28448486,0.94329834
1601045047805,1302,-0.140625,-0.28692627,0.9437866
1601045047805,1303,-0.13305664,-0.28375244,0.9369507
1601045047805,1304,-0.13671875,-0.28448486,0.94329834
1601045047805,1305,-0.13671875,-0.28448486,0.94329834
1601045047805,1306,-0.13598633,-0.2852173,0.94207764
1601045047805,1307,-0.13305664,-0.28375244,0.9369507
1601045047805,1308,-0.13696289,-0.28814697,0.94085693
1601045047805,1309,-0.13305664,-0.28375244,0.9369507
1601045047805,1310,-0.13598633,-0.2852173,0.94207764
1601045047805,1311,-0.140625,-0.28692627,0.9437866
1601045047809,1312,-0.13598633,-0.2852173,0.94207764
1601045047810,1313,-0.13671875,-0.28448486,0.94329834
1601045047813,1314,-0.13305664,-0.28375244,0.9369507
1601045047819,1315,-0.13891602,-0.2859497,0.9389038
1601045047819,1316,-0.13891602,-0.2859497,0.9389038
1601045047819,1317,-0.13891602,-0.2859497,0.9389038
1601045047819,1318,-0.13598633,-0.2852173,0.94207764
1601045047819,1319,-0.13745117,-0.28668213,0.9369507
1601045047819,1320,-0.13891602,-0.2859497,0.9389038
1601045047819,1321,-0.13745117,-0.28668213,0.9369507
1601045047819,1322,-0.13574219,-0.28448486,0.9430542
1601045047821,1323,-0.13745117,-0.28668213,0.9369507
1601045047821,1324,-0.13745117,-0.28668213,0.9369507
1601045047821,1325,-0.13574219,-0.28448486,0.9430542
1601045047821,1326,-0.13671875,-0.2822876,0.94207764
1601045047822,1327,-0.13574219,-0.28448486,0.9430542
1601045047822,1328,-0.13574219,-0.28448486,0.9430542
1601045047822,1329,-0.13671875,-0.2822876,0.94207764
1601045047822,1330,-0.13671875,-0.2822876,0.94207764
1601045047822,1331,-0.13598633,-0.28619385,0.9401245
1601045047822,1332,-0.13598633,-0.28619385,0.9401245
1601045047823,1333,-0.13671875,-0.2822876,0.94207764
1601045047823,1334,-0.13964844,-0.28277588,0.94036865
1601045047823,1335,-0.13598633,-0.28619385,0.9401245
1601045047824,1336,-0.13598633,-0.28619385,0.9401245
1601045047824,1337,-0.13964844,-0.28277588,0.94036865
1601045047825,1338,-0.13964844,-0.28277588,0.94036865
1601045047825,1339,-0.13549805,-0.2852173,0.94329834
1601045047826,1340,-0.13964844,-0.28277588,0.94036865
1601045047826,1341,-0.13549805,-0.2852173,0.94329834
1601045047826,1342,-0.13452148,-0.28375244,0.93963623
1601045047826,1343,-0.13549805,-0.2852173,0.94329834
1601045047827,1344,-0.13452148,-0.28375244,0.93963623
1601045047827,1345,-0.13452148,-0.28375244,0.93963623
1601045047827,1346,-0.13598633,-0.284729,0.9393921
1601045047828,1347,-0.13598633,-0.284729,0.9393921
1601045047828,1348,-0.13696289,-0.2835083,0.9393921
1601045047829,1349,-0.13598633,-0.284729,0.9393921
1601045047829,1350,-0.13549805,-0.2852173,0.94329834
1601045047831,1351,-0.13452148,-0.28375244,0.93963623
1601045047832,1352,-0.13696289,-0.2835083,0.9393921
1601045047838,1353,-0.13647461,-0.284729,0.9393921
1601045047838,1354,-0.13696289,-0.2835083,0.9393921
1601045047838,1355,-0.13598633,-0.284729,0.9393921
1601045047839,1356,-0.13647461,-0.284729,0.9393921
1601045047840,1357,-0.13549805,-0.28302002,0.9423218
1601045047840,1358,-0.13549805,-0.28302002,0.9423218
1601045047840,1359,-0.13696289,-0.2835083,0.9393921
1601045047840,1360,-0.13647461,-0.284729,0.9393921
1601045047841,1361,-0.13745117,-0.28448486,0.94036865
1601045047842,1362,-0.13745117,-0.28448486,0.94036865
1601045047842,1363,-0.13647461,-0.284729,0.9393921
1601045047842,1364,-0.13549805,-0.2871704,0.9393921
1601045047842,1365,-0.13549805,-0.28302002,0.9423218
1601045047843,1366,-0.13671875,-0.2852173,0.94036865
1601045047843,1367,-0.13549805,-0.28302002,0.9423218
1601045047843,1368,-0.13549805,-0.2876587,0.9398804
1601045047843,1369,-0.14013672,-0.28570557,0.93792725
1601045047851,1370,-0.13745117,-0.28448486,0.94036865
1601045047851,1371,-0.13745117,-0.28448486,0.94036865
1601045047852,1372,-0.13549805,-0.2871704,0.9393921
1601045047852,1373,-0.13549805,-0.2871704,0.9393921
1601045047852,1374,-0.13720703,-0.29034424,0.94158936
1601045047852,1375,-0.13549805,-0.2871704,0.9393921
1601045047852,1376,-0.13671875,-0.2852173,0.94036865
1601045047852,1377,-0.13671875,-0.2852173,0.94036865
1601045047852,1378,-0.14160156,-0.29327393,0.9423218
1601045047852,1379,-0.13549805,-0.2876587,0.9398804
1601045047852,1380,-0.13549805,-0.2876587,0.9398804
1601045047852,1381,-0.14013672,-0.28570557,0.93792725
1601045047853,1382,-0.13671875,-0.2852173,0.94036865
1601045047853,1383,-0.13720703,-0.29034424,0.94158936
1601045047853,1384,-0.13549805,-0.2876587,0.9398804
1601045047853,1385,-0.14160156,-0.29327393,0.9423218
1601045047855,1386,-0.14013672,-0.28570557,0.93792725
1601045047855,1387,-0.14013672,-0.28570557,0.93792725
1601045047855,1388,-0.13964844,-0.28277588,0.93670654
1601045047855,1389,-0.13964844,-0.28277588,0.93670654
1601045047855,1390,-0.13720703,-0.29034424,0.94158936
1601045047856,1391,-0.13647461,-0.284729,0.94085693
1601045047856,1392,-0.13647461,-0.284729,0.94085693
1601045047860,1393,-0.1381836,-0.2852173,0.9389038
1601045047860,1394,-0.14160156,-0.29327393,0.9423218
1601045047860,1395,-0.13964844,-0.28277588,0.93670654
1601045047860,1396,-0.13867188,-0.28497314,0.9401245
1601045047860,1397,-0.13720703,-0.29034424,0.94158936
1601045047866,1398,-0.1381836,-0.2852173,0.9389038
1601045047866,1399,-0.14160156,-0.29327393,0.9423218
1601045047867,1400,-0.13647461,-0.284729,0.94085693
1601045047867,1401,-0.13867188,-0.28497314,0.9401245
1601045047867,1402,-0.13964844,-0.28277588,0.93670654
1601045047867,1403,-0.1381836,-0.2852173,0.9389038
1601045047871,1404,-0.13647461,-0.284729,0.94085693
1601045047872,1405,-0.13867188,-0.28497314,0.9401245
1601045047872,1406,-0.1381836,-0.2852173,0.9389038
1601045047874,1407,-0.13867188,-0.28497314,0.9401245
1601045050466,1408,-0.13720703,-0.28741455,0.9398804
1601045050466,1409,-0.13720703,-0.28741455,0.9398804
1601045050466,1410,-0.13720703,-0.28741455,0.9398804
1601045050466,1411,-0.13720703,-0.28741455,0.9398804
1601045050468,1412,-0.13623047,-0.28326416,0.94036865
1601045050468,1413,-0.13623047,-0.28326416,0.94036865
1601045050470,1414,-0.13623047,-0.28326416,0.94036865
1601045050470,1415,-0.13623047,-0.28326416,0.94036865
1601045050470,1416,-0.13745117,-0.28619385,0.9401245
1601045050470,1417,-0.13745117,-0.28619385,0.9401245
1601045050470,1418,-0.13745117,-0.28619385,0.9401245
1601045050472,1419,-0.13745117,-0.28619385,0.9401245
1601045050472,1420,-0.13696289,-0.284729,0.93914795
1601045050473,1421,-0.13696289,-0.284729,0.93914795
1601045050473,1422,-0.13696289,-0.284729,0.93914795
1601045050473,1423,-0.13696289,-0.284729,0.93914795
1601045050476,1424,-0.13891602,-0.2871704,0.9398804
1601045050476,1425,-0.13891602,-0.2871704,0.9398804
1601045050476,1426,-0.13891602,-0.2871704,0.9398804
1601045050476,1427,-0.13891602,-0.2871704,0.9398804
1601045050476,1428,-0.13745117,-0.28497314,0.94329834
1601045050477,1429,-0.13745117,-0.28497314,0.94329834
1601045050477,1430,-0.13745117,-0.28497314,0.94329834
1601045050477,1431,-0.13745117,-0.28497314,0.94329834
1601045050478,1432,-0.1381836,-0.28155518,0.94158936
1601045050478,1433,-0.1381836,-0.28155518,0.94158936
1601045050478,1434,-0.13769531,-0.28814697,0.94403076
1601045050478,1435,-0.13769531,-0.28814697,0.94403076
1601045050479,1436,-0.1381836,-0.28155518,0.94158936
1601045050481,1437,-0.14086914,-0.28546143,0.94036865
1601045050481,1438,-0.13769531,-0.28814697,0.94403076
1601045050482,1439,-0.14086914,-0.28546143,0.94036865
1601045050482,1440,-0.1381836,-0.28155518,0.94158936
1601045050485,1441,-0.13842773,-0.28424072,0.9389038
1601045050485,1442,-0.14086914,-0.28546143,0.94036865
1601045050485,1443,-0.13842773,-0.28424072,0.9389038
1601045050485,1444,-0.13452148,-0.2793579,0.94329834
1601045050495,1445,-0.13842773,-0.28424072,0.9389038
1601045050498,1446,-0.13354492,-0.28009033,0.94085693
1601045050498,1447,-0.13452148,-0.2793579,0.94329834
1601045050499,1448,-0.13452148,-0.2793579,0.94329834
1601045050499,1449,-0.13769531,-0.28814697,0.94403076
1601045050499,1450,-0.13671875,-0.28790283,0.94085693
1601045050501,1451,-0.13354492,-0.28009033,0.94085693
1601045050501,1452,-0.13720703,-0.28570557,0.9381714
1601045050501,1453,-0.14086914,-0.28546143,0.94036865
1601045050501,1454,-0.13354492,-0.28009033,0.94085693
1601045050502,1455,-0.13671875,-0.28790283,0.94085693
1601045050503,1456,-0.13720703,-0.28570557,0.9381714
1601045050503,1457,-0.13842773,-0.28424072,0.9389038
1601045050504,1458,-0.13671875,-0.28790283,0.94085693
1601045050504,1459,-0.13354492,-0.28546143,0.9406128
1601045050504,1460,-0.13720703,-0.28570557,0.9381714
1601045050506,1461,-0.13452148,-0.2793579,0.94329834
1601045050506,1462,-0.13354492,-0.28546143,0.9406128
1601045050507,1463,-0.13354492,-0.28546143,0.9406128
1601045050507,1464,-0.13427734,-0.2852173,0.94036865
1601045050507,1465,-0.13427734,-0.2852173,0.94036865
1601045050507,1466,-0.13354492,-0.28009033,0.94085693
1601045050507,1467,-0.13427734,-0.2852173,0.94036865
1601045050507,1468,-0.1352539,-0.28424072,0.9413452
1601045050507,1469,-0.1352539,-0.28424072,0.9413452
1601045050508,1470,-0.13671875,-0.28790283,0.94085693
1601045050508,1471,-0.1352539,-0.28424072,0.9413452
1601045050512,1472,-0.13500977,-0.28546143,0.93865967
1601045050512,1473,-0.13720703,-0.28570557,0.9381714
1601045050512,1474,-0.13500977,-0.28546143,0.93865967
1601045050512,1475,-0.13500977,-0.28546143,0.93865967
1601045050513,1476,-0.13061523,-0.28741455,0.9442749
1601045050514,1477,-0.13354492,-0.28546143,0.9406128
1601045050514,1478,-0.13061523,-0.28741455,0.9442749
1601045050514,1479,-0.13061523,-0.28741455,0.9442749
1601045050514,1480,-0.13867188,-0.2793579,0.9381714
1601045050515,1481,-0.13427734,-0.2852173,0.94036865
1601045050515,1482,-0.13867188,-0.2793579,0.9381714
1601045050515,1483,-0.13867188,-0.2793579,0.9381714
1601045050516,1484,-0.12988281,-0.2859497,0.94085693
1601045050516,1485,-0.1352539,-0.28424072,0.9413452
1601045050516,1486,-0.12988281,-0.2859497,0.94085693
1601045050516,1487,-0.12988281,-0.2859497,0.94085693
1601045050517,1488,-0.1352539,-0.28399658,0.9442749
1601045050517,1489,-0.1352539,-0.28399658,0.9442749
1601045050517,1490,-0.1352539,-0.28399658,0.9442749
1601045050518,1491,-0.13500977,-0.28546143,0.93865967
1601045050518,1492,-0.13549805,-0.28082275,0.94281006
1601045050518,1493,-0.13549805,-0.28082275,0.94281006
1601045050519,1494,-0.13549805,-0.28082275,0.94281006
1601045050520,1495,-0.13330078,-0.28570557,0.9435425
1601045050520,1496,-0.13061523,-0.28741455,0.9442749
1601045050520,1497,-0.13330078,-0.28570557,0.9435425
1601045050521,1498,-0.13867188,-0.2793579,0.9381714
1601045050521,1499,-0.13623047,-0.2793579,0.9437866
1601045050522,1500,-0.13330078,-0.28570557,0.9435425
1601045050522,1501,-0.13623047,-0.2793579,0.9437866
1601045050522,1502,-0.12988281,-0.2859497,0.94085693
1601045050522,1503,-0.13598633,-0.28399658,0.9418335
1601045050523,1504,-0.1352539,-0.28399658,0.9442749
1601045050524,1505,-0.13623047,-0.2793579,0.9437866
1601045050524,1506,-0.13330078,-0.28399658,0.9371948
1601045050524,1507,-0.13598633,-0.28399658,0.9418335
1601045050524,1508,-0.13574219,-0.28131104,0.94329834
1601045050525,1509,-0.13549805,-0.28082275,0.94281006
1601045050525,1510,-0.13330078,-0.28399658,0.9371948
1601045050525,1511,-0.13598633,-0.28399658,0.9418335
1601045050525,1512,-0.13330078,-0.28570557,0.9435425
1601045050525,1513,-0.13452148,-0.28570557,0.93743896
1601045050526,1514,-0.13574219,-0.28131104,0.94329834
1601045050526,1515,-0.13623047,-0.2793579,0.9437866
1601045050526,1516,-0.13330078,-0.28399658,0.9371948
1601045050526,1517,-0.13671875,-0.284729,0.9401245
1601045050526,1518,-0.13452148,-0.28570557,0.93743896
1601045050527,1519,-0.13598633,-0.28399658,0.9418335
1601045050528,1520,-0.13574219,-0.28131104,0.94329834
1601045050528,1521,-0.13769531,-0.28570557,0.9406128
1601045050528,1522,-0.13671875,-0.284729,0.9401245
1601045050528,1523,-0.13452148,-0.28570557,0.93743896
1601045050530,1524,-0.1340332,-0.28790283,0.94036865
1601045050530,1525,-0.13769531,-0.28570557,0.9406128
1601045050530,1526,-0.13330078,-0.28399658,0.9371948
1601045050531,1527,-0.13671875,-0.284729,0.9401245
1601045050532,1528,-0.1340332,-0.28790283,0.94036865
1601045050532,1529,-0.13769531,-0.28570557,0.9406128
1601045050533,1530,-0.1340332,-0.28790283,0.94036865
1601045050534,1531,-0.13574219,-0.28131104,0.94329834
1601045050535,1532,-0.13452148,-0.28570557,0.93743896
1601045050535,1533,-0.13671875,-0.284729,0.9401245
1601045050536,1534,-0.13769531,-0.28570557,0.9406128
1601045050537,1535,-0.1340332,-0.28790283,0.94036865
1601045052814,1536,-0.13745117,-0.28277588,0.9393921
1601045052816,1537,-0.13745117,-0.28277588,0.9393921
1601045052816,1538,-0.13745117,-0.28277588,0.9393921
1601045052820,1539,-0.13745117,-0.28277588,0.9393921
1601045052821,1540,-0.13793945,-0.28424072,0.9369507
1601045052826,1541,-0.13793945,-0.28424072,0.9369507
1601045052832,1542,-0.13793945,-0.28424072,0.9369507
1601045052832,1543,-0.13427734,-0.28961182,0.9418335
1601045052838,1544,-0.13427734,-0.28961182,0.9418335
1601045052838,1545,-0.13427734,-0.28961182,0.9418335
1601045052838,1546,-0.14135742,-0.28692627,0.9371948
1601045052838,1547,-0.14135742,-0.28692627,0.9371948
1601045052838,1548,-0.14135742,-0.28692627,0.9371948
1601045052838,1549,-0.13793945,-0.28424072,0.9369507
1601045052839,1550,-0.13696289,-0.2852173,0.9418335
1601045052839,1551,-0.13696289,-0.2852173,0.9418335
1601045052839,1552,-0.13427734,-0.28961182,0.9418335
1601045052840,1553,-0.13696289,-0.2852173,0.9418335
1601045052840,1554,-0.14135742,-0.28692627,0.9371948
1601045052841,1555,-0.13720703,-0.2859497,0.94036865
1601045052841,1556,-0.13916016,-0.28692627,0.9406128
1601045052841,1557,-0.13720703,-0.2859497,0.94036865
1601045052842,1558,-0.13720703,-0.2859497,0.94036865
1601045052843,1559,-0.13867188,-0.28790283,0.9406128
1601045052846,1560,-0.13696289,-0.2852173,0.9418335
1601045052847,1561,-0.13916016,-0.28692627,0.9406128
1601045052847,1562,-0.13964844,-0.28863525,0.9425659
1601045052847,1563,-0.13916016,-0.28692627,0.9406128
1601045052847,1564,-0.13720703,-0.2859497,0.94036865
1601045052847,1565,-0.13745117,-0.28448486,0.93573
1601045052847,1566,-0.13916016,-0.28692627,0.9406128
1601045052848,1567,-0.13867188,-0.28790283,0.9406128
1601045052848,1568,-0.1381836,-0.28692627,0.9413452
1601045052849,1569,-0.13867188,-0.28790283,0.9406128
1601045052849,1570,-0.13964844,-0.28863525,0.9425659
1601045052850,1571,-0.13916016,-0.2871704,0.93963623
1601045052850,1572,-0.13867188,-0.28790283,0.9406128
1601045052851,1573,-0.13964844,-0.28863525,0.9425659
1601045052851,1574,-0.13745117,-0.28448486,0.93573
1601045052851,1575,-0.13671875,-0.28961182,0.9411011
1601045052852,1576,-0.13745117,-0.28448486,0.93573
1601045052865,1577,-0.1381836,-0.28692627,0.9413452
1601045052865,1578,-0.13964844,-0.28497314,0.9384155
1601045052865,1579,-0.1381836,-0.28692627,0.9413452
1601045052865,1580,-0.13964844,-0.28863525,0.9425659
1601045052865,1581,-0.13916016,-0.2871704,0.93963623
1601045052866,1582,-0.13745117,-0.28448486,0.93573
1601045052867,1583,-0.13671875,-0.28961182,0.9411011
1601045052867,1584,-0.13916016,-0.2871704,0.93963623
1601045052869,1585,-0.1381836,-0.28692627,0.9413452
1601045052869,1586,-0.13330078,-0.28814697,0.94036865
1601045052869,1587,-0.13964844,-0.28497314,0.9384155
1601045052869,1588,-0.13671875,-0.28961182,0.9411011
1601045052874,1589,-0.13330078,-0.28814697,0.94036865
1601045052874,1590,-0.13964844,-0.28497314,0.9384155
1601045052874,1591,-0.13330078,-0.28814697,0.94036865
1601045052874,1592,-0.140625,-0.2859497,0.9406128
1601045052875,1593,-0.140625,-0.2859497,0.9406128
1601045052875,1594,-0.140625,-0.2859497,0.9406128
1601045052875,1595,-0.13671875,-0.286438,0.93914795
1601045052875,1596,-0.13671875,-0.286438,0.93914795
1601045052882,1597,-0.13647461,-0.28668213,0.9435425
1601045052882,1598,-0.13671875,-0.286438,0.93914795
1601045052882,1599,-0.13647461,-0.28668213,0.9435425
1601045052882,1600,-0.13696289,-0.28277588,0.94036865
1601045052885,1601,-0.13916016,-0.2871704,0.93963623
1601045052885,1602,-0.13647461,-0.28668213,0.9435425
1601045052885,1603,-0.13696289,-0.28277588,0.94036865
1601045052885,1604,-0.1394043,-0.28692627,0.9406128
1601045052891,1605,-0.13671875,-0.28961182,0.9411011
1601045052891,1606,-0.1394043,-0.28692627,0.9406128
1601045052891,1607,-0.13964844,-0.28497314,0.9384155
1601045052892,1608,-0.13623047,-0.286438,0.94281006
1601045052893,1609,-0.13696289,-0.28277588,0.94036865
1601045052893,1610,-0.13623047,-0.286438,0.94281006
1601045052893,1611,-0.13745117,-0.28741455,0.9401245
1601045052893,1612,-0.1394043,-0.28692627,0.9406128
1601045052894,1613,-0.13745117,-0.28741455,0.9401245
1601045052894,1614,-0.13696289,-0.28546143,0.9430542
1601045052898,1615,-0.13623047,-0.28253174,0.9384155
1601045052898,1616,-0.13696289,-0.28546143,0.9430542
1601045052898,1617,-0.13623047,-0.286438,0.94281006
1601045052898,1618,-0.13720703,-0.2876587,0.9423218
1601045052899,1619,-0.13623047,-0.28253174,0.9384155
1601045052899,1620,-0.13330078,-0.28814697,0.94036865
1601045052899,1621,-0.13745117,-0.28741455,0.9401245
1601045052899,1622,-0.13720703,-0.2876587,0.9423218
1601045052899,1623,-0.13647461,-0.28570557,0.9437866
1601045052899,1624,-0.13647461,-0.28570557,0.9437866
1601045052899,1625,-0.140625,-0.2859497,0.9406128
1601045052902,1626,-0.13671875,-0.286438,0.93914795
1601045052909,1627,-0.13598633,-0.28448486,0.9393921
1601045052909,1628,-0.13598633,-0.28448486,0.9393921
1601045052910,1629,-0.13696289,-0.28546143,0.9430542
1601045052910,1630,-0.13330078,-0.28497314,0.9425659
1601045052910,1631,-0.13647461,-0.28668213,0.9435425
1601045052910,1632,-0.13330078,-0.28497314,0.9425659
1601045052912,1633,-0.13696289,-0.28277588,0.94036865
1601045052913,1634,-0.13793945,-0.28448486,0.93865967
1601045052913,1635,-0.13623047,-0.28253174,0.9384155
1601045052914,1636,-0.1394043,-0.28692627,0.9406128
1601045052914,1637,-0.13232422,-0.28692627,0.94207764
1601045052914,1638,-0.13793945,-0.28448486,0.93865967
1601045052914,1639,-0.13720703,-0.2876587,0.9423218
1601045052914,1640,-0.13623047,-0.286438,0.94281006
1601045052915,1641,-0.13500977,-0.284729,0.9398804
1601045052915,1642,-0.13647461,-0.28570557,0.9437866
1601045052915,1643,-0.13232422,-0.28692627,0.94207764
1601045052915,1644,-0.13745117,-0.28741455,0.9401245
1601045052916,1645,-0.13671875,-0.2852173,0.94085693
1601045052916,1646,-0.13500977,-0.284729,0.9398804
1601045052921,1647,-0.13696289,-0.28546143,0.9430542
1601045052922,1648,-0.13598633,-0.28448486,0.9393921
1601045052923,1649,-0.13671875,-0.2852173,0.94085693
1601045052923,1650,-0.13623047,-0.28253174,0.9384155
1601045052923,1651,-0.13330078,-0.28497314,0.9425659
1601045052923,1652,-0.13720703,-0.2876587,0.9423218
1601045052925,1653,-0.13647461,-0.28570557,0.9437866
1601045052925,1654,-0.13793945,-0.28448486,0.93865967
1601045052926,1655,-0.13598633,-0.28448486,0.9393921
1601045052926,1656,-0.13330078,-0.28497314,0.9425659
1601045052927,1657,-0.13232422,-0.28692627,0.94207764
1601045052927,1658,-0.13793945,-0.28448486,0.93865967
1601045052927,1659,-0.13232422,-0.28692627,0.94207764
1601045052927,1660,-0.13500977,-0.284729,0.9398804
1601045052928,1661,-0.13671875,-0.2852173,0.94085693
1601045052930,1662,-0.13500977,-0.284729,0.9398804
1601045052931,1663,-0.13671875,-0.2852173,0.94085693
