# Sensor position: Wrist
# Sensor side: Left
# Activity type: Sitting bent forward
# Activity code: 4
# Subject id: s1701688
timestamp,seq,accel_x,accel_y,accel_z
1601044819196,0,-0.3684082,0.55999756,0.6935425
1601044819197,1,-0.3684082,0.55999756,0.6935425
1601044819199,2,-0.3684082,0.55999756,0.6935425
1601044819200,3,-0.36669922,0.5614624,0.70306396
1601044819200,4,-0.3684082,0.55999756,0.6935425
1601044819200,5,-0.36669922,0.5614624,0.70306396
1601044819202,6,-0.36669922,0.5614624,0.70306396
1601044819206,7,-0.36816406,0.55804443,0.6967163
1601044819208,8,-0.36669922,0.5614624,0.70306396
1601044819208,9,-0.36816406,0.55804443,0.6967163
1601044819209,10,-0.36938477,0.56048584,0.6947632
1601044819210,11,-0.36938477,0.56048584,0.6947632
1601044819210,12,-0.36816406,0.55804443,0.6967163
1601044819210,13,-0.36938477,0.56048584,0.6947632
1601044819210,14,-0.36791992,0.5643921,0.7008667
1601044819216,15,-0.36791992,0.5643921,0.7008667
1601044819217,16,-0.36791992,0.5643921,0.7008667
1601044819219,17,-0.36816406,0.55804443,0.6967163
1601044819219,18,-0.3701172,0.5595093,0.7001343
1601044819220,19,-0.3701172,0.5595093,0.7001343
1601044819221,20,-0.36938477,0.56048584,0.6947632
1601044819221,21,-0.3701172,0.5595093,0.7001343
1601044819221,22,-0.37329102,0.5512085,0.7020874
1601044819222,23,-0.37329102,0.5512085,0.7020874
1601044819224,24,-0.37353516,0.5570679,0.70111084
1601044819224,25,-0.36791992,0.5643921,0.7008667
1601044819224,26,-0.37329102,0.5512085,0.7020874
1601044819225,27,-0.37060547,0.55926514,0.69451904
1601044819225,28,-0.37353516,0.5570679,0.70111084
1601044819225,29,-0.37353516,0.5570679,0.70111084
1601044819225,30,-0.3737793,0.55682373,0.7015991
1601044819228,31,-0.3701172,0.5595093,0.7001343
1601044819229,32,-0.37060547,0.55926514,0.69451904
1601044819229,33,-0.37060547,0.55926514,0.69451904
1601044819229,34,-0.3737793,0.55145264,0.6967163
1601044819232,35,-0.3737793,0.55682373,0.7015991
1601044819232,36,-0.37329102,0.5512085,0.7020874
1601044819232,37,-0.37548828,0.54608154,0.7067261
1601044819232,38,-0.3737793,0.55682373,0.7015991
1601044819234,39,-0.3737793,0.55145264,0.6967163
1601044819234,40,-0.37353516,0.5570679,0.70111084
1601044819234,41,-0.37695312,0.55340576,0.7033081
1601044819236,42,-0.37060547,0.55926514,0.69451904
1601044819237,43,-0.3737793,0.55145264,0.6967163
1601044819238,44,-0.37548828,0.54608154,0.7067261
1601044819238,45,-0.37402344,0.555603,0.69866943
1601044819238,46,-0.37695312,0.55340576,0.7033081
1601044819239,47,-0.37548828,0.54608154,0.7067261
1601044819239,48,-0.3737793,0.55682373,0.7015991
1601044819239,49,-0.37548828,0.5565796,0.6989136
1601044819242,50,-0.37695312,0.55340576,0.7033081
1601044819243,51,-0.3737793,0.55145264,0.6967163
1601044819244,52,-0.37402344,0.555603,0.69866943
1601044819244,53,-0.37524414,0.54730225,0.7008667
1601044819244,54,-0.37402344,0.555603,0.69866943
1601044819244,55,-0.37548828,0.5565796,0.6989136
1601044819244,56,-0.37768555,0.54974365,0.7025757
1601044819249,57,-0.37548828,0.5565796,0.6989136
1601044819250,58,-0.37768555,0.5465698,0.70111084
1601044819250,59,-0.37524414,0.54730225,0.7008667
1601044819251,60,-0.37524414,0.54730225,0.7008667
1601044819251,61,-0.37695312,0.5504761,0.7025757
1601044819252,62,-0.37548828,0.54608154,0.7067261
1601044819252,63,-0.37695312,0.55340576,0.7033081
1601044819253,64,-0.37890625,0.5507202,0.69940186
1601044819253,65,-0.37402344,0.555603,0.69866943
1601044819254,66,-0.37768555,0.54974365,0.7025757
1601044819254,67,-0.37548828,0.5565796,0.6989136
1601044819254,68,-0.37573242,0.55023193,0.7003784
1601044819255,69,-0.37768555,0.5465698,0.70111084
1601044819255,70,-0.37719727,0.55145264,0.7033081
1601044819255,71,-0.37524414,0.54730225,0.7008667
1601044819256,72,-0.37695312,0.5504761,0.7025757
1601044819258,73,-0.37768555,0.54974365,0.7025757
1601044819258,74,-0.37768555,0.54974365,0.7025757
1601044819258,75,-0.37890625,0.5507202,0.69940186
1601044819258,76,-0.37597656,0.54974365,0.7028198
1601044819262,77,-0.37768555,0.5465698,0.70111084
1601044819262,78,-0.37768555,0.5465698,0.70111084
1601044819262,79,-0.37426758,0.5507202,0.7040405
1601044819263,80,-0.37573242,0.55023193,0.7003784
1601044819263,81,-0.37695312,0.5504761,0.7025757
1601044819263,82,-0.37573242,0.54022217,0.7111206
1601044819264,83,-0.37719727,0.55145264,0.7033081
1601044819264,84,-0.37695312,0.5504761,0.7025757
1601044819264,85,-0.37890625,0.5507202,0.69940186
1601044819265,86,-0.37890625,0.5507202,0.69940186
1601044819265,87,-0.37573242,0.55023193,0.7003784
1601044819268,88,-0.37597656,0.54974365,0.7028198
1601044819268,89,-0.37963867,0.5548706,0.7069702
1601044819269,90,-0.37573242,0.55023193,0.7003784
1601044819269,91,-0.37719727,0.55145264,0.7033081
1601044819269,92,-0.3684082,0.54974365,0.701355
1601044819270,93,-0.37719727,0.55145264,0.7033081
1601044819271,94,-0.37426758,0.5507202,0.7040405
1601044819272,95,-0.37597656,0.54974365,0.7028198
1601044819272,96,-0.37597656,0.54974365,0.7028198
1601044819272,97,-0.37573242,0.54022217,0.7111206
1601044819272,98,-0.37426758,0.5507202,0.7040405
1601044819272,99,-0.36376953,0.55462646,0.6989136
1601044819272,100,-0.37426758,0.5507202,0.7040405
1601044819273,101,-0.37963867,0.5548706,0.7069702
1601044819273,102,-0.37573242,0.54022217,0.7111206
1601044819273,103,-0.3659668,0.5536499,0.70428467
1601044819274,104,-0.37573242,0.54022217,0.7111206
1601044819275,105,-0.37963867,0.5548706,0.7069702
1601044819275,106,-0.3684082,0.54974365,0.701355
1601044819275,107,-0.37963867,0.5548706,0.7069702
1601044819275,108,-0.37036133,0.5548706,0.7123413
1601044819275,109,-0.3684082,0.54974365,0.701355
1601044819278,110,-0.36376953,0.55462646,0.6989136
1601044819278,111,-0.3605957,0.5404663,0.70770264
1601044819278,112,-0.3684082,0.54974365,0.701355
1601044819279,113,-0.36669922,0.5494995,0.7081909
1601044819279,114,-0.3659668,0.5536499,0.70428467
1601044819280,115,-0.36376953,0.55462646,0.6989136
1601044819281,116,-0.37036133,0.5548706,0.7123413
1601044819282,117,-0.3659668,0.5536499,0.70428467
1601044819283,118,-0.36376953,0.55462646,0.6989136
1601044819284,119,-0.3605957,0.5404663,0.70770264
1601044819284,120,-0.37036133,0.5548706,0.7123413
1601044819285,121,-0.36669922,0.5494995,0.7081909
1601044819285,122,-0.3659668,0.5536499,0.70428467
1601044819287,123,-0.3605957,0.5404663,0.70770264
1601044819287,124,-0.37036133,0.5548706,0.7123413
1601044819289,125,-0.36669922,0.5494995,0.7081909
1601044819289,126,-0.3605957,0.5404663,0.70770264
1601044819292,127,-0.36669922,0.5494995,0.7081909
1601044821540,128,-0.36279297,0.56048584,0.70233154
1601044821540,129,-0.36279297,0.56048584,0.70233154
1601044821541,130,-0.36279297,0.56048584,0.70233154
1601044821541,131,-0.36279297,0.56048584,0.70233154
1601044821545,132,-0.36108398,0.55877686,0.6976929
1601044821545,133,-0.36108398,0.55877686,0.6976929
1601044821546,134,-0.36108398,0.55877686,0.6976929
1601044821546,135,-0.36108398,0.55877686,0.6976929
1601044821547,136,-0.3605957,0.5597534,0.6991577
1601044821547,137,-0.3605957,0.5597534,0.6991577
1601044821548,138,-0.36132812,0.55755615,0.7057495
1601044821549,139,-0.3605957,0.5597534,0.6991577
1601044821552,140,-0.36132812,0.55755615,0.7057495
1601044821552,141,-0.36523438,0.55584717,0.70721436
1601044821552,142,-0.36523438,0.55584717,0.70721436
1601044821552,143,-0.36132812,0.55755615,0.7057495
1601044821552,144,-0.36523438,0.55584717,0.70721436
1601044821553,145,-0.36645508,0.5487671,0.7177124
1601044821554,146,-0.3605957,0.5597534,0.6991577
1601044821554,147,-0.36645508,0.5487671,0.7177124
1601044821554,148,-0.36083984,0.5453491,0.696228
1601044821555,149,-0.36645508,0.5487671,0.7177124
1601044821555,150,-0.36010742,0.5680542,0.6976929
1601044821555,151,-0.36132812,0.55755615,0.7057495
1601044821555,152,-0.36083984,0.5453491,0.696228
1601044821555,153,-0.35913086,0.57318115,0.697937
1601044821556,154,-0.36083984,0.5453491,0.696228
1601044821558,155,-0.36108398,0.5487671,0.69403076
1601044821558,156,-0.36010742,0.5680542,0.6976929
1601044821558,157,-0.36010742,0.5680542,0.6976929
1601044821558,158,-0.36669922,0.5639038,0.7037964
1601044821558,159,-0.35913086,0.57318115,0.697937
1601044821558,160,-0.35913086,0.57318115,0.697937
1601044821558,161,-0.3696289,0.5543823,0.7001343
1601044821559,162,-0.36108398,0.5487671,0.69403076
1601044821559,163,-0.36108398,0.5487671,0.69403076
1601044821560,164,-0.36669922,0.5639038,0.7037964
1601044821561,165,-0.36669922,0.5639038,0.7037964
1601044821561,166,-0.3708496,0.5543823,0.70892334
1601044821561,167,-0.36523438,0.55584717,0.70721436
1601044821561,168,-0.3696289,0.5543823,0.7001343
1601044821562,169,-0.38354492,0.5475464,0.6991577
1601044821562,170,-0.36645508,0.5487671,0.7177124
1601044821563,171,-0.3696289,0.5543823,0.7001343
1601044821564,172,-0.37719727,0.54193115,0.7123413
1601044821564,173,-0.36083984,0.5453491,0.696228
1601044821564,174,-0.3708496,0.5543823,0.70892334
1601044821565,175,-0.36010742,0.5680542,0.6976929
1601044821566,176,-0.38354492,0.5475464,0.6991577
1601044821567,177,-0.3708496,0.5543823,0.70892334
1601044821567,178,-0.37573242,0.5309448,0.71795654
1601044821567,179,-0.35913086,0.57318115,0.697937
1601044821568,180,-0.37719727,0.54193115,0.7123413
1601044821569,181,-0.38305664,0.5438843,0.70965576
1601044821569,182,-0.36108398,0.5487671,0.69403076
1601044821569,183,-0.38354492,0.5475464,0.6991577
1601044821569,184,-0.3869629,0.5338745,0.7067261
1601044821569,185,-0.37573242,0.5309448,0.71795654
1601044821569,186,-0.36669922,0.5639038,0.7037964
1601044821569,187,-0.37719727,0.54193115,0.7123413
1601044821570,188,-0.39794922,0.5363159,0.696228
1601044821570,189,-0.3955078,0.5482788,0.71209717
1601044821570,190,-0.3696289,0.5543823,0.7001343
1601044821571,191,-0.38305664,0.5438843,0.70965576
1601044821571,192,-0.37573242,0.5309448,0.71795654
1601044821572,193,-0.3708496,0.5543823,0.70892334
1601044821573,194,-0.39282227,0.53338623,0.713562
1601044821573,195,-0.38305664,0.5438843,0.70965576
1601044821573,196,-0.3869629,0.5338745,0.7067261
1601044821573,197,-0.38891602,0.53460693,0.7062378
1601044821573,198,-0.3869629,0.5338745,0.7067261
1601044821574,199,-0.39794922,0.5363159,0.696228
1601044821574,200,-0.39892578,0.5375366,0.70428467
1601044821574,201,-0.38354492,0.5475464,0.6991577
1601044821574,202,-0.39794922,0.5363159,0.696228
1601044821574,203,-0.39379883,0.5314331,0.7094116
1601044821575,204,-0.3955078,0.5482788,0.71209717
1601044821577,205,-0.3955078,0.53778076,0.70965576
1601044821577,206,-0.37719727,0.54193115,0.7123413
1601044821577,207,-0.3955078,0.5482788,0.71209717
1601044821578,208,-0.39282227,0.53338623,0.713562
1601044821578,209,-0.39624023,0.54022217,0.6984253
1601044821578,210,-0.37573242,0.5309448,0.71795654
1601044821578,211,-0.39282227,0.53338623,0.713562
1601044821578,212,-0.38891602,0.53460693,0.7062378
1601044821579,213,-0.39624023,0.5429077,0.70721436
1601044821580,214,-0.38891602,0.53460693,0.7062378
1601044821580,215,-0.39892578,0.5375366,0.70428467
1601044821580,216,-0.38305664,0.5438843,0.70965576
1601044821580,217,-0.39892578,0.5375366,0.70428467
1601044821580,218,-0.39379883,0.5314331,0.7094116
1601044821581,219,-0.3869629,0.5338745,0.7067261
1601044821581,220,-0.3935547,0.53533936,0.7164917
1601044821582,221,-0.39379883,0.5314331,0.7094116
1601044821582,222,-0.3955078,0.53778076,0.70965576
1601044821583,223,-0.38891602,0.53289795,0.70648193
1601044821583,224,-0.3955078,0.53778076,0.70965576
1601044821583,225,-0.39794922,0.5363159,0.696228
1601044821583,226,-0.39624023,0.54022217,0.6984253
1601044821584,227,-0.39624023,0.54022217,0.6984253
1601044821584,228,-0.3798828,0.5565796,0.6959839
1601044821584,229,-0.3955078,0.5482788,0.71209717
1601044821584,230,-0.39624023,0.5429077,0.70721436
1601044821586,231,-0.39624023,0.5429077,0.70721436
1601044821587,232,-0.38012695,0.5477905,0.7028198
1601044821587,233,-0.3935547,0.53533936,0.7164917
1601044821588,234,-0.39282227,0.53338623,0.713562
1601044821588,235,-0.3935547,0.53533936,0.7164917
1601044821588,236,-0.38891602,0.53289795,0.70648193
1601044821588,237,-0.38891602,0.53460693,0.7062378
1601044821588,238,-0.3881836,0.541687,0.71087646
1601044821588,239,-0.38891602,0.53289795,0.70648193
1601044821588,240,-0.3798828,0.5565796,0.6959839
1601044821589,241,-0.39892578,0.5375366,0.70428467
1601044821590,242,-0.3798828,0.5565796,0.6959839
1601044821590,243,-0.38012695,0.5477905,0.7028198
1601044821590,244,-0.38012695,0.5477905,0.7028198
1601044821591,245,-0.3881836,0.541687,0.71087646
1601044821591,246,-0.39379883,0.5314331,0.7094116
1601044821591,247,-0.3881836,0.541687,0.71087646
1601044821591,248,-0.3955078,0.53778076,0.70965576
1601044821593,249,-0.39624023,0.54022217,0.6984253
1601044821594,250,-0.39624023,0.5429077,0.70721436
1601044821594,251,-0.3935547,0.53533936,0.7164917
1601044821595,252,-0.38891602,0.53289795,0.70648193
1601044821595,253,-0.3798828,0.5565796,0.6959839
1601044821596,254,-0.38012695,0.5477905,0.7028198
1601044821596,255,-0.3881836,0.541687,0.71087646
1601044824069,256,-0.38085938,0.5309448,0.70648193
1601044824070,257,-0.38085938,0.5309448,0.70648193
1601044824070,258,-0.38085938,0.5309448,0.70648193
1601044824070,259,-0.38085938,0.5309448,0.70648193
1601044824071,260,-0.37402344,0.5519409,0.69989014
1601044824072,261,-0.37402344,0.5519409,0.69989014
1601044824072,262,-0.37402344,0.5519409,0.69989014
1601044824072,263,-0.37402344,0.5519409,0.69989014
1601044824072,264,-0.37695312,0.5560913,0.6976929
1601044824073,265,-0.37695312,0.5560913,0.6976929
1601044824073,266,-0.37695312,0.5560913,0.6976929
1601044824073,267,-0.37573242,0.55096436,0.7033081
1601044824073,268,-0.37573242,0.55096436,0.7033081
1601044824073,269,-0.37695312,0.5560913,0.6976929
1601044824073,270,-0.37573242,0.55096436,0.7033081
1601044824074,271,-0.3803711,0.54486084,0.7069702
1601044824075,272,-0.3803711,0.54486084,0.7069702
1601044824075,273,-0.37573242,0.55096436,0.7033081
1601044824075,274,-0.38085938,0.5441284,0.7050171
1601044824075,275,-0.3803711,0.54486084,0.7069702
1601044824075,276,-0.38085938,0.5441284,0.7050171
1601044824075,277,-0.3803711,0.54486084,0.7069702
1601044824076,278,-0.38061523,0.5477905,0.7028198
1601044824076,279,-0.38085938,0.5441284,0.7050171
1601044824077,280,-0.38061523,0.5477905,0.7028198
1601044824077,281,-0.38085938,0.5441284,0.7050171
1601044824078,282,-0.37695312,0.5421753,0.7033081
1601044824078,283,-0.38061523,0.5477905,0.7028198
1601044824078,284,-0.37695312,0.5421753,0.7033081
1601044824078,285,-0.37695312,0.5421753,0.7033081
1601044824078,286,-0.37890625,0.54730225,0.7020874
1601044824079,287,-0.37890625,0.54730225,0.7020874
1601044824079,288,-0.37890625,0.54730225,0.7020874
1601044824083,289,-0.38354492,0.5441284,0.7037964
1601044824083,290,-0.38061523,0.5477905,0.7028198
1601044824083,291,-0.38354492,0.5441284,0.7037964
1601044824083,292,-0.38110352,0.54486084,0.7098999
1601044824085,293,-0.37695312,0.5421753,0.7033081
1601044824085,294,-0.38354492,0.5441284,0.7037964
1601044824086,295,-0.37817383,0.5441284,0.70599365
1601044824086,296,-0.38110352,0.54486084,0.7098999
1601044824086,297,-0.37890625,0.54730225,0.7020874
1601044824086,298,-0.38354492,0.5441284,0.7037964
1601044824086,299,-0.37817383,0.5441284,0.70599365
1601044824086,300,-0.37670898,0.5482788,0.7033081
1601044824086,301,-0.38110352,0.54486084,0.7098999
1601044824087,302,-0.37670898,0.5482788,0.7033081
1601044824087,303,-0.37817383,0.5441284,0.70599365
1601044824087,304,-0.3779297,0.5512085,0.70306396
1601044824088,305,-0.37670898,0.5482788,0.7033081
1601044824090,306,-0.38110352,0.54486084,0.70843506
1601044824090,307,-0.3779297,0.5512085,0.70306396
1601044824090,308,-0.3779297,0.5512085,0.70306396
1601044824091,309,-0.38110352,0.54486084,0.7098999
1601044824091,310,-0.3798828,0.5453491,0.70843506
1601044824091,311,-0.38110352,0.54486084,0.70843506
1601044824091,312,-0.38110352,0.54486084,0.70843506
1601044824091,313,-0.37817383,0.5441284,0.70599365
1601044824091,314,-0.3798828,0.5453491,0.70843506
1601044824091,315,-0.37670898,0.5482788,0.7033081
1601044824091,316,-0.38305664,0.55218506,0.70184326
1601044824093,317,-0.3798828,0.5453491,0.70843506
1601044824093,318,-0.38305664,0.55218506,0.70184326
1601044824093,319,-0.3779297,0.5512085,0.70306396
1601044824094,320,-0.38305664,0.55218506,0.70184326
1601044824094,321,-0.38256836,0.545105,0.7067261
1601044824094,322,-0.38256836,0.545105,0.7067261
1601044824094,323,-0.38110352,0.54486084,0.70843506
1601044824094,324,-0.37939453,0.5477905,0.7057495
1601044824099,325,-0.37939453,0.5477905,0.7057495
1601044824100,326,-0.38256836,0.545105,0.7067261
1601044824100,327,-0.37939453,0.5477905,0.7057495
1601044824102,328,-0.3798828,0.5453491,0.70843506
1601044824102,329,-0.37719727,0.54364014,0.70477295
1601044824102,330,-0.38305664,0.55218506,0.70184326
1601044824102,331,-0.38208008,0.5441284,0.701355
1601044824102,332,-0.37719727,0.54364014,0.70477295
1601044824102,333,-0.38256836,0.545105,0.7067261
1601044824103,334,-0.38208008,0.5441284,0.701355
1601044824103,335,-0.38183594,0.54730225,0.70770264
1601044824103,336,-0.37939453,0.5477905,0.7057495
1601044824103,337,-0.37719727,0.54364014,0.70477295
1601044824103,338,-0.38183594,0.54730225,0.70770264
1601044824107,339,-0.38085938,0.5531616,0.69866943
1601044824108,340,-0.37719727,0.54364014,0.70477295
1601044824108,341,-0.38208008,0.5441284,0.701355
1601044824108,342,-0.38085938,0.5531616,0.69866943
1601044824108,343,-0.38208008,0.5441284,0.701355
1601044824108,344,-0.38183594,0.54730225,0.70770264
1601044824108,345,-0.37890625,0.5531616,0.6947632
1601044824112,346,-0.38183594,0.54730225,0.70770264
1601044824112,347,-0.37963867,0.557312,0.70428467
1601044824112,348,-0.37890625,0.5531616,0.6947632
1601044824112,349,-0.38085938,0.5531616,0.69866943
1601044824117,350,-0.3786621,0.5570679,0.6959839
1601044824117,351,-0.38085938,0.5531616,0.69866943
1601044824117,352,-0.37890625,0.5531616,0.6947632
1601044824117,353,-0.37963867,0.557312,0.70428467
1601044824117,354,-0.37963867,0.557312,0.70428467
1601044824118,355,-0.3786621,0.5570679,0.6959839
1601044824118,356,-0.3791504,0.555603,0.6984253
1601044824118,357,-0.37890625,0.5531616,0.6947632
1601044824118,358,-0.3786621,0.5570679,0.6959839
1601044824118,359,-0.37573242,0.55682373,0.6954956
1601044824118,360,-0.3791504,0.555603,0.6984253
1601044824118,361,-0.3791504,0.555603,0.6984253
1601044824119,362,-0.3774414,0.55755615,0.69647217
1601044824119,363,-0.37573242,0.55682373,0.6954956
1601044824119,364,-0.37573242,0.55682373,0.6954956
1601044824119,365,-0.38232422,0.5531616,0.7008667
1601044824119,366,-0.37963867,0.557312,0.70428467
1601044824119,367,-0.3774414,0.55755615,0.69647217
1601044824120,368,-0.3815918,0.5504761,0.7045288
1601044824120,369,-0.38232422,0.5531616,0.7008667
1601044824120,370,-0.37939453,0.55023193,0.699646
1601044824120,371,-0.3774414,0.55755615,0.69647217
1601044824120,372,-0.3786621,0.5570679,0.6959839
1601044824120,373,-0.3815918,0.5504761,0.7045288
1601044824120,374,-0.3791504,0.555603,0.6984253
1601044824120,375,-0.38232422,0.5531616,0.7008667
1601044824121,376,-0.3815918,0.5504761,0.7045288
1601044824121,377,-0.37939453,0.55023193,0.699646
1601044824121,378,-0.37939453,0.55023193,0.699646
1601044824121,379,-0.37573242,0.55682373,0.6954956
1601044824121,380,-0.3774414,0.55755615,0.69647217
1601044824121,381,-0.38232422,0.5531616,0.7008667
1601044824121,382,-0.3815918,0.5504761,0.7045288
1601044824123,383,-0.37939453,0.55023193,0.699646
1601044826997,384,-0.3786621,0.55511475,0.7003784
1601044826998,385,-0.3786621,0.55511475,0.7003784
1601044826998,386,-0.3786621,0.55511475,0.7003784
1601044826998,387,-0.3786621,0.55511475,0.7003784
1601044826998,388,-0.3798828,0.5524292,0.6972046
1601044826998,389,-0.3798828,0.5524292,0.6972046
1601044826998,390,-0.37939453,0.55096436,0.701355
1601044826998,391,-0.3798828,0.5524292,0.6972046
1601044826999,392,-0.37939453,0.55096436,0.701355
1601044826999,393,-0.3779297,0.55389404,0.697937
1601044826999,394,-0.3779297,0.55389404,0.697937
1601044827000,395,-0.3798828,0.5524292,0.6972046
1601044827001,396,-0.3791504,0.55999756,0.69036865
1601044827001,397,-0.37939453,0.55096436,0.701355
1601044827002,398,-0.37939453,0.55096436,0.701355
1601044827003,399,-0.3779297,0.55389404,0.697937
1601044827003,400,-0.3791504,0.55999756,0.69036865
1601044827008,401,-0.3779297,0.55389404,0.697937
1601044827009,402,-0.38110352,0.54974365,0.70233154
1601044827009,403,-0.3791504,0.55999756,0.69036865
1601044827009,404,-0.38110352,0.54974365,0.70233154
1601044827009,405,-0.3791504,0.55999756,0.69036865
1601044827009,406,-0.3840332,0.55218506,0.7033081
1601044827009,407,-0.38110352,0.54974365,0.70233154
1601044827009,408,-0.3840332,0.55218506,0.7033081
1601044827010,409,-0.37890625,0.55267334,0.701355
1601044827010,410,-0.38110352,0.54974365,0.70233154
1601044827010,411,-0.37890625,0.55267334,0.701355
1601044827010,412,-0.3840332,0.55218506,0.7033081
1601044827010,413,-0.37963867,0.5516968,0.6947632
1601044827010,414,-0.37963867,0.5516968,0.6947632
1601044827011,415,-0.3840332,0.55218506,0.7033081
1601044827011,416,-0.3786621,0.5553589,0.6972046
1601044827012,417,-0.37890625,0.55267334,0.701355
1601044827012,418,-0.3786621,0.5553589,0.6972046
1601044827012,419,-0.37890625,0.55267334,0.701355
1601044827012,420,-0.37939453,0.5565796,0.6950073
1601044827013,421,-0.37939453,0.5565796,0.6950073
1601044827013,422,-0.37963867,0.5516968,0.6947632
1601044827013,423,-0.38208008,0.5475464,0.7001343
1601044827013,424,-0.38208008,0.5475464,0.7001343
1601044827013,425,-0.3786621,0.5553589,0.6972046
1601044827013,426,-0.3815918,0.5516968,0.6989136
1601044827013,427,-0.37963867,0.5516968,0.6947632
1601044827015,428,-0.3815918,0.5516968,0.6989136
1601044827019,429,-0.38134766,0.55511475,0.69525146
1601044827019,430,-0.3786621,0.5553589,0.6972046
1601044827019,431,-0.3798828,0.55218506,0.6991577
1601044827020,432,-0.37939453,0.5565796,0.6950073
1601044827020,433,-0.38134766,0.5516968,0.69696045
1601044827021,434,-0.38208008,0.5475464,0.7001343
1601044827021,435,-0.3786621,0.5565796,0.69403076
1601044827022,436,-0.38012695,0.54901123,0.6935425
1601044827023,437,-0.3815918,0.5516968,0.6989136
1601044827024,438,-0.3840332,0.5585327,0.70062256
1601044827024,439,-0.38134766,0.55511475,0.69525146
1601044827025,440,-0.3798828,0.55218506,0.6991577
1601044827025,441,-0.3840332,0.54901123,0.6989136
1601044827026,442,-0.38134766,0.5516968,0.69696045
1601044827028,443,-0.3786621,0.5565796,0.69403076
1601044827028,444,-0.38671875,0.54803467,0.70184326
1601044827028,445,-0.38012695,0.54901123,0.6935425
1601044827028,446,-0.38012695,0.5487671,0.699646
1601044827029,447,-0.3815918,0.5553589,0.6967163
1601044827034,448,-0.3840332,0.5585327,0.70062256
1601044827034,449,-0.3798828,0.5519409,0.697937
1601044827034,450,-0.3840332,0.54901123,0.6989136
1601044827034,451,-0.3840332,0.55218506,0.69744873
1601044827035,452,-0.38671875,0.54803467,0.70184326
1601044827035,453,-0.38354492,0.5524292,0.69744873
1601044827035,454,-0.38012695,0.5487671,0.699646
1601044827036,455,-0.38378906,0.5560913,0.7020874
1601044827036,456,-0.3815918,0.5553589,0.6967163
1601044827036,457,-0.37939453,0.5531616,0.69866943
1601044827037,458,-0.3798828,0.5519409,0.697937
1601044827037,459,-0.38256836,0.5519409,0.7028198
1601044827037,460,-0.3840332,0.55218506,0.69744873
1601044827038,461,-0.38354492,0.5524292,0.69744873
1601044827038,462,-0.37939453,0.5463257,0.69989014
1601044827039,463,-0.38378906,0.5560913,0.7020874
1601044827039,464,-0.37841797,0.55755615,0.69647217
1601044827039,465,-0.37939453,0.5531616,0.69866943
1601044827052,466,-0.3786621,0.5543823,0.6947632
1601044827052,467,-0.38134766,0.55511475,0.69525146
1601044827052,468,-0.38256836,0.5519409,0.7028198
1601044827052,469,-0.37939453,0.5565796,0.6950073
1601044827052,470,-0.3798828,0.55218506,0.6991577
1601044827052,471,-0.37939453,0.5463257,0.69989014
1601044827053,472,-0.38208008,0.5475464,0.7001343
1601044827053,473,-0.38134766,0.5516968,0.69696045
1601044827053,474,-0.3815918,0.5516968,0.6989136
1601044827053,475,-0.37841797,0.55755615,0.69647217
1601044827053,476,-0.3786621,0.5565796,0.69403076
1601044827054,477,-0.38134766,0.55511475,0.69525146
1601044827054,478,-0.3786621,0.5543823,0.6947632
1601044827054,479,-0.38012695,0.54901123,0.6935425
1601044827054,480,-0.3798828,0.55218506,0.6991577
1601044827054,481,-0.3840332,0.5585327,0.70062256
1601044827054,482,-0.38134766,0.5516968,0.69696045
1601044827055,483,-0.3840332,0.54901123,0.6989136
1601044827055,484,-0.3786621,0.5565796,0.69403076
1601044827056,485,-0.38671875,0.54803467,0.70184326
1601044827057,486,-0.38012695,0.54901123,0.6935425
1601044827057,487,-0.38012695,0.5487671,0.699646
1601044827057,488,-0.3840332,0.5585327,0.70062256
1601044827057,489,-0.3815918,0.5553589,0.6967163
1601044827058,490,-0.3798828,0.5519409,0.697937
1601044827058,491,-0.3840332,0.54901123,0.6989136
1601044827058,492,-0.3840332,0.55218506,0.69744873
1601044827060,493,-0.38671875,0.54803467,0.70184326
1601044827064,494,-0.38354492,0.5524292,0.69744873
1601044827065,495,-0.38012695,0.5487671,0.699646
1601044827065,496,-0.3815918,0.5553589,0.6967163
1601044827066,497,-0.38378906,0.5560913,0.7020874
1601044827070,498,-0.3798828,0.5519409,0.697937
1601044827071,499,-0.37939453,0.5531616,0.69866943
1601044827071,500,-0.3840332,0.55218506,0.69744873
1601044827071,501,-0.38256836,0.5519409,0.7028198
1601044827072,502,-0.37939453,0.5463257,0.69989014
1601044827072,503,-0.37841797,0.55755615,0.69647217
1601044827073,504,-0.3786621,0.5543823,0.6947632
1601044827080,505,-0.38354492,0.5524292,0.69744873
1601044827084,506,-0.38378906,0.5560913,0.7020874
1601044827086,507,-0.37939453,0.5531616,0.69866943
1601044827086,508,-0.38256836,0.5519409,0.7028198
1601044827092,509,-0.37939453,0.5463257,0.69989014
1601044827092,510,-0.37841797,0.55755615,0.69647217
1601044827093,511,-0.3786621,0.5543823,0.6947632
1601044829342,512,-0.3798828,0.5475464,0.7003784
1601044829343,513,-0.3798828,0.5475464,0.7003784
1601044829344,514,-0.3798828,0.55682373,0.7001343
1601044829344,515,-0.3798828,0.5475464,0.7003784
1601044829366,516,-0.3798828,0.5475464,0.7003784
1601044829366,517,-0.3762207,0.55462646,0.7015991
1601044829366,518,-0.3798828,0.55682373,0.7001343
1601044829366,519,-0.3798828,0.55682373,0.7001343
1601044829367,520,-0.3798828,0.55682373,0.7001343
1601044829367,521,-0.3762207,0.55462646,0.7015991
1601044829381,522,-0.37963867,0.5494995,0.7003784
1601044829381,523,-0.3762207,0.55462646,0.7015991
1601044829382,524,-0.37963867,0.5494995,0.7003784
1601044829382,525,-0.3762207,0.55462646,0.7015991
1601044829382,526,-0.37963867,0.5494995,0.7003784
1601044829382,527,-0.3786621,0.5516968,0.7020874
1601044829383,528,-0.37963867,0.5494995,0.7003784
1601044829383,529,-0.3786621,0.5516968,0.7020874
1601044829383,530,-0.3786621,0.5516968,0.7020874
1601044829383,531,-0.3786621,0.5516968,0.7020874
1601044829384,532,-0.3791504,0.5492554,0.701355
1601044829384,533,-0.3791504,0.5492554,0.701355
1601044829385,534,-0.3791504,0.5492554,0.701355
1601044829385,535,-0.37890625,0.5543823,0.70355225
1601044829386,536,-0.3791504,0.5492554,0.701355
1601044829387,537,-0.37890625,0.5543823,0.70355225
1601044829387,538,-0.37890625,0.5543823,0.70355225
1601044829387,539,-0.37890625,0.5543823,0.70355225
1601044829387,540,-0.37817383,0.555603,0.6972046
1601044829388,541,-0.37817383,0.555603,0.6972046
1601044829388,542,-0.3779297,0.5499878,0.699646
1601044829388,543,-0.37817383,0.555603,0.6972046
1601044829389,544,-0.37817383,0.555603,0.6972046
1601044829390,545,-0.3779297,0.5499878,0.699646
1601044829390,546,-0.3779297,0.5499878,0.699646
1601044829392,547,-0.37817383,0.5463257,0.70111084
1601044829392,548,-0.37817383,0.5463257,0.70111084
1601044829392,549,-0.37817383,0.5463257,0.70111084
1601044829392,550,-0.3779297,0.5499878,0.699646
1601044829392,551,-0.3815918,0.55267334,0.7037964
1601044829393,552,-0.3815918,0.55267334,0.7037964
1601044829393,553,-0.37817383,0.5463257,0.70111084
1601044829393,554,-0.38012695,0.5477905,0.70062256
1601044829393,555,-0.38012695,0.5477905,0.70062256
1601044829393,556,-0.37719727,0.5494995,0.7001343
1601044829393,557,-0.37719727,0.5494995,0.7001343
1601044829393,558,-0.38110352,0.5507202,0.69940186
1601044829395,559,-0.38110352,0.5507202,0.69940186
1601044829395,560,-0.3779297,0.5504761,0.69696045
1601044829396,561,-0.3779297,0.5504761,0.69696045
1601044829396,562,-0.3815918,0.55267334,0.7037964
1601044829396,563,-0.3791504,0.5543823,0.69281006
1601044829396,564,-0.3815918,0.55267334,0.7037964
1601044829396,565,-0.3791504,0.5543823,0.69281006
1601044829396,566,-0.38012695,0.5477905,0.70062256
1601044829397,567,-0.37768555,0.559021,0.69573975
1601044829397,568,-0.37768555,0.559021,0.69573975
1601044829398,569,-0.39331055,0.555603,0.7003784
1601044829398,570,-0.38012695,0.5477905,0.70062256
1601044829398,571,-0.39331055,0.555603,0.7003784
1601044829400,572,-0.39379883,0.5516968,0.6976929
1601044829400,573,-0.37719727,0.5494995,0.7001343
1601044829400,574,-0.39379883,0.5516968,0.6976929
1601044829400,575,-0.38623047,0.54730225,0.7033081
1601044829400,576,-0.38110352,0.5507202,0.69940186
1601044829400,577,-0.38623047,0.54730225,0.7033081
1601044829401,578,-0.39038086,0.55999756,0.69403076
1601044829401,579,-0.3779297,0.5504761,0.69696045
1601044829401,580,-0.39038086,0.55999756,0.69403076
1601044829402,581,-0.37719727,0.5494995,0.7001343
1601044829402,582,-0.3791504,0.5543823,0.69281006
1601044829403,583,-0.37768555,0.559021,0.69573975
1601044829404,584,-0.38110352,0.5507202,0.69940186
1601044829405,585,-0.39331055,0.555603,0.7003784
1601044829406,586,-0.3779297,0.5504761,0.69696045
1601044829407,587,-0.39379883,0.5516968,0.6976929
1601044829408,588,-0.3791504,0.5543823,0.69281006
1601044829408,589,-0.38623047,0.54730225,0.7033081
1601044829408,590,-0.37768555,0.559021,0.69573975
1601044829408,591,-0.39038086,0.55999756,0.69403076
1601044829408,592,-0.39331055,0.555603,0.7003784
1601044829408,593,-0.38256836,0.55926514,0.69207764
1601044829408,594,-0.39379883,0.5516968,0.6976929
1601044829409,595,-0.3894043,0.5487671,0.69989014
1601044829409,596,-0.38623047,0.54730225,0.7033081
1601044829409,597,-0.38842773,0.5465698,0.696228
1601044829410,598,-0.39038086,0.55999756,0.69403076
1601044829410,599,-0.38256836,0.55926514,0.69207764
1601044829410,600,-0.38256836,0.55926514,0.69207764
1601044829410,601,-0.38061523,0.55511475,0.6967163
1601044829410,602,-0.3894043,0.5487671,0.69989014
1601044829410,603,-0.3894043,0.5487671,0.69989014
1601044829410,604,-0.38842773,0.5465698,0.696228
1601044829411,605,-0.38061523,0.55511475,0.6967163
1601044829411,606,-0.38842773,0.5465698,0.696228
1601044829411,607,-0.38256836,0.55926514,0.69207764
1601044829412,608,-0.38427734,0.55389404,0.6954956
1601044829416,609,-0.38427734,0.55389404,0.6954956
1601044829416,610,-0.38061523,0.55511475,0.6967163
1601044829416,611,-0.3894043,0.5487671,0.69989014
1601044829416,612,-0.38745117,0.5553589,0.6959839
1601044829416,613,-0.38745117,0.5553589,0.6959839
1601044829417,614,-0.38427734,0.55389404,0.6954956
1601044829417,615,-0.38842773,0.5465698,0.696228
1601044829418,616,-0.3828125,0.5548706,0.69696045
1601044829418,617,-0.3828125,0.5548706,0.69696045
1601044829418,618,-0.38745117,0.5553589,0.6959839
1601044829421,619,-0.38061523,0.55511475,0.6967163
1601044829421,620,-0.38110352,0.55340576,0.6950073
1601044829421,621,-0.3828125,0.5548706,0.69696045
1601044829422,622,-0.38110352,0.55340576,0.6950073
1601044829422,623,-0.38427734,0.55389404,0.6954956
1601044829422,624,-0.38256836,0.55584717,0.6991577
1601044829422,625,-0.38256836,0.55584717,0.6991577
1601044829422,626,-0.38745117,0.5553589,0.6959839
1601044829422,627,-0.3840332,0.56048584,0.6942749
1601044829422,628,-0.3840332,0.56048584,0.6942749
1601044829424,629,-0.38110352,0.55340576,0.6950073
1601044829424,630,-0.3828125,0.5548706,0.69696045
1601044829424,631,-0.38330078,0.5516968,0.69818115
1601044829424,632,-0.38330078,0.5516968,0.69818115
1601044829424,633,-0.38256836,0.55584717,0.6991577
1601044829425,634,-0.38110352,0.55340576,0.6950073
1601044829425,635,-0.3840332,0.56048584,0.6942749
1601044829426,636,-0.38256836,0.55584717,0.6991577
1601044829426,637,-0.38330078,0.5516968,0.69818115
1601044829427,638,-0.3840332,0.56048584,0.6942749
1601044829427,639,-0.38330078,0.5516968,0.69818115
1601044831882,640,-0.3852539,0.55267334,0.6947632
1601044831882,641,-0.3852539,0.55267334,0.6947632
1601044831882,642,-0.38793945,0.5519409,0.69696045
1601044831883,643,-0.3852539,0.55267334,0.6947632
1601044831883,644,-0.38793945,0.5519409,0.69696045
1601044831883,645,-0.38256836,0.55218506,0.6972046
1601044831883,646,-0.38793945,0.5519409,0.69696045
1601044831885,647,-0.3852539,0.55267334,0.6947632
1601044831890,648,-0.38256836,0.55218506,0.6972046
1601044831893,649,-0.38452148,0.5536499,0.69866943
1601044831894,650,-0.38256836,0.55218506,0.6972046
1601044831894,651,-0.38452148,0.5536499,0.69866943
1601044831894,652,-0.3828125,0.5529175,0.6913452
1601044831895,653,-0.38793945,0.5519409,0.69696045
1601044831907,654,-0.3828125,0.5529175,0.6913452
1601044831907,655,-0.38452148,0.5536499,0.69866943
1601044831907,656,-0.38842773,0.5543823,0.7015991
1601044831908,657,-0.38842773,0.5543823,0.7015991
1601044831908,658,-0.38989258,0.5487671,0.6967163
1601044831908,659,-0.38256836,0.55218506,0.6972046
1601044831908,660,-0.3828125,0.5529175,0.6913452
1601044831908,661,-0.38989258,0.5487671,0.6967163
1601044831908,662,-0.3857422,0.5543823,0.69940186
1601044831908,663,-0.38842773,0.5543823,0.7015991
1601044831908,664,-0.3857422,0.5543823,0.69940186
1601044831909,665,-0.3852539,0.55145264,0.6959839
1601044831909,666,-0.3852539,0.55145264,0.6959839
1601044831909,667,-0.38452148,0.5536499,0.69866943
1601044831909,668,-0.38989258,0.5487671,0.6967163
1601044831911,669,-0.3828125,0.5482788,0.68670654
1601044831911,670,-0.3828125,0.5529175,0.6913452
1601044831916,671,-0.3857422,0.5543823,0.69940186
1601044831916,672,-0.38842773,0.5543823,0.7015991
1601044831916,673,-0.3852539,0.55145264,0.6959839
1601044831916,674,-0.38842773,0.5717163,0.70233154
1601044831916,675,-0.38989258,0.5487671,0.6967163
1601044831917,676,-0.3828125,0.5482788,0.68670654
1601044831917,677,-0.3894043,0.5494995,0.69940186
1601044831922,678,-0.3857422,0.5543823,0.69940186
1601044831922,679,-0.3828125,0.5482788,0.68670654
1601044831922,680,-0.39404297,0.53778076,0.70477295
1601044831923,681,-0.38842773,0.5717163,0.70233154
1601044831924,682,-0.38842773,0.5717163,0.70233154
1601044831924,683,-0.3774414,0.5441284,0.70184326
1601044831924,684,-0.3852539,0.55145264,0.6959839
1601044831924,685,-0.3894043,0.5494995,0.69940186
1601044831924,686,-0.3828125,0.5482788,0.68670654
1601044831924,687,-0.38134766,0.5597534,0.69281006
1601044831926,688,-0.39404297,0.53778076,0.70477295
1601044831926,689,-0.38842773,0.5717163,0.70233154
1601044831927,690,-0.3894043,0.5494995,0.69940186
1601044831930,691,-0.3894043,0.5494995,0.69940186
1601044831931,692,-0.38061523,0.55462646,0.6923218
1601044831931,693,-0.39404297,0.53778076,0.70477295
1601044831931,694,-0.3774414,0.5441284,0.70184326
1601044831932,695,-0.3779297,0.55462646,0.69989014
1601044831934,696,-0.3774414,0.5441284,0.70184326
1601044831935,697,-0.38134766,0.5597534,0.69281006
1601044831935,698,-0.38110352,0.555603,0.6989136
1601044831936,699,-0.38061523,0.55462646,0.6923218
1601044831937,700,-0.38134766,0.55633545,0.69696045
1601044831939,701,-0.38134766,0.5597534,0.69281006
1601044831939,702,-0.39404297,0.53778076,0.70477295
1601044831941,703,-0.3779297,0.55462646,0.69989014
1601044831941,704,-0.37890625,0.55804443,0.69647217
1601044831942,705,-0.38061523,0.55462646,0.6923218
1601044831942,706,-0.38110352,0.555603,0.6989136
1601044831943,707,-0.3774414,0.5441284,0.70184326
1601044831944,708,-0.37719727,0.5585327,0.6959839
1601044831944,709,-0.38134766,0.5597534,0.69281006
1601044831944,710,-0.38134766,0.55633545,0.69696045
1601044831952,711,-0.38061523,0.55462646,0.6923218
1601044831952,712,-0.37890625,0.55804443,0.69647217
1601044831953,713,-0.37963867,0.5578003,0.6976929
1601044831954,714,-0.3779297,0.55462646,0.69989014
1601044831955,715,-0.3779297,0.55462646,0.69989014
1601044831956,716,-0.37719727,0.5585327,0.6959839
1601044831956,717,-0.38110352,0.55682373,0.6984253
1601044831956,718,-0.37963867,0.5578003,0.6976929
1601044831956,719,-0.38110352,0.555603,0.6989136
1601044831956,720,-0.3774414,0.5597534,0.69281006
1601044831956,721,-0.38110352,0.55682373,0.6984253
1601044831956,722,-0.38134766,0.55633545,0.69696045
1601044831956,723,-0.3774414,0.5597534,0.69281006
1601044831957,724,-0.37890625,0.55804443,0.69647217
1601044831959,725,-0.37963867,0.5639038,0.69451904
1601044831961,726,-0.38110352,0.555603,0.6989136
1601044831962,727,-0.37963867,0.5639038,0.69451904
1601044831962,728,-0.37719727,0.55584717,0.69451904
1601044831963,729,-0.38134766,0.55633545,0.69696045
1601044831963,730,-0.37719727,0.5585327,0.6959839
1601044831963,731,-0.37719727,0.55584717,0.69451904
1601044831963,732,-0.37890625,0.55804443,0.69647217
1601044831963,733,-0.37963867,0.5578003,0.6976929
1601044831963,734,-0.3798828,0.5492554,0.70233154
1601044831966,735,-0.38085938,0.55877686,0.70062256
1601044831968,736,-0.37719727,0.5585327,0.6959839
1601044831968,737,-0.3798828,0.5492554,0.70233154
1601044831968,738,-0.38110352,0.55682373,0.6984253
1601044831968,739,-0.37841797,0.5602417,0.69281006
1601044831968,740,-0.37963867,0.5578003,0.6976929
1601044831969,741,-0.3774414,0.5597534,0.69281006
1601044831969,742,-0.38085938,0.55877686,0.70062256
1601044831969,743,-0.37841797,0.5565796,0.69866943
1601044831973,744,-0.38110352,0.55682373,0.6984253
1601044831973,745,-0.37963867,0.5639038,0.69451904
1601044831973,746,-0.3774414,0.5597534,0.69281006
1601044831973,747,-0.37841797,0.5602417,0.69281006
1601044831973,748,-0.38208008,0.5597534,0.69329834
1601044831975,749,-0.37963867,0.5639038,0.69451904
1601044831975,750,-0.3779297,0.5570679,0.6991577
1601044831982,751,-0.37719727,0.55584717,0.69451904
1601044831982,752,-0.37719727,0.55584717,0.69451904
1601044831982,753,-0.37841797,0.5565796,0.69866943
1601044831982,754,-0.3798828,0.5492554,0.70233154
1601044831982,755,-0.3798828,0.5492554,0.70233154
1601044831983,756,-0.38208008,0.5597534,0.69329834
1601044831983,757,-0.38085938,0.55877686,0.70062256
1601044831984,758,-0.3779297,0.5570679,0.6991577
1601044831984,759,-0.37841797,0.5602417,0.69281006
1601044831987,760,-0.38085938,0.55877686,0.70062256
1601044831988,761,-0.37841797,0.5565796,0.69866943
1601044831988,762,-0.37841797,0.5602417,0.69281006
1601044831989,763,-0.37841797,0.5565796,0.69866943
1601044831989,764,-0.38208008,0.5597534,0.69329834
1601044831990,765,-0.38208008,0.5597534,0.69329834
1601044831991,766,-0.3779297,0.5570679,0.6991577
1601044831991,767,-0.3779297,0.5570679,0.6991577
1601044834414,768,-0.37890625,0.55804443,0.696228
1601044834415,769,-0.37890625,0.55804443,0.696228
1601044834415,770,-0.37890625,0.55804443,0.696228
1601044834415,771,-0.37890625,0.55804443,0.696228
1601044834417,772,-0.37939453,0.55877686,0.6989136
1601044834417,773,-0.37939453,0.55877686,0.6989136
1601044834418,774,-0.37939453,0.55877686,0.6989136
1601044834418,775,-0.37939453,0.55877686,0.6989136
1601044834418,776,-0.37817383,0.5536499,0.7003784
1601044834418,777,-0.37817383,0.5536499,0.7003784
1601044834420,778,-0.37817383,0.5536499,0.7003784
1601044834420,779,-0.38183594,0.5578003,0.69866943
1601044834421,780,-0.38183594,0.5578003,0.69866943
1601044834422,781,-0.37817383,0.5536499,0.7003784
1601044834422,782,-0.38183594,0.5578003,0.69866943
1601044834422,783,-0.38452148,0.555603,0.69866943
1601044834426,784,-0.38183594,0.5578003,0.69866943
1601044834426,785,-0.38452148,0.555603,0.69866943
1601044834426,786,-0.38452148,0.555603,0.69866943
1601044834426,787,-0.3798828,0.55804443,0.69525146
1601044834427,788,-0.3798828,0.55804443,0.69525146
1601044834427,789,-0.38452148,0.555603,0.69866943
1601044834427,790,-0.3798828,0.55804443,0.69525146
1601044834427,791,-0.37939453,0.55682373,0.6913452
1601044834427,792,-0.37939453,0.55682373,0.6913452
1601044834427,793,-0.3798828,0.55804443,0.69525146
1601044834428,794,-0.37939453,0.55682373,0.6913452
1601044834428,795,-0.38378906,0.55682373,0.6925659
1601044834430,796,-0.38378906,0.55682373,0.6925659
1601044834430,797,-0.38134766,0.5578003,0.6950073
1601044834432,798,-0.38378906,0.55682373,0.6925659
1601044834440,799,-0.38134766,0.5578003,0.6950073
1601044834441,800,-0.38183594,0.56292725,0.69036865
1601044834441,801,-0.37939453,0.55682373,0.6913452
1601044834442,802,-0.38134766,0.5578003,0.6950073
1601044834443,803,-0.37646484,0.5585327,0.6930542
1601044834443,804,-0.38183594,0.56292725,0.69036865
1601044834443,805,-0.38305664,0.55682373,0.6959839
1601044834443,806,-0.37646484,0.5585327,0.6930542
1601044834443,807,-0.38183594,0.56292725,0.69036865
1601044834443,808,-0.38378906,0.55682373,0.6925659
1601044834446,809,-0.38305664,0.55682373,0.6959839
1601044834447,810,-0.3840332,0.555603,0.6959839
1601044834450,811,-0.3840332,0.555603,0.6959839
1601044834451,812,-0.38134766,0.5578003,0.6950073
1601044834451,813,-0.37646484,0.5585327,0.6930542
1601044834451,814,-0.38061523,0.5553589,0.6942749
1601044834452,815,-0.38061523,0.5553589,0.6942749
1601044834452,816,-0.38183594,0.56292725,0.69036865
1601044834452,817,-0.38305664,0.55877686,0.69647217
1601044834452,818,-0.38305664,0.55682373,0.6959839
1601044834452,819,-0.38305664,0.55877686,0.69647217
1601044834452,820,-0.38012695,0.5553589,0.69696045
1601044834453,821,-0.37646484,0.5585327,0.6930542
1601044834453,822,-0.38256836,0.5541382,0.69158936
1601044834453,823,-0.3840332,0.555603,0.6959839
1601044834454,824,-0.38305664,0.55682373,0.6959839
1601044834454,825,-0.3803711,0.5560913,0.6937866
1601044834454,826,-0.38061523,0.5553589,0.6942749
1601044834454,827,-0.3840332,0.555603,0.6959839
1601044834455,828,-0.38671875,0.55462646,0.69525146
1601044834455,829,-0.38305664,0.55877686,0.69647217
1601044834457,830,-0.38012695,0.5553589,0.69696045
1601044834457,831,-0.38061523,0.5553589,0.6942749
1601044834457,832,-0.3815918,0.5548706,0.6984253
1601044834457,833,-0.38012695,0.5553589,0.69696045
1601044834457,834,-0.38256836,0.5541382,0.69158936
1601044834459,835,-0.3840332,0.559021,0.69647217
1601044834460,836,-0.38256836,0.5541382,0.69158936
1601044834461,837,-0.38476562,0.5570679,0.6972046
1601044834461,838,-0.3803711,0.5560913,0.6937866
1601044834462,839,-0.3803711,0.5560913,0.6937866
1601044834462,840,-0.38305664,0.55877686,0.69647217
1601044834462,841,-0.38671875,0.55462646,0.69525146
1601044834462,842,-0.38671875,0.55462646,0.69525146
1601044834464,843,-0.38012695,0.5553589,0.69696045
1601044834464,844,-0.3815918,0.5548706,0.6984253
1601044834464,845,-0.38232422,0.55584717,0.69744873
1601044834465,846,-0.3840332,0.559021,0.69647217
1601044834465,847,-0.38305664,0.5543823,0.69647217
1601044834465,848,-0.38476562,0.5570679,0.6972046
1601044834467,849,-0.3815918,0.5548706,0.6984253
1601044834468,850,-0.38232422,0.55584717,0.69744873
1601044834468,851,-0.3815918,0.55633545,0.6925659
1601044834468,852,-0.38256836,0.5541382,0.69158936
1601044834473,853,-0.3840332,0.559021,0.69647217
1601044834473,854,-0.38305664,0.5543823,0.69647217
1601044834473,855,-0.38549805,0.55755615,0.6942749
1601044834473,856,-0.3803711,0.5560913,0.6937866
1601044834473,857,-0.38476562,0.5570679,0.6972046
1601044834474,858,-0.3815918,0.55633545,0.6925659
1601044834474,859,-0.38549805,0.55755615,0.6942749
1601044834474,860,-0.38232422,0.55584717,0.69744873
1601044834475,861,-0.3803711,0.5548706,0.69158936
1601044834475,862,-0.38671875,0.55462646,0.69525146
1601044834475,863,-0.38305664,0.5543823,0.69647217
1601044834476,864,-0.3815918,0.55633545,0.6925659
1601044834476,865,-0.3803711,0.5548706,0.69158936
1601044834476,866,-0.38549805,0.55755615,0.6942749
1601044834476,867,-0.3815918,0.5548706,0.6984253
1601044834476,868,-0.38305664,0.55389404,0.7008667
1601044834477,869,-0.38305664,0.55389404,0.7008667
1601044834478,870,-0.3803711,0.5548706,0.69158936
1601044834478,871,-0.38549805,0.5529175,0.6942749
1601044834480,872,-0.38549805,0.5529175,0.6942749
1601044834480,873,-0.38305664,0.55389404,0.7008667
1601044834480,874,-0.38452148,0.5597534,0.69573975
1601044834481,875,-0.3840332,0.559021,0.69647217
1601044834481,876,-0.38549805,0.5529175,0.6942749
1601044834481,877,-0.38452148,0.5597534,0.69573975
1601044834482,878,-0.38989258,0.55340576,0.7003784
1601044834483,879,-0.38476562,0.5570679,0.6972046
1601044834484,880,-0.38989258,0.55340576,0.7003784
1601044834484,881,-0.38452148,0.5597534,0.69573975
1601044834484,882,-0.39038086,0.5548706,0.69329834
1601044834484,883,-0.38232422,0.55584717,0.69744873
1601044834485,884,-0.38989258,0.55340576,0.7003784
1601044834485,885,-0.38305664,0.5543823,0.69647217
1601044834486,886,-0.39038086,0.5548706,0.69329834
1601044834489,887,-0.39038086,0.5548706,0.69329834
1601044834490,888,-0.3815918,0.55633545,0.6925659
1601044834491,889,-0.38549805,0.55755615,0.6942749
1601044834491,890,-0.3803711,0.5548706,0.69158936
1601044834492,891,-0.38305664,0.55389404,0.7008667
1601044834493,892,-0.38549805,0.5529175,0.6942749
1601044834493,893,-0.38452148,0.5597534,0.69573975
1601044834494,894,-0.38989258,0.55340576,0.7003784
1601044834494,895,-0.39038086,0.5548706,0.69329834
1601044836949,896,-0.38110352,0.55682373,0.69329834
1601044836950,897,-0.38110352,0.55682373,0.69329834
1601044836950,898,-0.3828125,0.5582886,0.69573975
1601044836950,899,-0.38110352,0.55682373,0.69329834
1601044836953,900,-0.3828125,0.5582886,0.69573975
1601044836953,901,-0.38110352,0.55682373,0.69329834
1601044836953,902,-0.3828125,0.5582886,0.69573975
1601044836954,903,-0.38867188,0.5524292,0.6991577
1601044836955,904,-0.38867188,0.5524292,0.6991577
1601044836956,905,-0.3828125,0.5582886,0.69573975
1601044836956,906,-0.38867188,0.5524292,0.6991577
1601044836958,907,-0.38232422,0.5543823,0.69281006
1601044836959,908,-0.38867188,0.5524292,0.6991577
1601044836959,909,-0.38232422,0.5543823,0.69281006
1601044836960,910,-0.38232422,0.5543823,0.69281006
1601044836962,911,-0.3828125,0.5602417,0.6942749
1601044836962,912,-0.38232422,0.5543823,0.69281006
1601044836963,913,-0.3828125,0.5602417,0.6942749
1601044836968,914,-0.3828125,0.5602417,0.6942749
1601044836973,915,-0.3869629,0.5578003,0.6925659
1601044836973,916,-0.3869629,0.5578003,0.6925659
1601044836973,917,-0.3869629,0.5578003,0.6925659
1601044836974,918,-0.38989258,0.5516968,0.696228
1601044836974,919,-0.3828125,0.5602417,0.6942749
1601044836974,920,-0.38989258,0.5516968,0.696228
1601044836974,921,-0.38549805,0.557312,0.69647217
1601044836974,922,-0.3869629,0.5578003,0.6925659
1601044836974,923,-0.38549805,0.557312,0.69647217
1601044836975,924,-0.38989258,0.5516968,0.696228
1601044836976,925,-0.38476562,0.557312,0.6942749
1601044836976,926,-0.38549805,0.557312,0.69647217
1601044836976,927,-0.38916016,0.5548706,0.6935425
1601044836976,928,-0.38476562,0.557312,0.6942749
1601044836976,929,-0.38476562,0.557312,0.6942749
1601044836976,930,-0.38989258,0.5516968,0.696228
1601044836976,931,-0.38671875,0.5516968,0.7001343
1601044836976,932,-0.38549805,0.557312,0.69647217
1601044836977,933,-0.38916016,0.5548706,0.6935425
1601044836978,934,-0.38671875,0.5516968,0.7001343
1601044836979,935,-0.38476562,0.557312,0.6942749
1601044836980,936,-0.38916016,0.5548706,0.6935425
1601044836980,937,-0.38916016,0.5548706,0.6935425
1601044836981,938,-0.38671875,0.5516968,0.7001343
1601044836981,939,-0.38989258,0.555603,0.6942749
1601044836981,940,-0.38989258,0.555603,0.6942749
1601044836981,941,-0.38671875,0.5516968,0.7001343
1601044836981,942,-0.38989258,0.555603,0.6942749
1601044836981,943,-0.3815918,0.55462646,0.6918335
1601044836981,944,-0.38989258,0.555603,0.6942749
1601044836982,945,-0.3815918,0.55462646,0.6918335
1601044836982,946,-0.3815918,0.55462646,0.6918335
1601044836983,947,-0.3894043,0.5578003,0.6906128
1601044836984,948,-0.3815918,0.55462646,0.6918335
1601044836984,949,-0.3894043,0.5578003,0.6906128
1601044836985,950,-0.3894043,0.5578003,0.6906128
1601044836985,951,-0.3852539,0.5560913,0.6898804
1601044836985,952,-0.3852539,0.5560913,0.6898804
1601044836986,953,-0.3869629,0.55511475,0.69573975
1601044836988,954,-0.3894043,0.5578003,0.6906128
1601044836988,955,-0.3869629,0.55511475,0.69573975
1601044836988,956,-0.38208008,0.55340576,0.69647217
1601044836991,957,-0.3852539,0.5560913,0.6898804
1601044836991,958,-0.3852539,0.5560913,0.6898804
1601044836992,959,-0.38256836,0.5570679,0.699646
1601044836992,960,-0.38208008,0.55340576,0.69647217
1601044836993,961,-0.3869629,0.55511475,0.69573975
1601044836994,962,-0.3864746,0.55511475,0.6923218
1601044836994,963,-0.38256836,0.5570679,0.699646
1601044836994,964,-0.3869629,0.55511475,0.69573975
1601044836995,965,-0.38208008,0.55340576,0.69647217
1601044836995,966,-0.3864746,0.55511475,0.6923218
1601044836997,967,-0.38256836,0.55633545,0.69525146
1601044836997,968,-0.38256836,0.5570679,0.699646
1601044836997,969,-0.38256836,0.55633545,0.69525146
1601044836997,970,-0.38208008,0.55340576,0.69647217
1601044836999,971,-0.3881836,0.555603,0.6937866
1601044836999,972,-0.3881836,0.555603,0.6937866
1601044837000,973,-0.3864746,0.55511475,0.6923218
1601044837000,974,-0.38256836,0.5570679,0.699646
1601044837001,975,-0.38354492,0.5553589,0.696228
1601044837001,976,-0.38354492,0.5553589,0.696228
1601044837001,977,-0.38256836,0.55633545,0.69525146
1601044837001,978,-0.3864746,0.55511475,0.6923218
1601044837001,979,-0.38452148,0.55584717,0.69696045
1601044837003,980,-0.38452148,0.55584717,0.69696045
1601044837004,981,-0.38256836,0.55633545,0.69525146
1601044837004,982,-0.3881836,0.555603,0.6937866
1601044837004,983,-0.3852539,0.5548706,0.69281006
1601044837004,984,-0.3881836,0.555603,0.6937866
1601044837005,985,-0.38354492,0.5553589,0.696228
1601044837005,986,-0.38110352,0.55682373,0.6942749
1601044837005,987,-0.38452148,0.5531616,0.6972046
1601044837006,988,-0.3852539,0.5548706,0.69281006
1601044837006,989,-0.38452148,0.55584717,0.69696045
1601044837008,990,-0.38354492,0.5553589,0.696228
1601044837009,991,-0.3852539,0.5548706,0.69281006
1601044837009,992,-0.38110352,0.55682373,0.6942749
1601044837009,993,-0.38452148,0.55584717,0.69696045
1601044837009,994,-0.38110352,0.55682373,0.6942749
1601044837010,995,-0.38623047,0.555603,0.6950073
1601044837013,996,-0.38452148,0.5531616,0.6972046
1601044837014,997,-0.3852539,0.5548706,0.69281006
1601044837014,998,-0.3857422,0.5536499,0.69573975
1601044837014,999,-0.38452148,0.5531616,0.6972046
1601044837014,1000,-0.38623047,0.555603,0.6950073
1601044837016,1001,-0.38110352,0.55682373,0.6942749
1601044837016,1002,-0.3828125,0.55682373,0.696228
1601044837016,1003,-0.38623047,0.555603,0.6950073
1601044837016,1004,-0.3857422,0.5536499,0.69573975
1601044837016,1005,-0.38452148,0.5531616,0.6972046
1601044837017,1006,-0.3857422,0.5536499,0.69573975
1601044837017,1007,-0.3828125,0.55682373,0.696228
1601044837017,1008,-0.38305664,0.5560913,0.6989136
1601044837018,1009,-0.38623047,0.555603,0.6950073
1601044837018,1010,-0.38305664,0.5560913,0.6989136
1601044837018,1011,-0.3857422,0.5536499,0.69573975
1601044837019,1012,-0.3828125,0.55682373,0.696228
1601044837020,1013,-0.3815918,0.55584717,0.69525146
1601044837020,1014,-0.38305664,0.5560913,0.6989136
1601044837020,1015,-0.3828125,0.55682373,0.696228
1601044837021,1016,-0.38305664,0.5560913,0.6989136
1601044837021,1017,-0.3815918,0.55584717,0.69525146
1601044837022,1018,-0.3815918,0.55584717,0.69525146
1601044837025,1019,-0.3815918,0.55584717,0.69525146
1601044837026,1020,-0.3815918,0.55267334,0.6972046
1601044837026,1021,-0.3815918,0.55267334,0.6972046
1601044837026,1022,-0.3815918,0.55267334,0.6972046
1601044837027,1023,-0.3815918,0.55267334,0.6972046
1601044839678,1024,-0.38476562,0.5553589,0.6947632
1601044839680,1025,-0.38476562,0.5553589,0.6947632
1601044839680,1026,-0.38476562,0.5553589,0.6947632
1601044839681,1027,-0.38598633,0.5531616,0.69403076
1601044839685,1028,-0.38598633,0.5531616,0.69403076
1601044839685,1029,-0.38598633,0.5531616,0.69403076
1601044839688,1030,-0.3840332,0.5519409,0.6950073
1601044839689,1031,-0.3840332,0.5519409,0.6950073
1601044839693,1032,-0.3840332,0.5519409,0.6950073
1601044839693,1033,-0.38989258,0.5536499,0.69573975
1601044839694,1034,-0.38476562,0.5553589,0.6947632
1601044839695,1035,-0.38989258,0.5536499,0.69573975
1601044839695,1036,-0.38989258,0.5536499,0.69573975
1601044839695,1037,-0.38476562,0.55340576,0.6937866
1601044839695,1038,-0.38598633,0.5531616,0.69403076
1601044839696,1039,-0.38476562,0.55340576,0.6937866
1601044839696,1040,-0.38476562,0.55340576,0.6937866
1601044839696,1041,-0.3852539,0.55804443,0.6950073
1601044839696,1042,-0.3852539,0.55804443,0.6950073
1601044839696,1043,-0.3840332,0.5519409,0.6950073
1601044839697,1044,-0.3852539,0.55804443,0.6950073
1601044839697,1045,-0.38476562,0.5507202,0.7003784
1601044839697,1046,-0.38476562,0.5507202,0.7003784
1601044839699,1047,-0.38476562,0.5507202,0.7003784
1601044839699,1048,-0.38549805,0.557312,0.6937866
1601044839700,1049,-0.38989258,0.5536499,0.69573975
1601044839700,1050,-0.38549805,0.557312,0.6937866
1601044839700,1051,-0.38623047,0.5582886,0.69281006
1601044839701,1052,-0.38476562,0.55340576,0.6937866
1601044839701,1053,-0.38549805,0.557312,0.6937866
1601044839701,1054,-0.3852539,0.55804443,0.6950073
1601044839701,1055,-0.38623047,0.5582886,0.69281006
1601044839701,1056,-0.3881836,0.55267334,0.6972046
1601044839701,1057,-0.38623047,0.5582886,0.69281006
1601044839702,1058,-0.38793945,0.55389404,0.6950073
1601044839702,1059,-0.3881836,0.55267334,0.6972046
1601044839703,1060,-0.38476562,0.5507202,0.7003784
1601044839703,1061,-0.38378906,0.5565796,0.6954956
1601044839703,1062,-0.3881836,0.55267334,0.6972046
1601044839705,1063,-0.38500977,0.557312,0.6950073
1601044839706,1064,-0.38793945,0.55389404,0.6950073
1601044839706,1065,-0.38549805,0.557312,0.6937866
1601044839706,1066,-0.38793945,0.55389404,0.6950073
1601044839706,1067,-0.38378906,0.5565796,0.6954956
1601044839706,1068,-0.38623047,0.5582886,0.69281006
1601044839707,1069,-0.38598633,0.557312,0.6942749
1601044839707,1070,-0.38378906,0.5565796,0.6954956
1601044839709,1071,-0.38500977,0.557312,0.6950073
1601044839710,1072,-0.3894043,0.55389404,0.696228
1601044839710,1073,-0.3881836,0.55267334,0.6972046
1601044839710,1074,-0.38500977,0.557312,0.6950073
1601044839710,1075,-0.38500977,0.5524292,0.69818115
1601044839711,1076,-0.38598633,0.557312,0.6942749
1601044839713,1077,-0.39111328,0.5595093,0.6967163
1601044839713,1078,-0.3894043,0.55389404,0.696228
1601044839713,1079,-0.38598633,0.557312,0.6942749
1601044839713,1080,-0.38793945,0.55389404,0.6950073
1601044839713,1081,-0.38500977,0.5524292,0.69818115
1601044839714,1082,-0.3894043,0.55389404,0.696228
1601044839714,1083,-0.39111328,0.5595093,0.6967163
1601044839715,1084,-0.3876953,0.5543823,0.6935425
1601044839715,1085,-0.38500977,0.5524292,0.69818115
1601044839716,1086,-0.38867188,0.5578003,0.69647217
1601044839716,1087,-0.39111328,0.5595093,0.6967163
1601044839718,1088,-0.3918457,0.5531616,0.6972046
1601044839719,1089,-0.38378906,0.5565796,0.6954956
1601044839720,1090,-0.38793945,0.5597534,0.69036865
1601044839720,1091,-0.3876953,0.5543823,0.6935425
1601044839721,1092,-0.38500977,0.557312,0.6950073
1601044839721,1093,-0.3876953,0.5543823,0.6935425
1601044839721,1094,-0.38867188,0.5578003,0.69647217
1601044839721,1095,-0.38598633,0.557312,0.6942749
1601044839722,1096,-0.3852539,0.5553589,0.69403076
1601044839725,1097,-0.38867188,0.5578003,0.69647217
1601044839725,1098,-0.3918457,0.5531616,0.6972046
1601044839726,1099,-0.39257812,0.55267334,0.697937
1601044839728,1100,-0.38793945,0.5597534,0.69036865
1601044839728,1101,-0.3918457,0.5531616,0.6972046
1601044839728,1102,-0.3894043,0.55389404,0.696228
1601044839728,1103,-0.3894043,0.5541382,0.696228
1601044839728,1104,-0.3852539,0.5553589,0.69403076
1601044839728,1105,-0.38256836,0.55755615,0.6925659
1601044839729,1106,-0.38500977,0.5524292,0.69818115
1601044839729,1107,-0.39257812,0.55267334,0.697937
1601044839729,1108,-0.3876953,0.557312,0.6935425
1601044839729,1109,-0.38793945,0.5597534,0.69036865
1601044839729,1110,-0.39111328,0.5595093,0.6967163
1601044839729,1111,-0.3894043,0.5541382,0.696228
1601044839730,1112,-0.38964844,0.55218506,0.70062256
1601044839730,1113,-0.3852539,0.5553589,0.69403076
1601044839730,1114,-0.3876953,0.5543823,0.6935425
1601044839731,1115,-0.38256836,0.55755615,0.6925659
1601044839731,1116,-0.38500977,0.55462646,0.69158936
1601044839731,1117,-0.3876953,0.557312,0.6935425
1601044839732,1118,-0.38867188,0.5578003,0.69647217
1601044839732,1119,-0.38549805,0.55755615,0.69696045
1601044839733,1120,-0.39257812,0.55267334,0.697937
1601044839733,1121,-0.39160156,0.55511475,0.6937866
1601044839733,1122,-0.38964844,0.55218506,0.70062256
1601044839736,1123,-0.3894043,0.5541382,0.696228
1601044839736,1124,-0.38720703,0.54974365,0.6967163
1601044839736,1125,-0.38500977,0.55462646,0.69158936
1601044839736,1126,-0.3852539,0.5565796,0.69207764
1601044839736,1127,-0.38256836,0.55755615,0.6925659
1601044839736,1128,-0.3918457,0.5531616,0.6972046
1601044839736,1129,-0.38549805,0.55755615,0.69696045
1601044839738,1130,-0.3876953,0.557312,0.6935425
1601044839738,1131,-0.38793945,0.5597534,0.69036865
1601044839738,1132,-0.39160156,0.55511475,0.6937866
1601044839740,1133,-0.38720703,0.54974365,0.6967163
1601044839740,1134,-0.38964844,0.55218506,0.70062256
1601044839741,1135,-0.3852539,0.5553589,0.69403076
1601044839741,1136,-0.38500977,0.55462646,0.69158936
1601044839741,1137,-0.38549805,0.55755615,0.69696045
1601044839742,1138,-0.39257812,0.55267334,0.697937
1601044839742,1139,-0.3852539,0.5565796,0.69207764
1601044839744,1140,-0.39160156,0.55511475,0.6937866
1601044839744,1141,-0.3894043,0.5541382,0.696228
1601044839745,1142,-0.38256836,0.55755615,0.6925659
1601044839745,1143,-0.38720703,0.54974365,0.6967163
1601044839745,1144,-0.3876953,0.557312,0.6935425
1601044839746,1145,-0.38964844,0.55218506,0.70062256
1601044839746,1146,-0.3852539,0.5565796,0.69207764
1601044839747,1147,-0.38500977,0.55462646,0.69158936
1601044839747,1148,-0.38549805,0.55755615,0.69696045
1601044839749,1149,-0.39160156,0.55511475,0.6937866
1601044839750,1150,-0.38720703,0.54974365,0.6967163
1601044839750,1151,-0.3852539,0.5565796,0.69207764
1601044842220,1152,-0.3828125,0.55926514,0.6930542
1601044842221,1153,-0.3828125,0.55926514,0.6930542
1601044842221,1154,-0.3828125,0.55926514,0.6930542
1601044842221,1155,-0.38500977,0.5548706,0.6923218
1601044842221,1156,-0.38500977,0.5548706,0.6923218
1601044842229,1157,-0.3828125,0.55926514,0.6930542
1601044842233,1158,-0.38500977,0.5548706,0.6923218
1601044842233,1159,-0.3840332,0.5507202,0.69989014
1601044842233,1160,-0.3840332,0.5507202,0.69989014
1601044842233,1161,-0.3840332,0.5507202,0.69989014
1601044842234,1162,-0.38745117,0.5512085,0.6913452
1601044842236,1163,-0.38500977,0.5548706,0.6923218
1601044842236,1164,-0.38745117,0.5512085,0.6913452
1601044842237,1165,-0.38500977,0.5595093,0.69207764
1601044842237,1166,-0.38745117,0.5512085,0.6913452
1601044842237,1167,-0.3840332,0.5507202,0.69989014
1601044842237,1168,-0.38305664,0.555603,0.6947632
1601044842237,1169,-0.38500977,0.5595093,0.69207764
1601044842237,1170,-0.38305664,0.555603,0.6947632
1601044842237,1171,-0.38500977,0.5595093,0.69207764
1601044842237,1172,-0.38745117,0.5512085,0.6913452
1601044842237,1173,-0.38842773,0.5570679,0.6942749
1601044842238,1174,-0.38305664,0.555603,0.6947632
1601044842238,1175,-0.38842773,0.5570679,0.6942749
1601044842238,1176,-0.38720703,0.55218506,0.6950073
1601044842238,1177,-0.38500977,0.5595093,0.69207764
1601044842243,1178,-0.38842773,0.5570679,0.6942749
1601044842243,1179,-0.38720703,0.55218506,0.6950073
1601044842244,1180,-0.3840332,0.55584717,0.6950073
1601044842244,1181,-0.38720703,0.55218506,0.6950073
1601044842244,1182,-0.3840332,0.55584717,0.6950073
1601044842245,1183,-0.38305664,0.555603,0.6947632
1601044842245,1184,-0.38427734,0.5529175,0.6984253
1601044842246,1185,-0.3840332,0.55584717,0.6950073
1601044842246,1186,-0.3876953,0.5529175,0.6976929
1601044842246,1187,-0.38842773,0.5570679,0.6942749
1601044842246,1188,-0.38427734,0.5529175,0.6984253
1601044842246,1189,-0.38427734,0.5529175,0.6984253
1601044842246,1190,-0.38476562,0.55633545,0.6954956
1601044842250,1191,-0.3876953,0.5529175,0.6976929
1601044842250,1192,-0.38720703,0.55218506,0.6950073
1601044842251,1193,-0.38476562,0.55633545,0.6954956
1601044842251,1194,-0.3869629,0.5519409,0.69940186
1601044842253,1195,-0.3876953,0.5529175,0.6976929
1601044842253,1196,-0.3869629,0.5519409,0.69940186
1601044842253,1197,-0.38134766,0.55462646,0.6901245
1601044842253,1198,-0.38476562,0.55633545,0.6954956
1601044842253,1199,-0.3840332,0.55584717,0.6950073
1601044842255,1200,-0.38134766,0.55462646,0.6901245
1601044842255,1201,-0.390625,0.5602417,0.6937866
1601044842255,1202,-0.3869629,0.5519409,0.69940186
1601044842255,1203,-0.38427734,0.5529175,0.6984253
1601044842256,1204,-0.390625,0.5602417,0.6937866
1601044842256,1205,-0.38964844,0.55511475,0.69525146
1601044842256,1206,-0.38134766,0.55462646,0.6901245
1601044842256,1207,-0.3876953,0.5529175,0.6976929
1601044842257,1208,-0.38964844,0.55511475,0.69525146
1601044842257,1209,-0.3840332,0.5543823,0.6942749
1601044842257,1210,-0.38476562,0.55633545,0.6954956
1601044842262,1211,-0.3840332,0.5543823,0.6942749
1601044842262,1212,-0.39111328,0.5585327,0.69085693
1601044842262,1213,-0.390625,0.5602417,0.6937866
1601044842262,1214,-0.3869629,0.5519409,0.69940186
1601044842262,1215,-0.39111328,0.5585327,0.69085693
1601044842262,1216,-0.39086914,0.55389404,0.6942749
1601044842262,1217,-0.39086914,0.55389404,0.6942749
1601044842262,1218,-0.38964844,0.55511475,0.69525146
1601044842263,1219,-0.38134766,0.55462646,0.6901245
1601044842263,1220,-0.38964844,0.55755615,0.69573975
1601044842263,1221,-0.38964844,0.55755615,0.69573975
1601044842263,1222,-0.3840332,0.5543823,0.6942749
1601044842265,1223,-0.38842773,0.5582886,0.69158936
1601044842265,1224,-0.390625,0.5602417,0.6937866
1601044842265,1225,-0.38842773,0.5582886,0.69158936
1601044842265,1226,-0.39111328,0.5585327,0.69085693
1601044842265,1227,-0.3918457,0.5560913,0.69329834
1601044842265,1228,-0.38964844,0.55511475,0.69525146
1601044842266,1229,-0.39086914,0.55389404,0.6942749
1601044842266,1230,-0.39013672,0.55755615,0.6935425
1601044842266,1231,-0.3840332,0.5543823,0.6942749
1601044842273,1232,-0.39111328,0.5585327,0.69085693
1601044842273,1233,-0.38964844,0.55755615,0.69573975
1601044842273,1234,-0.39111328,0.5578003,0.6950073
1601044842274,1235,-0.39086914,0.55389404,0.6942749
1601044842274,1236,-0.390625,0.55340576,0.6913452
1601044842274,1237,-0.38964844,0.55755615,0.69573975
1601044842274,1238,-0.38842773,0.5582886,0.69158936
1601044842274,1239,-0.3918457,0.5560913,0.69329834
1601044842274,1240,-0.38842773,0.5582886,0.69158936
1601044842274,1241,-0.3918457,0.5560913,0.69329834
1601044842274,1242,-0.39013672,0.55755615,0.6935425
1601044842275,1243,-0.3918457,0.5560913,0.69329834
1601044842275,1244,-0.39013672,0.55755615,0.6935425
1601044842275,1245,-0.39111328,0.5578003,0.6950073
1601044842275,1246,-0.39111328,0.5578003,0.6950073
1601044842275,1247,-0.39160156,0.55633545,0.69281006
1601044842280,1248,-0.39013672,0.55755615,0.6935425
1601044842280,1249,-0.390625,0.55340576,0.6913452
1601044842280,1250,-0.390625,0.55340576,0.6913452
1601044842281,1251,-0.39038086,0.55755615,0.69158936
1601044842282,1252,-0.39160156,0.55633545,0.69281006
1601044842282,1253,-0.38891602,0.5529175,0.6954956
1601044842282,1254,-0.39111328,0.5578003,0.6950073
1601044842282,1255,-0.39038086,0.55755615,0.69158936
1601044842283,1256,-0.38891602,0.5529175,0.6954956
1601044842283,1257,-0.38745117,0.55340576,0.6918335
1601044842285,1258,-0.38745117,0.55340576,0.6918335
1601044842286,1259,-0.39160156,0.55633545,0.69281006
1601044842286,1260,-0.390625,0.55340576,0.6913452
1601044842286,1261,-0.39160156,0.55633545,0.69281006
1601044842286,1262,-0.38891602,0.55633545,0.6947632
1601044842287,1263,-0.38891602,0.55633545,0.6947632
1601044842287,1264,-0.39038086,0.55755615,0.69158936
1601044842287,1265,-0.3857422,0.55462646,0.69329834
1601044842288,1266,-0.38891602,0.5529175,0.6954956
1601044842289,1267,-0.39135742,0.55462646,0.69744873
1601044842290,1268,-0.3857422,0.55462646,0.69329834
1601044842290,1269,-0.38745117,0.55340576,0.6918335
1601044842291,1270,-0.39135742,0.55462646,0.69744873
1601044842291,1271,-0.38891602,0.55633545,0.6947632
1601044842292,1272,-0.3857422,0.55462646,0.69329834
1601044842292,1273,-0.39038086,0.55755615,0.69158936
1601044842292,1274,-0.39135742,0.55462646,0.69744873
1601044842295,1275,-0.38891602,0.5529175,0.6954956
1601044842295,1276,-0.38745117,0.55340576,0.6918335
1601044842296,1277,-0.38891602,0.55633545,0.6947632
1601044842297,1278,-0.3857422,0.55462646,0.69329834
1601044842297,1279,-0.39135742,0.55462646,0.69744873
1601044844755,1280,-0.39086914,0.5543823,0.69451904
1601044844755,1281,-0.39086914,0.5543823,0.69451904
1601044844755,1282,-0.39086914,0.5543823,0.69451904
1601044844756,1283,-0.38354492,0.5541382,0.69281006
1601044844757,1284,-0.39086914,0.5543823,0.69451904
1601044844757,1285,-0.38354492,0.5541382,0.69281006
1601044844758,1286,-0.38354492,0.5541382,0.69281006
1601044844763,1287,-0.38354492,0.5541382,0.69281006
1601044844763,1288,-0.39160156,0.55218506,0.69647217
1601044844763,1289,-0.39160156,0.55218506,0.69647217
1601044844763,1290,-0.3881836,0.557312,0.6925659
1601044844763,1291,-0.39160156,0.55218506,0.69647217
1601044844763,1292,-0.3881836,0.557312,0.6925659
1601044844764,1293,-0.39160156,0.55218506,0.69647217
1601044844769,1294,-0.3869629,0.555603,0.6984253
1601044844769,1295,-0.3881836,0.557312,0.6925659
1601044844770,1296,-0.3869629,0.555603,0.6984253
1601044844770,1297,-0.3869629,0.555603,0.6984253
1601044844773,1298,-0.3881836,0.557312,0.6925659
1601044844780,1299,-0.38989258,0.5512085,0.6947632
1601044844780,1300,-0.38989258,0.5512085,0.6947632
1601044844780,1301,-0.38989258,0.5512085,0.6947632
1601044844780,1302,-0.38427734,0.55389404,0.69573975
1601044844781,1303,-0.38427734,0.55389404,0.69573975
1601044844781,1304,-0.3869629,0.555603,0.6984253
1601044844784,1305,-0.38842773,0.55511475,0.6923218
1601044844784,1306,-0.38989258,0.5512085,0.6947632
1601044844784,1307,-0.38842773,0.55511475,0.6923218
1601044844785,1308,-0.38427734,0.55389404,0.69573975
1601044844787,1309,-0.38427734,0.5560913,0.6984253
1601044844789,1310,-0.38427734,0.55389404,0.69573975
1601044844789,1311,-0.38427734,0.5560913,0.6984253
1601044844790,1312,-0.38842773,0.55511475,0.6923218
1601044844790,1313,-0.38671875,0.55023193,0.6976929
1601044844790,1314,-0.38842773,0.55511475,0.6923218
1601044844790,1315,-0.38671875,0.55023193,0.6976929
1601044844793,1316,-0.38427734,0.5560913,0.6984253
1601044844795,1317,-0.38916016,0.55096436,0.6959839
1601044844797,1318,-0.38916016,0.55096436,0.6959839
1601044844797,1319,-0.38427734,0.5560913,0.6984253
1601044844797,1320,-0.38671875,0.55023193,0.6976929
1601044844797,1321,-0.38916016,0.55096436,0.6959839
1601044844798,1322,-0.38671875,0.55023193,0.6976929
1601044844798,1323,-0.3869629,0.55462646,0.69647217
1601044844799,1324,-0.3869629,0.55462646,0.69647217
1601044844805,1325,-0.38916016,0.55096436,0.6959839
1601044844805,1326,-0.38745117,0.55462646,0.6947632
1601044844805,1327,-0.3869629,0.55462646,0.69647217
1601044844807,1328,-0.38745117,0.55462646,0.6947632
1601044844807,1329,-0.3869629,0.55462646,0.69647217
1601044844807,1330,-0.38745117,0.55462646,0.6947632
1601044844808,1331,-0.38989258,0.555603,0.69696045
1601044844808,1332,-0.38989258,0.555603,0.69696045
1601044844811,1333,-0.38989258,0.555603,0.69696045
1601044844811,1334,-0.38867188,0.5516968,0.69647217
1601044844811,1335,-0.38745117,0.55462646,0.6947632
1601044844813,1336,-0.38867188,0.5516968,0.69647217
1601044844813,1337,-0.38989258,0.555603,0.69696045
1601044844813,1338,-0.38867188,0.5516968,0.69647217
1601044844813,1339,-0.3918457,0.5548706,0.6959839
1601044844814,1340,-0.38867188,0.5516968,0.69647217
1601044844814,1341,-0.3918457,0.5548706,0.6959839
1601044844818,1342,-0.38964844,0.5519409,0.69403076
1601044844818,1343,-0.38964844,0.5519409,0.69403076
1601044844818,1344,-0.3918457,0.5524292,0.69525146
1601044844818,1345,-0.3918457,0.5548706,0.6959839
1601044844818,1346,-0.3918457,0.5548706,0.6959839
1601044844818,1347,-0.38964844,0.5519409,0.69403076
1601044844822,1348,-0.38964844,0.5519409,0.69403076
1601044844822,1349,-0.3894043,0.55267334,0.6925659
1601044844823,1350,-0.3918457,0.5524292,0.69525146
1601044844823,1351,-0.3918457,0.5524292,0.69525146
1601044844823,1352,-0.3918457,0.5524292,0.69525146
1601044844823,1353,-0.3894043,0.55267334,0.6925659
1601044844823,1354,-0.3894043,0.55267334,0.6925659
1601044844823,1355,-0.38623047,0.5531616,0.6991577
1601044844824,1356,-0.3894043,0.55267334,0.6925659
1601044844824,1357,-0.38623047,0.5531616,0.6991577
1601044844824,1358,-0.38623047,0.5531616,0.6991577
1601044844826,1359,-0.3918457,0.5536499,0.69207764
1601044844826,1360,-0.38623047,0.5531616,0.6991577
1601044844826,1361,-0.3918457,0.5536499,0.69207764
1601044844828,1362,-0.3918457,0.5536499,0.69207764
1601044844828,1363,-0.39379883,0.55633545,0.6918335
1601044844829,1364,-0.3918457,0.5536499,0.69207764
1601044844829,1365,-0.39379883,0.55633545,0.6918335
1601044844835,1366,-0.39379883,0.55633545,0.6918335
1601044844835,1367,-0.3918457,0.5531616,0.69281006
1601044844836,1368,-0.39379883,0.55633545,0.6918335
1601044844836,1369,-0.3918457,0.5531616,0.69281006
1601044844836,1370,-0.3918457,0.5531616,0.69281006
1601044844836,1371,-0.39794922,0.5482788,0.69866943
1601044844836,1372,-0.39794922,0.5482788,0.69866943
1601044844836,1373,-0.39794922,0.5482788,0.69866943
1601044844838,1374,-0.3918457,0.5531616,0.69281006
1601044844838,1375,-0.39135742,0.55462646,0.69158936
1601044844838,1376,-0.39135742,0.55462646,0.69158936
1601044844838,1377,-0.38916016,0.55926514,0.6864624
1601044844842,1378,-0.39135742,0.55462646,0.69158936
1601044844842,1379,-0.38916016,0.55926514,0.6864624
1601044844842,1380,-0.38916016,0.55926514,0.6864624
1601044844842,1381,-0.3894043,0.55755615,0.69329834
1601044844843,1382,-0.3894043,0.55755615,0.69329834
1601044844844,1383,-0.3894043,0.55755615,0.69329834
1601044844844,1384,-0.39575195,0.5543823,0.69329834
1601044844844,1385,-0.39794922,0.5482788,0.69866943
1601044844844,1386,-0.39575195,0.5543823,0.69329834
1601044844844,1387,-0.39331055,0.5529175,0.69403076
1601044844845,1388,-0.39331055,0.5529175,0.69403076
1601044844845,1389,-0.39453125,0.54852295,0.7001343
1601044844852,1390,-0.39453125,0.54852295,0.7001343
1601044844852,1391,-0.39135742,0.55462646,0.69158936
1601044844852,1392,-0.39404297,0.555603,0.6950073
1601044844853,1393,-0.38916016,0.55926514,0.6864624
1601044844853,1394,-0.39404297,0.555603,0.6950073
1601044844853,1395,-0.39575195,0.5543823,0.69329834
1601044844853,1396,-0.390625,0.5531616,0.69207764
1601044844853,1397,-0.39331055,0.5529175,0.69403076
1601044844853,1398,-0.390625,0.5531616,0.69207764
1601044844854,1399,-0.3894043,0.55755615,0.69329834
1601044844854,1400,-0.39453125,0.54852295,0.7001343
1601044844855,1401,-0.39404297,0.555603,0.6950073
1601044844856,1402,-0.39575195,0.5543823,0.69329834
1601044844857,1403,-0.390625,0.5531616,0.69207764
1601044844858,1404,-0.39331055,0.5529175,0.69403076
1601044844860,1405,-0.39453125,0.54852295,0.7001343
1601044844863,1406,-0.39404297,0.555603,0.6950073
1601044844866,1407,-0.390625,0.5531616,0.69207764
1601044847470,1408,-0.39282227,0.5536499,0.69158936
1601044847470,1409,-0.39282227,0.5536499,0.69158936
1601044847472,1410,-0.39282227,0.5536499,0.69158936
1601044847473,1411,-0.39672852,0.55877686,0.6911011
1601044847473,1412,-0.39672852,0.55877686,0.6911011
1601044847474,1413,-0.39282227,0.5536499,0.69158936
1601044847474,1414,-0.39672852,0.55877686,0.6911011
1601044847474,1415,-0.39013672,0.557312,0.6923218
1601044847474,1416,-0.39672852,0.55877686,0.6911011
1601044847475,1417,-0.39013672,0.557312,0.6923218
1601044847477,1418,-0.39013672,0.557312,0.6923218
1601044847477,1419,-0.39013672,0.557312,0.6923218
1601044847477,1420,-0.39233398,0.55633545,0.69329834
1601044847477,1421,-0.39233398,0.55633545,0.69329834
1601044847478,1422,-0.39233398,0.55633545,0.69329834
1601044847478,1423,-0.39233398,0.55633545,0.69329834
1601044847478,1424,-0.38452148,0.5519409,0.6930542
1601044847481,1425,-0.39111328,0.55462646,0.6930542
1601044847483,1426,-0.38452148,0.5519409,0.6930542
1601044847483,1427,-0.38452148,0.5519409,0.6930542
1601044847483,1428,-0.38452148,0.5519409,0.6930542
1601044847483,1429,-0.39135742,0.5553589,0.69281006
1601044847487,1430,-0.39111328,0.55462646,0.6930542
1601044847488,1431,-0.39111328,0.55462646,0.6930542
1601044847488,1432,-0.39135742,0.5553589,0.69281006
1601044847488,1433,-0.38964844,0.5507202,0.6954956
1601044847488,1434,-0.39111328,0.55462646,0.6930542
1601044847488,1435,-0.38964844,0.5507202,0.6954956
1601044847488,1436,-0.39257812,0.55389404,0.6935425
1601044847488,1437,-0.39135742,0.5553589,0.69281006
1601044847488,1438,-0.39135742,0.5553589,0.69281006
1601044847492,1439,-0.39257812,0.55389404,0.6935425
1601044847493,1440,-0.39160156,0.55584717,0.6918335
1601044847493,1441,-0.38964844,0.5507202,0.6954956
1601044847493,1442,-0.38964844,0.5507202,0.6954956
1601044847493,1443,-0.39257812,0.55389404,0.6935425
1601044847497,1444,-0.39160156,0.55584717,0.6918335
1601044847497,1445,-0.38842773,0.55218506,0.6954956
1601044847497,1446,-0.39160156,0.55584717,0.6918335
1601044847498,1447,-0.38842773,0.55218506,0.6954956
1601044847498,1448,-0.38842773,0.55218506,0.6954956
1601044847498,1449,-0.39257812,0.55389404,0.6935425
1601044847498,1450,-0.39160156,0.5553589,0.6935425
1601044847498,1451,-0.39160156,0.5553589,0.6935425
1601044847498,1452,-0.39160156,0.55584717,0.6918335
1601044847498,1453,-0.38891602,0.55511475,0.6937866
1601044847498,1454,-0.39160156,0.5553589,0.6935425
1601044847499,1455,-0.38891602,0.55511475,0.6937866
1601044847499,1456,-0.38842773,0.55218506,0.6954956
1601044847499,1457,-0.38891602,0.55511475,0.6937866
1601044847499,1458,-0.39160156,0.5553589,0.6935425
1601044847502,1459,-0.39111328,0.5529175,0.69403076
1601044847505,1460,-0.38891602,0.55511475,0.6937866
1601044847505,1461,-0.39111328,0.5529175,0.69403076
1601044847505,1462,-0.39111328,0.5529175,0.69403076
1601044847505,1463,-0.38842773,0.5516968,0.69696045
1601044847508,1464,-0.39111328,0.5529175,0.69403076
1601044847508,1465,-0.38842773,0.5516968,0.69696045
1601044847508,1466,-0.38842773,0.5516968,0.69696045
1601044847508,1467,-0.38720703,0.55804443,0.6942749
1601044847509,1468,-0.38842773,0.5516968,0.69696045
1601044847510,1469,-0.38720703,0.55804443,0.6942749
1601044847510,1470,-0.3942871,0.555603,0.6959839
1601044847515,1471,-0.38452148,0.5458374,0.69818115
1601044847515,1472,-0.38720703,0.55804443,0.6942749
1601044847515,1473,-0.3942871,0.555603,0.6959839
1601044847515,1474,-0.38208008,0.56121826,0.6898804
1601044847515,1475,-0.38720703,0.55804443,0.6942749
1601044847516,1476,-0.3942871,0.555603,0.6959839
1601044847516,1477,-0.3942871,0.555603,0.6959839
1601044847516,1478,-0.38452148,0.5458374,0.69818115
1601044847516,1479,-0.38671875,0.55804443,0.6935425
1601044847517,1480,-0.38452148,0.5458374,0.69818115
1601044847517,1481,-0.38208008,0.56121826,0.6898804
1601044847518,1482,-0.38452148,0.5458374,0.69818115
1601044847522,1483,-0.38500977,0.54852295,0.7001343
1601044847522,1484,-0.38208008,0.56121826,0.6898804
1601044847522,1485,-0.38671875,0.55804443,0.6935425
1601044847522,1486,-0.38208008,0.56121826,0.6898804
1601044847524,1487,-0.38500977,0.54852295,0.7001343
1601044847524,1488,-0.38671875,0.55804443,0.6935425
1601044847525,1489,-0.3869629,0.559021,0.69525146
1601044847526,1490,-0.38671875,0.55804443,0.6935425
1601044847526,1491,-0.3869629,0.559021,0.69525146
1601044847526,1492,-0.38500977,0.54852295,0.7001343
1601044847527,1493,-0.38867188,0.5582886,0.69403076
1601044847527,1494,-0.38500977,0.54852295,0.7001343
1601044847529,1495,-0.3869629,0.559021,0.69525146
1601044847529,1496,-0.38867188,0.5582886,0.69403076
1601044847529,1497,-0.39160156,0.5524292,0.6937866
1601044847529,1498,-0.3869629,0.559021,0.69525146
1601044847530,1499,-0.38867188,0.5582886,0.69403076
1601044847530,1500,-0.39160156,0.5524292,0.6937866
1601044847530,1501,-0.39160156,0.5524292,0.6937866
1601044847531,1502,-0.3840332,0.5524292,0.6954956
1601044847531,1503,-0.3840332,0.5524292,0.6954956
1601044847533,1504,-0.3840332,0.5524292,0.6954956
1601044847533,1505,-0.38867188,0.5582886,0.69403076
1601044847533,1506,-0.38842773,0.55999756,0.6893921
1601044847533,1507,-0.38842773,0.55999756,0.6893921
1601044847533,1508,-0.38842773,0.55999756,0.6893921
1601044847533,1509,-0.39160156,0.5524292,0.6937866
1601044847534,1510,-0.3930664,0.5516968,0.6959839
1601044847535,1511,-0.3840332,0.5524292,0.6954956
1601044847535,1512,-0.3930664,0.5516968,0.6959839
1601044847535,1513,-0.3930664,0.5516968,0.6959839
1601044847536,1514,-0.39501953,0.55340576,0.6967163
1601044847536,1515,-0.38842773,0.55999756,0.6893921
1601044847537,1516,-0.3918457,0.5570679,0.69451904
1601044847537,1517,-0.3930664,0.5516968,0.6959839
1601044847540,1518,-0.39501953,0.55877686,0.6937866
1601044847540,1519,-0.39501953,0.55340576,0.6967163
1601044847540,1520,-0.39501953,0.55340576,0.6967163
1601044847545,1521,-0.39501953,0.55340576,0.6967163
1601044847545,1522,-0.3918457,0.5570679,0.69451904
1601044847545,1523,-0.3918457,0.5570679,0.69451904
1601044847545,1524,-0.3918457,0.5570679,0.69451904
1601044847548,1525,-0.38891602,0.55340576,0.696228
1601044847549,1526,-0.39501953,0.55877686,0.6937866
1601044847549,1527,-0.39501953,0.55877686,0.6937866
1601044847549,1528,-0.38891602,0.55340576,0.696228
1601044847549,1529,-0.39501953,0.55877686,0.6937866
1601044847549,1530,-0.3894043,0.5565796,0.69451904
1601044847551,1531,-0.38891602,0.55340576,0.696228
1601044847551,1532,-0.3894043,0.5565796,0.69451904
1601044847552,1533,-0.38891602,0.55340576,0.696228
1601044847552,1534,-0.3894043,0.5565796,0.69451904
1601044847556,1535,-0.3894043,0.5565796,0.69451904
1601044849823,1536,-0.39160156,0.5543823,0.6954956
1601044849824,1537,-0.39160156,0.5543823,0.6954956
1601044849824,1538,-0.39160156,0.5543823,0.6954956
1601044849825,1539,-0.39160156,0.5543823,0.6954956
1601044849827,1540,-0.39038086,0.5543823,0.69158936
1601044849828,1541,-0.39038086,0.5543823,0.69158936
1601044849828,1542,-0.39038086,0.5543823,0.69158936
1601044849829,1543,-0.39038086,0.5543823,0.69158936
1601044849830,1544,-0.390625,0.5536499,0.6989136
1601044849830,1545,-0.390625,0.5536499,0.6989136
1601044849831,1546,-0.39086914,0.55877686,0.69085693
1601044849832,1547,-0.39086914,0.55877686,0.69085693
1601044849836,1548,-0.390625,0.5536499,0.6989136
1601044849837,1549,-0.3881836,0.5524292,0.69036865
1601044849838,1550,-0.3881836,0.5524292,0.69036865
1601044849838,1551,-0.390625,0.5536499,0.6989136
1601044849839,1552,-0.39233398,0.55267334,0.6942749
1601044849841,1553,-0.39086914,0.55877686,0.69085693
1601044849842,1554,-0.39086914,0.55877686,0.69085693
1601044849843,1555,-0.39038086,0.5531616,0.69573975
1601044849843,1556,-0.3881836,0.5524292,0.69036865
1601044849844,1557,-0.3881836,0.5524292,0.69036865
1601044849846,1558,-0.39233398,0.55267334,0.6942749
1601044849846,1559,-0.39331055,0.55633545,0.69403076
1601044849846,1560,-0.39233398,0.55267334,0.6942749
1601044849849,1561,-0.39233398,0.55267334,0.6942749
1601044849849,1562,-0.39135742,0.55096436,0.6959839
1601044849849,1563,-0.39038086,0.5531616,0.69573975
1601044849849,1564,-0.39038086,0.5531616,0.69573975
1601044849853,1565,-0.39331055,0.55633545,0.69403076
1601044849853,1566,-0.39038086,0.5570679,0.6954956
1601044849853,1567,-0.39331055,0.55633545,0.69403076
1601044849853,1568,-0.39038086,0.5531616,0.69573975
1601044849860,1569,-0.39331055,0.55633545,0.69403076
1601044849860,1570,-0.39135742,0.55096436,0.6959839
1601044849860,1571,-0.39160156,0.5519409,0.69451904
1601044849860,1572,-0.39135742,0.55096436,0.6959839
1601044849860,1573,-0.39135742,0.55096436,0.6959839
1601044849860,1574,-0.39038086,0.5570679,0.6954956
1601044849860,1575,-0.39038086,0.5570679,0.6954956
1601044849860,1576,-0.39038086,0.5570679,0.6954956
1601044849861,1577,-0.39086914,0.5536499,0.69329834
1601044849861,1578,-0.39282227,0.5499878,0.6967163
1601044849861,1579,-0.39160156,0.5519409,0.69451904
1601044849862,1580,-0.39160156,0.5519409,0.69451904
1601044849862,1581,-0.39135742,0.5512085,0.69525146
1601044849862,1582,-0.38916016,0.5541382,0.6913452
1601044849863,1583,-0.39135742,0.5543823,0.69158936
1601044849867,1584,-0.39086914,0.5536499,0.69329834
1601044849867,1585,-0.39160156,0.5519409,0.69451904
1601044849867,1586,-0.39086914,0.5536499,0.69329834
1601044849867,1587,-0.3894043,0.5548706,0.69329834
1601044849868,1588,-0.39282227,0.5499878,0.6967163
1601044849868,1589,-0.39086914,0.5536499,0.69329834
1601044849869,1590,-0.39282227,0.5499878,0.6967163
1601044849869,1591,-0.39135742,0.5512085,0.69525146
1601044849870,1592,-0.38867188,0.5529175,0.69329834
1601044849870,1593,-0.39282227,0.5499878,0.6967163
1601044849870,1594,-0.390625,0.5516968,0.6989136
1601044849872,1595,-0.38916016,0.5541382,0.6913452
1601044849872,1596,-0.39135742,0.5512085,0.69525146
1601044849872,1597,-0.39135742,0.5512085,0.69525146
1601044849872,1598,-0.3881836,0.55511475,0.6930542
1601044849873,1599,-0.39135742,0.5543823,0.69158936
1601044849873,1600,-0.38916016,0.5541382,0.6913452
1601044849873,1601,-0.38916016,0.5541382,0.6913452
1601044849873,1602,-0.38745117,0.5543823,0.69207764
1601044849873,1603,-0.3894043,0.5548706,0.69329834
1601044849874,1604,-0.39135742,0.5543823,0.69158936
1601044849874,1605,-0.39135742,0.5543823,0.69158936
1601044849874,1606,-0.3869629,0.5477905,0.696228
1601044849874,1607,-0.3894043,0.5548706,0.69329834
1601044849874,1608,-0.39013672,0.55218506,0.6942749
1601044849875,1609,-0.3894043,0.5548706,0.69329834
1601044849876,1610,-0.38867188,0.5529175,0.69329834
1601044849876,1611,-0.38867188,0.5529175,0.69329834
1601044849876,1612,-0.38867188,0.5529175,0.69329834
1601044849879,1613,-0.39160156,0.54974365,0.6942749
1601044849879,1614,-0.390625,0.5516968,0.6989136
1601044849879,1615,-0.390625,0.5516968,0.6989136
1601044849880,1616,-0.38964844,0.555603,0.6954956
1601044849880,1617,-0.3881836,0.55511475,0.6930542
1601044849880,1618,-0.390625,0.5516968,0.6989136
1601044849880,1619,-0.38745117,0.5543823,0.69207764
1601044849880,1620,-0.3881836,0.55511475,0.6930542
1601044849880,1621,-0.39208984,0.54730225,0.6991577
1601044849880,1622,-0.3881836,0.55511475,0.6930542
1601044849882,1623,-0.3869629,0.5477905,0.696228
1601044849882,1624,-0.38745117,0.5543823,0.69207764
1601044849882,1625,-0.38745117,0.5543823,0.69207764
1601044849883,1626,-0.39086914,0.5499878,0.697937
1601044849883,1627,-0.39013672,0.55218506,0.6942749
1601044849890,1628,-0.3869629,0.5477905,0.696228
1601044849890,1629,-0.3869629,0.5477905,0.696228
1601044849890,1630,-0.39160156,0.54974365,0.6942749
1601044849890,1631,-0.39013672,0.55218506,0.6942749
1601044849890,1632,-0.38964844,0.555603,0.6954956
1601044849890,1633,-0.39013672,0.55218506,0.6942749
1601044849890,1634,-0.39282227,0.5512085,0.69573975
1601044849890,1635,-0.39160156,0.54974365,0.6942749
1601044849890,1636,-0.39208984,0.54730225,0.6991577
1601044849890,1637,-0.39160156,0.54974365,0.6942749
1601044849892,1638,-0.38964844,0.555603,0.6954956
1601044849892,1639,-0.39086914,0.5499878,0.697937
1601044849893,1640,-0.38964844,0.555603,0.6954956
1601044849893,1641,-0.39208984,0.54730225,0.6991577
1601044849893,1642,-0.390625,0.55340576,0.69818115
1601044849894,1643,-0.39282227,0.5512085,0.69573975
1601044849894,1644,-0.39208984,0.54730225,0.6991577
1601044849895,1645,-0.390625,0.55340576,0.69818115
1601044849895,1646,-0.39086914,0.5499878,0.697937
1601044849895,1647,-0.38623047,0.5507202,0.69744873
1601044849895,1648,-0.39086914,0.5499878,0.697937
1601044849895,1649,-0.38623047,0.5507202,0.69744873
1601044849897,1650,-0.39282227,0.5512085,0.69573975
1601044849897,1651,-0.3852539,0.5504761,0.6918335
1601044849897,1652,-0.39282227,0.5512085,0.69573975
1601044849898,1653,-0.3852539,0.5504761,0.6918335
1601044849898,1654,-0.390625,0.55340576,0.69818115
1601044849898,1655,-0.38867188,0.55877686,0.69281006
1601044849899,1656,-0.390625,0.55340576,0.69818115
1601044849899,1657,-0.38867188,0.55877686,0.69281006
1601044849899,1658,-0.38623047,0.5507202,0.69744873
1601044849900,1659,-0.38623047,0.5507202,0.69744873
1601044849901,1660,-0.3852539,0.5504761,0.6918335
1601044849902,1661,-0.38867188,0.55877686,0.69281006
1601044849902,1662,-0.3852539,0.5504761,0.6918335
1601044849903,1663,-0.38867188,0.55877686,0.69281006
