# Sensor position: Wrist
# Sensor side: Right
# Activity type: Sitting bent forward
# Activity code: 4
# Subject id: s1701688
timestamp,seq,accel_x,accel_y,accel_z
1601045227721,0,-0.42504883,-0.76885986,0.5348511
1601045227721,1,-0.42504883,-0.76885986,0.5348511
1601045227721,2,-0.42504883,-0.76885986,0.5348511
1601045227722,3,-0.42285156,-0.7647095,0.53460693
1601045227722,4,-0.42504883,-0.76885986,0.5348511
1601045227723,5,-0.42285156,-0.7647095,0.53460693
1601045227723,6,-0.42285156,-0.7695923,0.5314331
1601045227724,7,-0.42651367,-0.7732544,0.53460693
1601045227724,8,-0.42285156,-0.7695923,0.5314331
1601045227725,9,-0.421875,-0.77301025,0.5302124
1601045227725,10,-0.42285156,-0.7647095,0.53460693
1601045227728,11,-0.42797852,-0.7659302,0.5350952
1601045227728,12,-0.42285156,-0.7695923,0.5314331
1601045227728,13,-0.42651367,-0.7732544,0.53460693
1601045227728,14,-0.42285156,-0.7647095,0.53460693
1601045227728,15,-0.42919922,-0.7620239,0.5372925
1601045227728,16,-0.421875,-0.77301025,0.5302124
1601045227728,17,-0.42651367,-0.7732544,0.53460693
1601045227729,18,-0.43310547,-0.7678833,0.5392456
1601045227730,19,-0.421875,-0.77301025,0.5302124
1601045227734,20,-0.42285156,-0.7695923,0.5314331
1601045227735,21,-0.42797852,-0.7659302,0.5350952
1601045227735,22,-0.42797852,-0.7659302,0.5350952
1601045227735,23,-0.4248047,-0.7698364,0.5285034
1601045227735,24,-0.42919922,-0.7620239,0.5372925
1601045227735,25,-0.42651367,-0.7732544,0.53460693
1601045227736,26,-0.42919922,-0.7620239,0.5372925
1601045227736,27,-0.42578125,-0.7727661,0.5282593
1601045227736,28,-0.421875,-0.77301025,0.5302124
1601045227737,29,-0.43310547,-0.7678833,0.5392456
1601045227744,30,-0.42797852,-0.7659302,0.5350952
1601045227744,31,-0.43310547,-0.7678833,0.5392456
1601045227745,32,-0.42822266,-0.767395,0.5297241
1601045227745,33,-0.4248047,-0.7698364,0.5285034
1601045227745,34,-0.42919922,-0.7620239,0.5372925
1601045227745,35,-0.42578125,-0.7727661,0.5282593
1601045227746,36,-0.42749023,-0.7642212,0.5414429
1601045227746,37,-0.4248047,-0.7698364,0.5285034
1601045227747,38,-0.43310547,-0.7678833,0.5392456
1601045227747,39,-0.42822266,-0.767395,0.5297241
1601045227747,40,-0.4284668,-0.77301025,0.5307007
1601045227747,41,-0.42578125,-0.7727661,0.5282593
1601045227747,42,-0.4248047,-0.7698364,0.5285034
1601045227747,43,-0.42749023,-0.7642212,0.5414429
1601045227747,44,-0.4248047,-0.7710571,0.53240967
1601045227747,45,-0.42578125,-0.7727661,0.5282593
1601045227747,46,-0.4284668,-0.77301025,0.5307007
1601045227748,47,-0.42822266,-0.767395,0.5297241
1601045227750,48,-0.4248047,-0.7710571,0.53240967
1601045227750,49,-0.42895508,-0.7661743,0.5380249
1601045227750,50,-0.42822266,-0.767395,0.5297241
1601045227751,51,-0.42749023,-0.7642212,0.5414429
1601045227751,52,-0.42895508,-0.7661743,0.5380249
1601045227753,53,-0.42773438,-0.7661743,0.53533936
1601045227753,54,-0.42749023,-0.7642212,0.5414429
1601045227753,55,-0.42773438,-0.7661743,0.53533936
1601045227753,56,-0.43017578,-0.770813,0.5302124
1601045227753,57,-0.4284668,-0.77301025,0.5307007
1601045227754,58,-0.4284668,-0.77301025,0.5307007
1601045227754,59,-0.4284668,-0.76934814,0.5326538
1601045227754,60,-0.4248047,-0.7710571,0.53240967
1601045227755,61,-0.4248047,-0.7710571,0.53240967
1601045227755,62,-0.43017578,-0.770813,0.5302124
1601045227755,63,-0.42895508,-0.7661743,0.5380249
1601045227755,64,-0.42895508,-0.7661743,0.5380249
1601045227758,65,-0.4284668,-0.76934814,0.5326538
1601045227758,66,-0.4260254,-0.7683716,0.53240967
1601045227758,67,-0.42773438,-0.7661743,0.53533936
1601045227758,68,-0.42773438,-0.7661743,0.53533936
1601045227759,69,-0.4296875,-0.76934814,0.53533936
1601045227759,70,-0.4260254,-0.7683716,0.53240967
1601045227759,71,-0.43017578,-0.770813,0.5302124
1601045227760,72,-0.4260254,-0.77301025,0.5314331
1601045227760,73,-0.43017578,-0.770813,0.5302124
1601045227760,74,-0.4296875,-0.76934814,0.53533936
1601045227763,75,-0.4272461,-0.770813,0.5314331
1601045227763,76,-0.4284668,-0.76934814,0.5326538
1601045227763,77,-0.4284668,-0.76934814,0.5326538
1601045227763,78,-0.43237305,-0.76885986,0.5319214
1601045227763,79,-0.4260254,-0.77301025,0.5314331
1601045227763,80,-0.4260254,-0.7683716,0.53240967
1601045227764,81,-0.4260254,-0.7683716,0.53240967
1601045227765,82,-0.4272461,-0.770813,0.5314331
1601045227765,83,-0.4296875,-0.76934814,0.53533936
1601045227765,84,-0.42504883,-0.7647095,0.53533936
1601045227766,85,-0.4296875,-0.76934814,0.53533936
1601045227767,86,-0.4260254,-0.77301025,0.5314331
1601045227768,87,-0.43237305,-0.76885986,0.5319214
1601045227768,88,-0.42700195,-0.7703247,0.5321655
1601045227768,89,-0.4272461,-0.770813,0.5314331
1601045227768,90,-0.42504883,-0.7647095,0.53533936
1601045227769,91,-0.43237305,-0.76885986,0.5319214
1601045227769,92,-0.4260254,-0.77301025,0.5314331
1601045227769,93,-0.4272461,-0.769104,0.53460693
1601045227769,94,-0.42700195,-0.7703247,0.5321655
1601045227770,95,-0.4272461,-0.770813,0.5314331
1601045227771,96,-0.42504883,-0.7647095,0.53533936
1601045227774,97,-0.42700195,-0.7703247,0.5321655
1601045227774,98,-0.4272461,-0.769104,0.53460693
1601045227774,99,-0.43237305,-0.76885986,0.5319214
1601045227774,100,-0.4267578,-0.7683716,0.53289795
1601045227774,101,-0.42504883,-0.7647095,0.53533936
1601045227774,102,-0.4272461,-0.769104,0.53460693
1601045227774,103,-0.4267578,-0.7683716,0.53289795
1601045227775,104,-0.42822266,-0.76934814,0.53167725
1601045227775,105,-0.42700195,-0.7703247,0.5321655
1601045227775,106,-0.4267578,-0.7683716,0.53289795
1601045227776,107,-0.4260254,-0.76812744,0.5372925
1601045227778,108,-0.4272461,-0.769104,0.53460693
1601045227778,109,-0.42822266,-0.76934814,0.53167725
1601045227778,110,-0.42822266,-0.76934814,0.53167725
1601045227779,111,-0.42773438,-0.77056885,0.53411865
1601045227779,112,-0.4260254,-0.76812744,0.5372925
1601045227779,113,-0.4267578,-0.7683716,0.53289795
1601045227779,114,-0.4260254,-0.76812744,0.5372925
1601045227781,115,-0.42504883,-0.769104,0.53338623
1601045227781,116,-0.42822266,-0.76934814,0.53167725
1601045227782,117,-0.42773438,-0.77056885,0.53411865
1601045227783,118,-0.42504883,-0.769104,0.53338623
1601045227784,119,-0.4260254,-0.76812744,0.5372925
1601045227784,120,-0.42700195,-0.7715454,0.53289795
1601045227784,121,-0.42773438,-0.77056885,0.53411865
1601045227784,122,-0.42773438,-0.77056885,0.53411865
1601045227784,123,-0.42700195,-0.7715454,0.53289795
1601045227786,124,-0.42504883,-0.769104,0.53338623
1601045227787,125,-0.42700195,-0.7715454,0.53289795
1601045227788,126,-0.42504883,-0.769104,0.53338623
1601045227788,127,-0.42700195,-0.7715454,0.53289795
1601045230454,128,-0.42382812,-0.77056885,0.5338745
1601045230455,129,-0.42382812,-0.77056885,0.5338745
1601045230455,130,-0.42382812,-0.77056885,0.5338745
1601045230455,131,-0.42382812,-0.77056885,0.5338745
1601045230457,132,-0.4272461,-0.769104,0.5343628
1601045230457,133,-0.4272461,-0.769104,0.5343628
1601045230457,134,-0.4272461,-0.769104,0.5343628
1601045230458,135,-0.42260742,-0.7678833,0.5338745
1601045230461,136,-0.42260742,-0.7678833,0.5338745
1601045230462,137,-0.4272461,-0.769104,0.5343628
1601045230462,138,-0.42260742,-0.7678833,0.5338745
1601045230462,139,-0.42773438,-0.76519775,0.5380249
1601045230464,140,-0.42260742,-0.7678833,0.5338745
1601045230465,141,-0.42773438,-0.76519775,0.5380249
1601045230465,142,-0.42407227,-0.7683716,0.53533936
1601045230471,143,-0.42773438,-0.76519775,0.5380249
1601045230471,144,-0.42773438,-0.76519775,0.5380249
1601045230472,145,-0.42163086,-0.770813,0.5350952
1601045230472,146,-0.42407227,-0.7683716,0.53533936
1601045230472,147,-0.42407227,-0.7683716,0.53533936
1601045230472,148,-0.42163086,-0.770813,0.5350952
1601045230472,149,-0.42163086,-0.770813,0.5350952
1601045230473,150,-0.4267578,-0.76812744,0.5372925
1601045230473,151,-0.42407227,-0.7683716,0.53533936
1601045230475,152,-0.4267578,-0.76812744,0.5372925
1601045230476,153,-0.4267578,-0.76812744,0.5372925
1601045230476,154,-0.42163086,-0.770813,0.5350952
1601045230476,155,-0.4248047,-0.7649536,0.53778076
1601045230477,156,-0.4248047,-0.7649536,0.53778076
1601045230478,157,-0.4248047,-0.7649536,0.53778076
1601045230478,158,-0.4267578,-0.76812744,0.5372925
1601045230478,159,-0.42626953,-0.76690674,0.5319214
1601045230482,160,-0.42626953,-0.76690674,0.5319214
1601045230483,161,-0.42626953,-0.76690674,0.5319214
1601045230483,162,-0.4248047,-0.7649536,0.53778076
1601045230483,163,-0.4230957,-0.7683716,0.5348511
1601045230483,164,-0.4230957,-0.7683716,0.5348511
1601045230483,165,-0.42626953,-0.76690674,0.5319214
1601045230483,166,-0.4230957,-0.7683716,0.5348511
1601045230483,167,-0.4267578,-0.7661743,0.5336304
1601045230487,168,-0.4267578,-0.7661743,0.5336304
1601045230488,169,-0.4230957,-0.7683716,0.5348511
1601045230488,170,-0.4267578,-0.7661743,0.5336304
1601045230489,171,-0.42797852,-0.7671509,0.53704834
1601045230490,172,-0.4267578,-0.7661743,0.5336304
1601045230490,173,-0.42797852,-0.7671509,0.53704834
1601045230490,174,-0.42871094,-0.76519775,0.5375366
1601045230490,175,-0.42797852,-0.7671509,0.53704834
1601045230490,176,-0.42797852,-0.7671509,0.53704834
1601045230490,177,-0.42871094,-0.76519775,0.5375366
1601045230492,178,-0.4309082,-0.7600708,0.5446167
1601045230493,179,-0.42871094,-0.76519775,0.5375366
1601045230493,180,-0.4309082,-0.7600708,0.5446167
1601045230493,181,-0.42871094,-0.76519775,0.5375366
1601045230493,182,-0.43115234,-0.76812744,0.53778076
1601045230493,183,-0.43115234,-0.76812744,0.53778076
1601045230493,184,-0.4309082,-0.7600708,0.5446167
1601045230494,185,-0.42895508,-0.7642212,0.52874756
1601045230495,186,-0.4309082,-0.7600708,0.5446167
1601045230495,187,-0.42895508,-0.7642212,0.52874756
1601045230495,188,-0.43115234,-0.76812744,0.53778076
1601045230496,189,-0.42626953,-0.7756958,0.5289917
1601045230496,190,-0.43115234,-0.76812744,0.53778076
1601045230496,191,-0.42626953,-0.7756958,0.5289917
1601045230496,192,-0.42895508,-0.7642212,0.52874756
1601045230499,193,-0.43115234,-0.77911377,0.52508545
1601045230499,194,-0.42895508,-0.7642212,0.52874756
1601045230499,195,-0.42626953,-0.7756958,0.5289917
1601045230499,196,-0.43041992,-0.76812744,0.53411865
1601045230500,197,-0.43115234,-0.77911377,0.52508545
1601045230502,198,-0.42626953,-0.7756958,0.5289917
1601045230503,199,-0.42626953,-0.75787354,0.5414429
1601045230503,200,-0.43115234,-0.77911377,0.52508545
1601045230503,201,-0.43041992,-0.76812744,0.53411865
1601045230503,202,-0.43115234,-0.77911377,0.52508545
1601045230520,203,-0.42578125,-0.76763916,0.5350952
1601045230521,204,-0.42626953,-0.75787354,0.5414429
1601045230521,205,-0.43041992,-0.76812744,0.53411865
1601045230521,206,-0.42578125,-0.76763916,0.5350952
1601045230521,207,-0.42626953,-0.75787354,0.5414429
1601045230521,208,-0.43017578,-0.7683716,0.5307007
1601045230521,209,-0.43017578,-0.7683716,0.5307007
1601045230521,210,-0.43041992,-0.76812744,0.53411865
1601045230524,211,-0.42700195,-0.7703247,0.5397339
1601045230524,212,-0.42700195,-0.7703247,0.5397339
1601045230524,213,-0.42626953,-0.75787354,0.5414429
1601045230524,214,-0.42626953,-0.77008057,0.5302124
1601045230524,215,-0.42626953,-0.77008057,0.5302124
1601045230524,216,-0.42578125,-0.76763916,0.5350952
1601045230524,217,-0.42504883,-0.76641846,0.5372925
1601045230524,218,-0.42504883,-0.76641846,0.5372925
1601045230524,219,-0.43041992,-0.7642212,0.5392456
1601045230524,220,-0.43017578,-0.7683716,0.5307007
1601045230525,221,-0.42578125,-0.76763916,0.5350952
1601045230525,222,-0.43041992,-0.7642212,0.5392456
1601045230525,223,-0.42944336,-0.77056885,0.5302124
1601045230525,224,-0.43017578,-0.7683716,0.5307007
1601045230526,225,-0.42700195,-0.7703247,0.5397339
1601045230526,226,-0.42944336,-0.77056885,0.5302124
1601045230526,227,-0.42626953,-0.77008057,0.5302124
1601045230526,228,-0.4248047,-0.7710571,0.52801514
1601045230526,229,-0.42700195,-0.7703247,0.5397339
1601045230526,230,-0.42504883,-0.76641846,0.5372925
1601045230529,231,-0.4248047,-0.7710571,0.52801514
1601045230529,232,-0.42773438,-0.7678833,0.5375366
1601045230529,233,-0.42626953,-0.77008057,0.5302124
1601045230529,234,-0.43041992,-0.7642212,0.5392456
1601045230531,235,-0.42773438,-0.7678833,0.5375366
1601045230531,236,-0.42871094,-0.7695923,0.53778076
1601045230531,237,-0.42504883,-0.76641846,0.5372925
1601045230532,238,-0.42944336,-0.77056885,0.5302124
1601045230538,239,-0.42871094,-0.7695923,0.53778076
1601045230539,240,-0.43041992,-0.7642212,0.5392456
1601045230540,241,-0.42456055,-0.7695923,0.5321655
1601045230540,242,-0.4248047,-0.7710571,0.52801514
1601045230540,243,-0.42456055,-0.7695923,0.5321655
1601045230542,244,-0.42382812,-0.7666626,0.53411865
1601045230543,245,-0.42773438,-0.7678833,0.5375366
1601045230543,246,-0.42944336,-0.77056885,0.5302124
1601045230543,247,-0.42382812,-0.7666626,0.53411865
1601045230547,248,-0.42871094,-0.7695923,0.53778076
1601045230547,249,-0.4248047,-0.7710571,0.52801514
1601045230547,250,-0.42456055,-0.7695923,0.5321655
1601045230548,251,-0.42773438,-0.7678833,0.5375366
1601045230548,252,-0.42382812,-0.7666626,0.53411865
1601045230550,253,-0.42871094,-0.7695923,0.53778076
1601045230553,254,-0.42456055,-0.7695923,0.5321655
1601045230553,255,-0.42382812,-0.7666626,0.53411865
1601045232793,256,-0.4260254,-0.7659302,0.53778076
1601045232795,257,-0.4260254,-0.7659302,0.53778076
1601045232795,258,-0.4260254,-0.7659302,0.53778076
1601045232796,259,-0.4260254,-0.7659302,0.53778076
1601045232797,260,-0.4267578,-0.7703247,0.5326538
1601045232798,261,-0.4267578,-0.7703247,0.5326538
1601045232801,262,-0.4267578,-0.7703247,0.5326538
1601045232804,263,-0.4267578,-0.7703247,0.5326538
1601045232804,264,-0.42651367,-0.7683716,0.5326538
1601045232806,265,-0.42651367,-0.7683716,0.5326538
1601045232806,266,-0.42529297,-0.7683716,0.53460693
1601045232808,267,-0.42749023,-0.76690674,0.5338745
1601045232808,268,-0.42651367,-0.7683716,0.5326538
1601045232809,269,-0.42529297,-0.7683716,0.53460693
1601045232809,270,-0.42651367,-0.7683716,0.5326538
1601045232810,271,-0.42529297,-0.7683716,0.53460693
1601045232812,272,-0.42773438,-0.77056885,0.5319214
1601045232813,273,-0.42529297,-0.7683716,0.53460693
1601045232813,274,-0.42749023,-0.76690674,0.5338745
1601045232813,275,-0.42749023,-0.76690674,0.5338745
1601045232813,276,-0.42749023,-0.76690674,0.5338745
1601045232813,277,-0.42456055,-0.7695923,0.53240967
1601045232813,278,-0.42773438,-0.77056885,0.5319214
1601045232814,279,-0.4284668,-0.767395,0.5319214
1601045232815,280,-0.42773438,-0.77056885,0.5319214
1601045232815,281,-0.42773438,-0.77056885,0.5319214
1601045232816,282,-0.42456055,-0.7695923,0.53240967
1601045232817,283,-0.42456055,-0.7695923,0.53240967
1601045232820,284,-0.42773438,-0.76690674,0.5397339
1601045232820,285,-0.4284668,-0.767395,0.5319214
1601045232820,286,-0.4284668,-0.767395,0.5319214
1601045232821,287,-0.42456055,-0.77008057,0.5350952
1601045232821,288,-0.42773438,-0.76690674,0.5397339
1601045232821,289,-0.42773438,-0.76690674,0.5397339
1601045232821,290,-0.42626953,-0.76934814,0.5331421
1601045232822,291,-0.42456055,-0.7695923,0.53240967
1601045232822,292,-0.42456055,-0.77008057,0.5350952
1601045232823,293,-0.42456055,-0.77008057,0.5350952
1601045232824,294,-0.42626953,-0.76934814,0.5331421
1601045232824,295,-0.4284668,-0.767395,0.5319214
1601045232824,296,-0.4255371,-0.769104,0.53656006
1601045232826,297,-0.4255371,-0.769104,0.53656006
1601045232826,298,-0.42626953,-0.76934814,0.5331421
1601045232826,299,-0.4248047,-0.76446533,0.5348511
1601045232826,300,-0.42773438,-0.76690674,0.5397339
1601045232827,301,-0.42333984,-0.76812744,0.5372925
1601045232827,302,-0.42456055,-0.77008057,0.5350952
1601045232828,303,-0.4255371,-0.769104,0.53656006
1601045232828,304,-0.4243164,-0.76885986,0.5348511
1601045232828,305,-0.42626953,-0.76934814,0.5331421
1601045232830,306,-0.4248047,-0.76446533,0.5348511
1601045232830,307,-0.4248047,-0.76446533,0.5348511
1601045232830,308,-0.42529297,-0.76568604,0.5375366
1601045232830,309,-0.4255371,-0.769104,0.53656006
1601045232830,310,-0.42333984,-0.76812744,0.5372925
1601045232831,311,-0.42382812,-0.7617798,0.53826904
1601045232831,312,-0.42333984,-0.76812744,0.5372925
1601045232832,313,-0.4248047,-0.76446533,0.5348511
1601045232833,314,-0.4243164,-0.76885986,0.5348511
1601045232833,315,-0.42333984,-0.76812744,0.5372925
1601045232834,316,-0.4243164,-0.76885986,0.5348511
1601045232834,317,-0.42236328,-0.77227783,0.5338745
1601045232834,318,-0.42529297,-0.76568604,0.5375366
1601045232835,319,-0.4230957,-0.76641846,0.5360718
1601045232836,320,-0.4243164,-0.76885986,0.5348511
1601045232836,321,-0.42529297,-0.76568604,0.5375366
1601045232836,322,-0.42382812,-0.7617798,0.53826904
1601045232837,323,-0.42529297,-0.76568604,0.5375366
1601045232841,324,-0.42236328,-0.77227783,0.5338745
1601045232842,325,-0.42382812,-0.7617798,0.53826904
1601045232842,326,-0.4260254,-0.769104,0.5375366
1601045232842,327,-0.4230957,-0.76641846,0.5360718
1601045232842,328,-0.42236328,-0.77227783,0.5338745
1601045232842,329,-0.42382812,-0.7617798,0.53826904
1601045232842,330,-0.42163086,-0.7666626,0.5307007
1601045232843,331,-0.4260254,-0.769104,0.5375366
1601045232843,332,-0.4230957,-0.76641846,0.5360718
1601045232843,333,-0.42163086,-0.7666626,0.5307007
1601045232843,334,-0.4260254,-0.769104,0.5375366
1601045232843,335,-0.42138672,-0.7678833,0.5350952
1601045232844,336,-0.42138672,-0.7678833,0.5350952
1601045232844,337,-0.42236328,-0.77227783,0.5338745
1601045232844,338,-0.42626953,-0.7710571,0.5336304
1601045232844,339,-0.42163086,-0.7666626,0.5307007
1601045232846,340,-0.42626953,-0.7710571,0.5336304
1601045232847,341,-0.42138672,-0.7678833,0.5350952
1601045232847,342,-0.4194336,-0.76568604,0.53338623
1601045232847,343,-0.4194336,-0.76568604,0.53338623
1601045232848,344,-0.4230957,-0.76641846,0.5360718
1601045232848,345,-0.42626953,-0.7710571,0.5336304
1601045232848,346,-0.42211914,-0.77056885,0.53289795
1601045232848,347,-0.42211914,-0.77056885,0.53289795
1601045232849,348,-0.43041992,-0.76763916,0.53656006
1601045232849,349,-0.43041992,-0.76763916,0.53656006
1601045232849,350,-0.4194336,-0.76568604,0.53338623
1601045232849,351,-0.43408203,-0.7637329,0.5375366
1601045232849,352,-0.4260254,-0.769104,0.5375366
1601045232849,353,-0.43408203,-0.7637329,0.5375366
1601045232849,354,-0.4326172,-0.7649536,0.5326538
1601045232850,355,-0.42211914,-0.77056885,0.53289795
1601045232851,356,-0.42163086,-0.7666626,0.5307007
1601045232851,357,-0.43481445,-0.76446533,0.53411865
1601045232852,358,-0.43041992,-0.76763916,0.53656006
1601045232853,359,-0.4326172,-0.7649536,0.5326538
1601045232853,360,-0.42138672,-0.7678833,0.5350952
1601045232854,361,-0.43408203,-0.7637329,0.5375366
1601045232854,362,-0.43652344,-0.76519775,0.5380249
1601045232854,363,-0.43481445,-0.76446533,0.53411865
1601045232854,364,-0.43286133,-0.7637329,0.53167725
1601045232854,365,-0.42626953,-0.7710571,0.5336304
1601045232855,366,-0.43652344,-0.76519775,0.5380249
1601045232855,367,-0.4194336,-0.76568604,0.53338623
1601045232855,368,-0.43432617,-0.76763916,0.53582764
1601045232857,369,-0.43286133,-0.7637329,0.53167725
1601045232857,370,-0.42211914,-0.77056885,0.53289795
1601045232858,371,-0.43432617,-0.76763916,0.53582764
1601045232858,372,-0.4326172,-0.7649536,0.5326538
1601045232859,373,-0.43041992,-0.76763916,0.53656006
1601045232859,374,-0.43481445,-0.76446533,0.53411865
1601045232860,375,-0.43408203,-0.7637329,0.5375366
1601045232860,376,-0.43652344,-0.76519775,0.5380249
1601045232860,377,-0.4326172,-0.7649536,0.5326538
1601045232860,378,-0.43286133,-0.7637329,0.53167725
1601045232861,379,-0.43481445,-0.76446533,0.53411865
1601045232861,380,-0.43652344,-0.76519775,0.5380249
1601045232861,381,-0.43432617,-0.76763916,0.53582764
1601045232861,382,-0.43286133,-0.7637329,0.53167725
1601045232862,383,-0.43432617,-0.76763916,0.53582764
1601045235337,384,-0.4333496,-0.76275635,0.5343628
1601045235338,385,-0.4333496,-0.76275635,0.5343628
1601045235343,386,-0.43408203,-0.7637329,0.53778076
1601045235345,387,-0.4333496,-0.76275635,0.5343628
1601045235345,388,-0.43408203,-0.7637329,0.53778076
1601045235345,389,-0.4333496,-0.76275635,0.5343628
1601045235345,390,-0.43310547,-0.76519775,0.5321655
1601045235346,391,-0.43408203,-0.7637329,0.53778076
1601045235346,392,-0.43408203,-0.7642212,0.5350952
1601045235346,393,-0.43310547,-0.76519775,0.5321655
1601045235346,394,-0.43408203,-0.7637329,0.53778076
1601045235347,395,-0.43310547,-0.76519775,0.5321655
1601045235347,396,-0.4350586,-0.76446533,0.5368042
1601045235347,397,-0.43408203,-0.7642212,0.5350952
1601045235347,398,-0.43408203,-0.7642212,0.5350952
1601045235347,399,-0.43139648,-0.7659302,0.53411865
1601045235347,400,-0.43310547,-0.76519775,0.5321655
1601045235347,401,-0.4296875,-0.767395,0.527771
1601045235347,402,-0.4350586,-0.76446533,0.5368042
1601045235347,403,-0.43408203,-0.7642212,0.5350952
1601045235351,404,-0.43359375,-0.7647095,0.5321655
1601045235351,405,-0.4350586,-0.76446533,0.5368042
1601045235356,406,-0.4350586,-0.76446533,0.5368042
1601045235356,407,-0.43139648,-0.7659302,0.53411865
1601045235356,408,-0.43139648,-0.7659302,0.53411865
1601045235356,409,-0.4345703,-0.76348877,0.53582764
1601045235357,410,-0.43139648,-0.7659302,0.53411865
1601045235357,411,-0.4296875,-0.767395,0.527771
1601045235358,412,-0.4296875,-0.767395,0.527771
1601045235359,413,-0.43359375,-0.7647095,0.5321655
1601045235360,414,-0.43164062,-0.76397705,0.5360718
1601045235360,415,-0.4296875,-0.767395,0.527771
1601045235361,416,-0.43359375,-0.7647095,0.5321655
1601045235361,417,-0.4345703,-0.76348877,0.53582764
1601045235362,418,-0.43066406,-0.7744751,0.5336304
1601045235363,419,-0.4345703,-0.76348877,0.53582764
1601045235363,420,-0.43164062,-0.76397705,0.5360718
1601045235363,421,-0.4345703,-0.75909424,0.53533936
1601045235364,422,-0.43164062,-0.76397705,0.5360718
1601045235365,423,-0.43359375,-0.7647095,0.5321655
1601045235366,424,-0.43066406,-0.7744751,0.5336304
1601045235366,425,-0.43066406,-0.7744751,0.5336304
1601045235372,426,-0.4345703,-0.76348877,0.53582764
1601045235372,427,-0.4345703,-0.75909424,0.53533936
1601045235372,428,-0.43676758,-0.76568604,0.52923584
1601045235372,429,-0.4345703,-0.75909424,0.53533936
1601045235372,430,-0.43164062,-0.76397705,0.5360718
1601045235372,431,-0.4338379,-0.7647095,0.5355835
1601045235373,432,-0.43676758,-0.76568604,0.52923584
1601045235374,433,-0.43066406,-0.7744751,0.5336304
1601045235375,434,-0.4338379,-0.7647095,0.5355835
1601045235375,435,-0.43676758,-0.76568604,0.52923584
1601045235375,436,-0.4345703,-0.75909424,0.53533936
1601045235376,437,-0.4350586,-0.7654419,0.5270386
1601045235376,438,-0.4338379,-0.7647095,0.5355835
1601045235376,439,-0.43701172,-0.7642212,0.5355835
1601045235378,440,-0.4350586,-0.7654419,0.5270386
1601045235378,441,-0.43676758,-0.76568604,0.52923584
1601045235379,442,-0.4350586,-0.7654419,0.5270386
1601045235379,443,-0.43701172,-0.7642212,0.5355835
1601045235380,444,-0.43603516,-0.7620239,0.54071045
1601045235380,445,-0.43701172,-0.7642212,0.5355835
1601045235380,446,-0.43652344,-0.76348877,0.5319214
1601045235381,447,-0.43603516,-0.7620239,0.54071045
1601045235381,448,-0.4362793,-0.76275635,0.5321655
1601045235382,449,-0.43603516,-0.7620239,0.54071045
1601045235382,450,-0.43652344,-0.76348877,0.5319214
1601045235382,451,-0.43798828,-0.7661743,0.5338745
1601045235384,452,-0.4338379,-0.7647095,0.5355835
1601045235387,453,-0.4362793,-0.76275635,0.5321655
1601045235389,454,-0.44091797,-0.76641846,0.52948
1601045235390,455,-0.43652344,-0.76348877,0.5319214
1601045235391,456,-0.43798828,-0.7661743,0.5338745
1601045235391,457,-0.43701172,-0.7654419,0.5326538
1601045235392,458,-0.4350586,-0.7654419,0.5270386
1601045235392,459,-0.4362793,-0.76275635,0.5321655
1601045235392,460,-0.43701172,-0.7642212,0.5355835
1601045235392,461,-0.43774414,-0.7632446,0.5350952
1601045235392,462,-0.43603516,-0.7620239,0.54071045
1601045235392,463,-0.43798828,-0.7661743,0.5338745
1601045235392,464,-0.4350586,-0.7683716,0.52801514
1601045235392,465,-0.44091797,-0.76641846,0.52948
1601045235392,466,-0.43652344,-0.76348877,0.5319214
1601045235393,467,-0.44091797,-0.76641846,0.52948
1601045235393,468,-0.43701172,-0.7654419,0.5326538
1601045235394,469,-0.43579102,-0.76397705,0.53460693
1601045235395,470,-0.4362793,-0.76275635,0.5321655
1601045235395,471,-0.43774414,-0.7632446,0.5350952
1601045235395,472,-0.43701172,-0.7654419,0.5326538
1601045235395,473,-0.43798828,-0.7661743,0.5338745
1601045235395,474,-0.43725586,-0.7642212,0.5309448
1601045235395,475,-0.44091797,-0.76641846,0.52948
1601045235396,476,-0.4350586,-0.7683716,0.52801514
1601045235397,477,-0.43286133,-0.76641846,0.5331421
1601045235397,478,-0.43701172,-0.7654419,0.5326538
1601045235397,479,-0.43774414,-0.7632446,0.5350952
1601045235397,480,-0.4333496,-0.7649536,0.5338745
1601045235397,481,-0.43579102,-0.76397705,0.53460693
1601045235397,482,-0.43774414,-0.7632446,0.5350952
1601045235398,483,-0.43432617,-0.7671509,0.52923584
1601045235398,484,-0.4350586,-0.7683716,0.52801514
1601045235399,485,-0.43530273,-0.7647095,0.5326538
1601045235400,486,-0.43725586,-0.7642212,0.5309448
1601045235400,487,-0.4350586,-0.7683716,0.52801514
1601045235400,488,-0.43286133,-0.76641846,0.5331421
1601045235400,489,-0.43579102,-0.76397705,0.53460693
1601045235405,490,-0.43579102,-0.76397705,0.53460693
1601045235411,491,-0.43359375,-0.7630005,0.5321655
1601045235411,492,-0.4350586,-0.7671509,0.53656006
1601045235411,493,-0.43725586,-0.7642212,0.5309448
1601045235411,494,-0.4333496,-0.7649536,0.5338745
1601045235411,495,-0.43725586,-0.7642212,0.5309448
1601045235411,496,-0.43286133,-0.76641846,0.5331421
1601045235411,497,-0.43432617,-0.7671509,0.52923584
1601045235411,498,-0.43286133,-0.76641846,0.5331421
1601045235411,499,-0.4333496,-0.7649536,0.5338745
1601045235411,500,-0.43530273,-0.7647095,0.5326538
1601045235412,501,-0.4333496,-0.7649536,0.5338745
1601045235428,502,-0.43432617,-0.7671509,0.52923584
1601045235428,503,-0.43359375,-0.7630005,0.5321655
1601045235428,504,-0.43432617,-0.7671509,0.52923584
1601045235428,505,-0.43530273,-0.7647095,0.5326538
1601045235428,506,-0.43530273,-0.7647095,0.5326538
1601045235428,507,-0.4350586,-0.7671509,0.53656006
1601045235428,508,-0.43359375,-0.7630005,0.5321655
1601045235429,509,-0.43359375,-0.7630005,0.5321655
1601045235429,510,-0.4350586,-0.7671509,0.53656006
1601045235430,511,-0.4350586,-0.7671509,0.53656006
1601045238055,512,-0.43408203,-0.767395,0.53460693
1601045238057,513,-0.43408203,-0.767395,0.53460693
1601045238057,514,-0.43408203,-0.767395,0.53460693
1601045238058,515,-0.43408203,-0.767395,0.53460693
1601045238058,516,-0.43603516,-0.767395,0.53411865
1601045238058,517,-0.43603516,-0.767395,0.53411865
1601045238060,518,-0.43188477,-0.7666626,0.5343628
1601045238060,519,-0.43603516,-0.767395,0.53411865
1601045238060,520,-0.43603516,-0.767395,0.53411865
1601045238061,521,-0.43188477,-0.7666626,0.5343628
1601045238061,522,-0.43237305,-0.76812744,0.5326538
1601045238062,523,-0.43188477,-0.7666626,0.5343628
1601045238062,524,-0.43188477,-0.7666626,0.5343628
1601045238062,525,-0.43237305,-0.76812744,0.5326538
1601045238063,526,-0.43041992,-0.7642212,0.53338623
1601045238063,527,-0.43237305,-0.76812744,0.5326538
1601045238063,528,-0.43237305,-0.76812744,0.5326538
1601045238065,529,-0.43432617,-0.7678833,0.5302124
1601045238065,530,-0.43041992,-0.7642212,0.53338623
1601045238065,531,-0.43041992,-0.7642212,0.53338623
1601045238065,532,-0.43041992,-0.7642212,0.53338623
1601045238065,533,-0.43432617,-0.7678833,0.5302124
1601045238068,534,-0.43603516,-0.7686157,0.5350952
1601045238069,535,-0.43603516,-0.7686157,0.5350952
1601045238069,536,-0.43432617,-0.7678833,0.5302124
1601045238069,537,-0.43432617,-0.7678833,0.5302124
1601045238069,538,-0.43603516,-0.7686157,0.5350952
1601045238071,539,-0.43603516,-0.7686157,0.5350952
1601045238071,540,-0.43408203,-0.76763916,0.5331421
1601045238071,541,-0.43408203,-0.76763916,0.5331421
1601045238071,542,-0.43408203,-0.76763916,0.5331421
1601045238071,543,-0.4333496,-0.7710571,0.5350952
1601045238072,544,-0.4333496,-0.7710571,0.5350952
1601045238072,545,-0.4333496,-0.7710571,0.5350952
1601045238072,546,-0.43408203,-0.76763916,0.5331421
1601045238075,547,-0.4333496,-0.7710571,0.5350952
1601045238076,548,-0.4333496,-0.7625122,0.5282593
1601045238076,549,-0.4333496,-0.7625122,0.5282593
1601045238077,550,-0.4333496,-0.7625122,0.5282593
1601045238077,551,-0.4333496,-0.7625122,0.5282593
1601045238078,552,-0.4350586,-0.76446533,0.5355835
1601045238079,553,-0.4350586,-0.76446533,0.5355835
1601045238080,554,-0.4350586,-0.76446533,0.5355835
1601045238080,555,-0.4350586,-0.76446533,0.5355835
1601045238080,556,-0.4362793,-0.76519775,0.53411865
1601045238081,557,-0.4362793,-0.76519775,0.53411865
1601045238081,558,-0.43432617,-0.7695923,0.52752686
1601045238081,559,-0.4362793,-0.76519775,0.53411865
1601045238081,560,-0.43432617,-0.7695923,0.52752686
1601045238082,561,-0.4362793,-0.76519775,0.53411865
1601045238082,562,-0.43432617,-0.7666626,0.52948
1601045238082,563,-0.43432617,-0.7695923,0.52752686
1601045238083,564,-0.4362793,-0.75787354,0.54803467
1601045238083,565,-0.43432617,-0.7695923,0.52752686
1601045238084,566,-0.43432617,-0.7666626,0.52948
1601045238084,567,-0.43432617,-0.7666626,0.52948
1601045238084,568,-0.43432617,-0.7666626,0.52948
1601045238085,569,-0.4362793,-0.75787354,0.54803467
1601045238085,570,-0.4362793,-0.75787354,0.54803467
1601045238088,571,-0.43774414,-0.7576294,0.54193115
1601045238088,572,-0.43774414,-0.7576294,0.54193115
1601045238088,573,-0.43359375,-0.7659302,0.52948
1601045238088,574,-0.43774414,-0.7576294,0.54193115
1601045238089,575,-0.43359375,-0.7659302,0.52948
1601045238090,576,-0.43237305,-0.7642212,0.5343628
1601045238091,577,-0.43359375,-0.7659302,0.52948
1601045238091,578,-0.4362793,-0.75787354,0.54803467
1601045238092,579,-0.4375,-0.76104736,0.53460693
1601045238092,580,-0.43774414,-0.7576294,0.54193115
1601045238092,581,-0.43237305,-0.7642212,0.5343628
1601045238092,582,-0.43359375,-0.7659302,0.52948
1601045238093,583,-0.4375,-0.76104736,0.53460693
1601045238093,584,-0.43237305,-0.7642212,0.5343628
1601045238093,585,-0.4375,-0.76104736,0.53460693
1601045238094,586,-0.4333496,-0.76348877,0.53656006
1601045238094,587,-0.4333496,-0.76348877,0.53656006
1601045238094,588,-0.4350586,-0.7659302,0.5338745
1601045238094,589,-0.43237305,-0.7642212,0.5343628
1601045238094,590,-0.4350586,-0.7659302,0.5338745
1601045238095,591,-0.4375,-0.76104736,0.53460693
1601045238096,592,-0.43310547,-0.7632446,0.5368042
1601045238096,593,-0.43310547,-0.7632446,0.5368042
1601045238097,594,-0.4333496,-0.76348877,0.53656006
1601045238097,595,-0.43286133,-0.76568604,0.5385132
1601045238097,596,-0.4350586,-0.7659302,0.5338745
1601045238097,597,-0.4333496,-0.76348877,0.53656006
1601045238097,598,-0.43310547,-0.7632446,0.5368042
1601045238097,599,-0.43286133,-0.7630005,0.53582764
1601045238098,600,-0.43286133,-0.76568604,0.5385132
1601045238098,601,-0.43286133,-0.7630005,0.53582764
1601045238098,602,-0.43286133,-0.76568604,0.5385132
1601045238098,603,-0.43603516,-0.75982666,0.53826904
1601045238098,604,-0.4350586,-0.7659302,0.5338745
1601045238098,605,-0.43603516,-0.75982666,0.53826904
1601045238098,606,-0.43652344,-0.7608032,0.5363159
1601045238098,607,-0.43310547,-0.7632446,0.5368042
1601045238099,608,-0.43652344,-0.7608032,0.5363159
1601045238099,609,-0.43286133,-0.7630005,0.53582764
1601045238099,610,-0.43286133,-0.76568604,0.5385132
1601045238099,611,-0.43603516,-0.75982666,0.53826904
1601045238099,612,-0.43603516,-0.76275635,0.53656006
1601045238099,613,-0.43286133,-0.7630005,0.53582764
1601045238099,614,-0.43652344,-0.7608032,0.5363159
1601045238099,615,-0.43603516,-0.76275635,0.53656006
1601045238099,616,-0.4333496,-0.7632446,0.5372925
1601045238099,617,-0.43603516,-0.75982666,0.53826904
1601045238100,618,-0.43603516,-0.76275635,0.53656006
1601045238100,619,-0.4333496,-0.7632446,0.5372925
1601045238100,620,-0.4362793,-0.7581177,0.54022217
1601045238100,621,-0.4362793,-0.7581177,0.54022217
1601045238100,622,-0.43652344,-0.7608032,0.5363159
1601045238100,623,-0.43579102,-0.76641846,0.53582764
1601045238100,624,-0.4333496,-0.7632446,0.5372925
1601045238100,625,-0.43603516,-0.76275635,0.53656006
1601045238100,626,-0.43041992,-0.7647095,0.5331421
1601045238100,627,-0.43579102,-0.76641846,0.53582764
1601045238101,628,-0.4333496,-0.7632446,0.5372925
1601045238101,629,-0.4362793,-0.7581177,0.54022217
1601045238101,630,-0.43359375,-0.7637329,0.5372925
1601045238101,631,-0.43041992,-0.7647095,0.5331421
1601045238101,632,-0.4362793,-0.7581177,0.54022217
1601045238101,633,-0.43579102,-0.76641846,0.53582764
1601045238101,634,-0.43579102,-0.76641846,0.53582764
1601045238101,635,-0.43041992,-0.7647095,0.5331421
1601045238101,636,-0.43041992,-0.7647095,0.5331421
1601045238102,637,-0.43359375,-0.7637329,0.5372925
1601045238102,638,-0.43359375,-0.7637329,0.5372925
1601045238102,639,-0.43359375,-0.7637329,0.5372925
1601045240593,640,-0.43432617,-0.7647095,0.5375366
1601045240593,641,-0.43432617,-0.7647095,0.5375366
1601045240593,642,-0.43432617,-0.7647095,0.5375366
1601045240595,643,-0.43603516,-0.7654419,0.5372925
1601045240595,644,-0.43603516,-0.7654419,0.5372925
1601045240595,645,-0.43432617,-0.7647095,0.5375366
1601045240596,646,-0.4362793,-0.76275635,0.5355835
1601045240596,647,-0.43603516,-0.7654419,0.5372925
1601045240596,648,-0.4350586,-0.76397705,0.53826904
1601045240596,649,-0.4362793,-0.76275635,0.5355835
1601045240596,650,-0.43603516,-0.7654419,0.5372925
1601045240596,651,-0.4350586,-0.76397705,0.53826904
1601045240597,652,-0.4362793,-0.76275635,0.5355835
1601045240597,653,-0.4362793,-0.76275635,0.5355835
1601045240598,654,-0.4350586,-0.76397705,0.53826904
1601045240598,655,-0.4350586,-0.76397705,0.53826904
1601045240598,656,-0.4338379,-0.76153564,0.5375366
1601045240599,657,-0.4338379,-0.76153564,0.5375366
1601045240599,658,-0.4338379,-0.76153564,0.5375366
1601045240599,659,-0.4350586,-0.7620239,0.53704834
1601045240599,660,-0.4350586,-0.7620239,0.53704834
1601045240599,661,-0.4350586,-0.7620239,0.53704834
1601045240601,662,-0.4338379,-0.76153564,0.5375366
1601045240601,663,-0.4338379,-0.7630005,0.53704834
1601045240601,664,-0.4338379,-0.7630005,0.53704834
1601045240601,665,-0.4338379,-0.7630005,0.53704834
1601045240602,666,-0.4350586,-0.7620239,0.53704834
1601045240602,667,-0.4338379,-0.7647095,0.53411865
1601045240602,668,-0.4338379,-0.7630005,0.53704834
1601045240603,669,-0.4338379,-0.7647095,0.53411865
1601045240603,670,-0.43310547,-0.7649536,0.5336304
1601045240603,671,-0.4338379,-0.7647095,0.53411865
1601045240603,672,-0.43310547,-0.7649536,0.5336304
1601045240603,673,-0.4333496,-0.76397705,0.5360718
1601045240606,674,-0.4333496,-0.76397705,0.5360718
1601045240606,675,-0.43310547,-0.7649536,0.5336304
1601045240606,676,-0.4338379,-0.7647095,0.53411865
1601045240606,677,-0.43310547,-0.76348877,0.5363159
1601045240606,678,-0.4333496,-0.76397705,0.5360718
1601045240607,679,-0.43310547,-0.76348877,0.5363159
1601045240607,680,-0.43310547,-0.76348877,0.5363159
1601045240608,681,-0.43310547,-0.7649536,0.5336304
1601045240608,682,-0.4338379,-0.767395,0.53289795
1601045240608,683,-0.4338379,-0.767395,0.53289795
1601045240608,684,-0.4333496,-0.76397705,0.5360718
1601045240608,685,-0.43554688,-0.7647095,0.5319214
1601045240608,686,-0.43554688,-0.7647095,0.5319214
1601045240608,687,-0.4338379,-0.767395,0.53289795
1601045240610,688,-0.43432617,-0.7661743,0.5331421
1601045240610,689,-0.43554688,-0.7647095,0.5319214
1601045240610,690,-0.43310547,-0.76348877,0.5363159
1601045240610,691,-0.43432617,-0.7661743,0.5331421
1601045240611,692,-0.43408203,-0.7661743,0.5363159
1601045240611,693,-0.43432617,-0.7661743,0.5331421
1601045240611,694,-0.4338379,-0.767395,0.53289795
1601045240611,695,-0.43408203,-0.7642212,0.5326538
1601045240611,696,-0.43408203,-0.7661743,0.5363159
1601045240613,697,-0.43554688,-0.7647095,0.5319214
1601045240613,698,-0.43481445,-0.76397705,0.53460693
1601045240613,699,-0.43408203,-0.7661743,0.5363159
1601045240613,700,-0.43432617,-0.7661743,0.5331421
1601045240613,701,-0.43408203,-0.7642212,0.5326538
1601045240613,702,-0.43676758,-0.76519775,0.53118896
1601045240614,703,-0.43408203,-0.7642212,0.5326538
1601045240614,704,-0.43408203,-0.7661743,0.5363159
1601045240614,705,-0.43481445,-0.76397705,0.53460693
1601045240614,706,-0.43481445,-0.76397705,0.53460693
1601045240615,707,-0.43408203,-0.7642212,0.5326538
1601045240617,708,-0.43676758,-0.76519775,0.53118896
1601045240617,709,-0.43579102,-0.76446533,0.53240967
1601045240617,710,-0.43481445,-0.76397705,0.53460693
1601045240617,711,-0.43676758,-0.76519775,0.53118896
1601045240617,712,-0.43774414,-0.767395,0.5314331
1601045240617,713,-0.43579102,-0.76446533,0.53240967
1601045240618,714,-0.43676758,-0.76519775,0.53118896
1601045240618,715,-0.4338379,-0.76397705,0.5331421
1601045240618,716,-0.43579102,-0.76446533,0.53240967
1601045240618,717,-0.43579102,-0.76446533,0.53240967
1601045240618,718,-0.4362793,-0.7661743,0.5307007
1601045240618,719,-0.43774414,-0.767395,0.5314331
1601045240618,720,-0.43774414,-0.767395,0.5314331
1601045240619,721,-0.4338379,-0.76397705,0.5331421
1601045240619,722,-0.4338379,-0.76397705,0.5331421
1601045240620,723,-0.4333496,-0.7632446,0.53460693
1601045240620,724,-0.4362793,-0.7661743,0.5307007
1601045240621,725,-0.43774414,-0.767395,0.5314331
1601045240621,726,-0.4333496,-0.7632446,0.53460693
1601045240621,727,-0.4387207,-0.7642212,0.53533936
1601045240621,728,-0.4362793,-0.7661743,0.5307007
1601045240621,729,-0.4387207,-0.7642212,0.53533936
1601045240621,730,-0.4338379,-0.76397705,0.5331421
1601045240622,731,-0.43481445,-0.76519775,0.53533936
1601045240622,732,-0.4333496,-0.7632446,0.53460693
1601045240623,733,-0.4362793,-0.7661743,0.5307007
1601045240623,734,-0.43603516,-0.7625122,0.53240967
1601045240624,735,-0.4333496,-0.7632446,0.53460693
1601045240624,736,-0.43481445,-0.76519775,0.53533936
1601045240624,737,-0.4345703,-0.767395,0.5348511
1601045240625,738,-0.4387207,-0.7642212,0.53533936
1601045240625,739,-0.4387207,-0.7642212,0.53533936
1601045240626,740,-0.43115234,-0.76519775,0.5363159
1601045240626,741,-0.43603516,-0.7625122,0.53240967
1601045240626,742,-0.43481445,-0.76519775,0.53533936
1601045240626,743,-0.43481445,-0.76519775,0.53533936
1601045240627,744,-0.4345703,-0.767395,0.5348511
1601045240627,745,-0.43603516,-0.7625122,0.53240967
1601045240627,746,-0.43603516,-0.76568604,0.5343628
1601045240627,747,-0.4345703,-0.767395,0.5348511
1601045240628,748,-0.43115234,-0.76519775,0.5363159
1601045240629,749,-0.43139648,-0.76104736,0.5387573
1601045240629,750,-0.43115234,-0.76519775,0.5363159
1601045240629,751,-0.43603516,-0.7625122,0.53240967
1601045240629,752,-0.43603516,-0.76568604,0.5343628
1601045240630,753,-0.43530273,-0.7683716,0.5297241
1601045240630,754,-0.43603516,-0.76568604,0.5343628
1601045240631,755,-0.4345703,-0.767395,0.5348511
1601045240631,756,-0.43139648,-0.76104736,0.5387573
1601045240631,757,-0.43530273,-0.76348877,0.5314331
1601045240631,758,-0.43139648,-0.76104736,0.5387573
1601045240631,759,-0.43115234,-0.76519775,0.5363159
1601045240632,760,-0.43530273,-0.7683716,0.5297241
1601045240632,761,-0.43530273,-0.7683716,0.5297241
1601045240632,762,-0.43603516,-0.76568604,0.5343628
1601045240633,763,-0.43530273,-0.76348877,0.5314331
1601045240633,764,-0.43530273,-0.76348877,0.5314331
1601045240633,765,-0.43139648,-0.76104736,0.5387573
1601045240633,766,-0.43530273,-0.7683716,0.5297241
1601045240634,767,-0.43530273,-0.76348877,0.5314331
1601045243131,768,-0.4350586,-0.76226807,0.5404663
1601045243131,769,-0.4350586,-0.76226807,0.5404663
1601045243133,770,-0.4350586,-0.76226807,0.5404663
1601045243133,771,-0.4350586,-0.76226807,0.5404663
1601045243133,772,-0.43530273,-0.76153564,0.5372925
1601045243133,773,-0.43530273,-0.76153564,0.5372925
1601045243135,774,-0.4362793,-0.7632446,0.53411865
1601045243135,775,-0.43530273,-0.76153564,0.5372925
1601045243135,776,-0.4362793,-0.7632446,0.53411865
1601045243135,777,-0.4362793,-0.7632446,0.53411865
1601045243135,778,-0.43603516,-0.76519775,0.53338623
1601045243135,779,-0.43603516,-0.76519775,0.53338623
1601045243136,780,-0.43530273,-0.76153564,0.5372925
1601045243136,781,-0.43530273,-0.76226807,0.54071045
1601045243136,782,-0.43603516,-0.76519775,0.53338623
1601045243137,783,-0.4362793,-0.7632446,0.53411865
1601045243137,784,-0.4345703,-0.7647095,0.5307007
1601045243137,785,-0.43530273,-0.76226807,0.54071045
1601045243144,786,-0.43530273,-0.76226807,0.54071045
1601045243147,787,-0.43603516,-0.76519775,0.53338623
1601045243147,788,-0.43164062,-0.7612915,0.5350952
1601045243148,789,-0.4345703,-0.7647095,0.5307007
1601045243148,790,-0.4345703,-0.7647095,0.5307007
1601045243148,791,-0.43530273,-0.76226807,0.54071045
1601045243148,792,-0.43164062,-0.7612915,0.5350952
1601045243148,793,-0.4326172,-0.7637329,0.53900146
1601045243148,794,-0.43164062,-0.7612915,0.5350952
1601045243148,795,-0.4345703,-0.7647095,0.5307007
1601045243148,796,-0.4326172,-0.7637329,0.53900146
1601045243149,797,-0.43359375,-0.7661743,0.53704834
1601045243150,798,-0.43359375,-0.7661743,0.53704834
1601045243151,799,-0.4326172,-0.7637329,0.53900146
1601045243151,800,-0.43359375,-0.76031494,0.53704834
1601045243151,801,-0.43164062,-0.7612915,0.5350952
1601045243152,802,-0.43359375,-0.7661743,0.53704834
1601045243153,803,-0.43359375,-0.76031494,0.53704834
1601045243153,804,-0.4326172,-0.7637329,0.53900146
1601045243153,805,-0.43359375,-0.76031494,0.53704834
1601045243153,806,-0.43603516,-0.7654419,0.53778076
1601045243154,807,-0.43359375,-0.7661743,0.53704834
1601045243155,808,-0.43603516,-0.7654419,0.53778076
1601045243155,809,-0.43359375,-0.76031494,0.53704834
1601045243157,810,-0.43603516,-0.7654419,0.53778076
1601045243158,811,-0.43603516,-0.7654419,0.53778076
1601045243158,812,-0.4338379,-0.7647095,0.5348511
1601045243159,813,-0.4338379,-0.7647095,0.5348511
1601045243159,814,-0.43359375,-0.7625122,0.53533936
1601045243159,815,-0.4338379,-0.7647095,0.5348511
1601045243161,816,-0.43359375,-0.7625122,0.53533936
1601045243161,817,-0.4338379,-0.7647095,0.5348511
1601045243161,818,-0.43359375,-0.7625122,0.53533936
1601045243161,819,-0.4338379,-0.76226807,0.5326538
1601045243162,820,-0.43359375,-0.7625122,0.53533936
1601045243163,821,-0.4338379,-0.76226807,0.5326538
1601045243164,822,-0.43579102,-0.76568604,0.5363159
1601045243164,823,-0.4338379,-0.76226807,0.5326538
1601045243164,824,-0.43579102,-0.76568604,0.5363159
1601045243165,825,-0.43359375,-0.7630005,0.53118896
1601045243166,826,-0.43359375,-0.7630005,0.53118896
1601045243166,827,-0.4338379,-0.76226807,0.5326538
1601045243166,828,-0.43579102,-0.76568604,0.5363159
1601045243168,829,-0.4350586,-0.7637329,0.5338745
1601045243168,830,-0.4350586,-0.7637329,0.5338745
1601045243170,831,-0.43530273,-0.7600708,0.53460693
1601045243170,832,-0.43530273,-0.7600708,0.53460693
1601045243172,833,-0.43554688,-0.7661743,0.5336304
1601045243172,834,-0.43554688,-0.7661743,0.5336304
1601045243172,835,-0.43579102,-0.76568604,0.5363159
1601045243172,836,-0.4338379,-0.76446533,0.5350952
1601045243172,837,-0.43359375,-0.7630005,0.53118896
1601045243179,838,-0.43359375,-0.7630005,0.53118896
1601045243179,839,-0.4350586,-0.7637329,0.5338745
1601045243181,840,-0.4338379,-0.76446533,0.5350952
1601045243182,841,-0.43530273,-0.7600708,0.53460693
1601045243182,842,-0.43530273,-0.7642212,0.53411865
1601045243182,843,-0.43530273,-0.7642212,0.53411865
1601045243182,844,-0.43554688,-0.7661743,0.5336304
1601045243182,845,-0.4350586,-0.7637329,0.5338745
1601045243182,846,-0.43603516,-0.76568604,0.5314331
1601045243182,847,-0.4338379,-0.76446533,0.5350952
1601045243182,848,-0.43725586,-0.7666626,0.5307007
1601045243183,849,-0.43530273,-0.7642212,0.53411865
1601045243183,850,-0.43603516,-0.76568604,0.5314331
1601045243183,851,-0.43603516,-0.76568604,0.5314331
1601045243184,852,-0.43652344,-0.76348877,0.53582764
1601045243184,853,-0.43530273,-0.7600708,0.53460693
1601045243184,854,-0.43725586,-0.7666626,0.5307007
1601045243185,855,-0.43725586,-0.7666626,0.5307007
1601045243186,856,-0.43554688,-0.7661743,0.5336304
1601045243186,857,-0.43774414,-0.7659302,0.5314331
1601045243186,858,-0.4338379,-0.76446533,0.5350952
1601045243187,859,-0.43652344,-0.76348877,0.53582764
1601045243187,860,-0.43652344,-0.76348877,0.53582764
1601045243188,861,-0.43066406,-0.7642212,0.5319214
1601045243188,862,-0.43530273,-0.7642212,0.53411865
1601045243195,863,-0.43774414,-0.7659302,0.5314331
1601045243196,864,-0.43774414,-0.7659302,0.5314331
1601045243196,865,-0.43066406,-0.7642212,0.5319214
1601045243196,866,-0.43603516,-0.76568604,0.5314331
1601045243196,867,-0.43066406,-0.7642212,0.5319214
1601045243196,868,-0.43530273,-0.7642212,0.5336304
1601045243198,869,-0.43725586,-0.7666626,0.5307007
1601045243198,870,-0.43530273,-0.7642212,0.5336304
1601045243199,871,-0.4338379,-0.7632446,0.53118896
1601045243200,872,-0.43530273,-0.7642212,0.5336304
1601045243200,873,-0.43652344,-0.76348877,0.53582764
1601045243200,874,-0.4338379,-0.7632446,0.53118896
1601045243200,875,-0.43774414,-0.7659302,0.5314331
1601045243200,876,-0.4350586,-0.7666626,0.53411865
1601045243200,877,-0.4350586,-0.7666626,0.53411865
1601045243200,878,-0.43066406,-0.7642212,0.5319214
1601045243201,879,-0.4338379,-0.7632446,0.53118896
1601045243201,880,-0.43530273,-0.7642212,0.5336304
1601045243201,881,-0.43237305,-0.7642212,0.53289795
1601045243201,882,-0.43237305,-0.7642212,0.53289795
1601045243201,883,-0.4338379,-0.7632446,0.53118896
1601045243204,884,-0.43774414,-0.76568604,0.5348511
1601045243204,885,-0.4350586,-0.7666626,0.53411865
1601045243204,886,-0.43774414,-0.76568604,0.5348511
1601045243205,887,-0.4350586,-0.7666626,0.53411865
1601045243205,888,-0.4350586,-0.7659302,0.53411865
1601045243205,889,-0.4350586,-0.7659302,0.53411865
1601045243205,890,-0.43237305,-0.7642212,0.53289795
1601045243205,891,-0.43237305,-0.7642212,0.53289795
1601045243206,892,-0.43774414,-0.76568604,0.5348511
1601045243212,893,-0.43774414,-0.76568604,0.5348511
1601045243213,894,-0.4350586,-0.7659302,0.53411865
1601045243215,895,-0.4350586,-0.7659302,0.53411865
1601045245857,896,-0.43530273,-0.76275635,0.5360718
1601045245858,897,-0.43530273,-0.76275635,0.5360718
1601045245861,898,-0.43530273,-0.76275635,0.5360718
1601045245861,899,-0.43554688,-0.7608032,0.5355835
1601045245862,900,-0.43554688,-0.7608032,0.5355835
1601045245862,901,-0.43530273,-0.76275635,0.5360718
1601045245865,902,-0.4338379,-0.76348877,0.53338623
1601045245865,903,-0.43554688,-0.7608032,0.5355835
1601045245865,904,-0.4338379,-0.76348877,0.53338623
1601045245867,905,-0.43554688,-0.7608032,0.5355835
1601045245867,906,-0.4345703,-0.76690674,0.53411865
1601045245868,907,-0.4345703,-0.76690674,0.53411865
1601045245868,908,-0.4338379,-0.76348877,0.53338623
1601045245871,909,-0.43408203,-0.7605591,0.53411865
1601045245871,910,-0.4338379,-0.76348877,0.53338623
1601045245871,911,-0.4345703,-0.76690674,0.53411865
1601045245871,912,-0.4350586,-0.76348877,0.53582764
1601045245871,913,-0.43408203,-0.7605591,0.53411865
1601045245872,914,-0.4345703,-0.76690674,0.53411865
1601045245873,915,-0.43408203,-0.7605591,0.53411865
1601045245874,916,-0.43408203,-0.7605591,0.53411865
1601045245874,917,-0.4350586,-0.76348877,0.53582764
1601045245874,918,-0.43652344,-0.76763916,0.5326538
1601045245874,919,-0.4350586,-0.76348877,0.53582764
1601045245875,920,-0.4350586,-0.76348877,0.53582764
1601045245876,921,-0.43652344,-0.76763916,0.5326538
1601045245876,922,-0.43652344,-0.76763916,0.5326538
1601045245876,923,-0.43652344,-0.76763916,0.5326538
1601045245876,924,-0.4338379,-0.767395,0.53289795
1601045245877,925,-0.4338379,-0.767395,0.53289795
1601045245877,926,-0.4338379,-0.767395,0.53289795
1601045245878,927,-0.4321289,-0.7625122,0.5331421
1601045245879,928,-0.4321289,-0.7625122,0.5331421
1601045245881,929,-0.4338379,-0.767395,0.53289795
1601045245881,930,-0.4321289,-0.7625122,0.5331421
1601045245881,931,-0.4345703,-0.7637329,0.5363159
1601045245881,932,-0.4345703,-0.7637329,0.5363159
1601045245883,933,-0.4345703,-0.7637329,0.5363159
1601045245883,934,-0.42919922,-0.7647095,0.53338623
1601045245883,935,-0.4321289,-0.7625122,0.5331421
1601045245883,936,-0.42919922,-0.7647095,0.53338623
1601045245883,937,-0.43139648,-0.7654419,0.5331421
1601045245884,938,-0.42919922,-0.7647095,0.53338623
1601045245885,939,-0.4345703,-0.7637329,0.5363159
1601045245887,940,-0.43139648,-0.7654419,0.5331421
1601045245887,941,-0.43164062,-0.7678833,0.53338623
1601045245888,942,-0.43139648,-0.7654419,0.5331421
1601045245888,943,-0.42919922,-0.7647095,0.53338623
1601045245888,944,-0.43164062,-0.7678833,0.53338623
1601045245889,945,-0.43164062,-0.7678833,0.53338623
1601045245891,946,-0.4350586,-0.76812744,0.5321655
1601045245891,947,-0.4350586,-0.76812744,0.5321655
1601045245891,948,-0.43139648,-0.7654419,0.5331421
1601045245891,949,-0.4350586,-0.76812744,0.5321655
1601045245891,950,-0.43164062,-0.7642212,0.53289795
1601045245893,951,-0.43164062,-0.7678833,0.53338623
1601045245893,952,-0.43164062,-0.7642212,0.53289795
1601045245893,953,-0.4333496,-0.7654419,0.53460693
1601045245894,954,-0.4333496,-0.7654419,0.53460693
1601045245894,955,-0.43481445,-0.76885986,0.52996826
1601045245895,956,-0.4350586,-0.76812744,0.5321655
1601045245895,957,-0.43164062,-0.7642212,0.53289795
1601045245896,958,-0.43481445,-0.76885986,0.52996826
1601045245898,959,-0.4333496,-0.7654419,0.53460693
1601045245898,960,-0.43164062,-0.7642212,0.53289795
1601045245898,961,-0.43286133,-0.76397705,0.5326538
1601045245898,962,-0.43286133,-0.76397705,0.5326538
1601045245898,963,-0.43481445,-0.76885986,0.52996826
1601045245898,964,-0.4333496,-0.7654419,0.53460693
1601045245899,965,-0.43286133,-0.7659302,0.53460693
1601045245901,966,-0.43286133,-0.7659302,0.53460693
1601045245901,967,-0.4345703,-0.76568604,0.5307007
1601045245901,968,-0.43481445,-0.76885986,0.52996826
1601045245902,969,-0.4345703,-0.76568604,0.5307007
1601045245906,970,-0.43286133,-0.76397705,0.5326538
1601045245907,971,-0.43359375,-0.76812744,0.5319214
1601045245907,972,-0.43286133,-0.76397705,0.5326538
1601045245907,973,-0.43359375,-0.76812744,0.5319214
1601045245907,974,-0.43286133,-0.7659302,0.53460693
1601045245907,975,-0.43701172,-0.7620239,0.53289795
1601045245908,976,-0.43286133,-0.7659302,0.53460693
1601045245908,977,-0.43701172,-0.7620239,0.53289795
1601045245908,978,-0.43530273,-0.76446533,0.53533936
1601045245909,979,-0.4345703,-0.76568604,0.5307007
1601045245910,980,-0.43530273,-0.76446533,0.53533936
1601045245910,981,-0.43310547,-0.7686157,0.5336304
1601045245910,982,-0.43359375,-0.76812744,0.5319214
1601045245911,983,-0.43701172,-0.7620239,0.53289795
1601045245911,984,-0.43310547,-0.7686157,0.5336304
1601045245912,985,-0.43530273,-0.7649536,0.53411865
1601045245913,986,-0.43530273,-0.76446533,0.53533936
1601045245913,987,-0.43530273,-0.7649536,0.53411865
1601045245913,988,-0.4345703,-0.76568604,0.5307007
1601045245913,989,-0.43359375,-0.76812744,0.5319214
1601045245914,990,-0.43310547,-0.7686157,0.5336304
1601045245914,991,-0.43652344,-0.76226807,0.53460693
1601045245915,992,-0.43701172,-0.7620239,0.53289795
1601045245915,993,-0.43579102,-0.77008057,0.52923584
1601045245915,994,-0.43530273,-0.7649536,0.53411865
1601045245916,995,-0.43530273,-0.76446533,0.53533936
1601045245917,996,-0.43652344,-0.76226807,0.53460693
1601045245919,997,-0.43652344,-0.76226807,0.53460693
1601045245919,998,-0.43579102,-0.77008057,0.52923584
1601045245919,999,-0.43408203,-0.7661743,0.53118896
1601045245919,1000,-0.43579102,-0.77008057,0.52923584
1601045245919,1001,-0.43310547,-0.7686157,0.5336304
1601045245919,1002,-0.43408203,-0.7661743,0.53118896
1601045245919,1003,-0.4350586,-0.7625122,0.53460693
1601045245920,1004,-0.43530273,-0.7649536,0.53411865
1601045245920,1005,-0.4350586,-0.7625122,0.53460693
1601045245921,1006,-0.43408203,-0.7661743,0.53118896
1601045245921,1007,-0.43725586,-0.7686157,0.5326538
1601045245921,1008,-0.43652344,-0.76226807,0.53460693
1601045245922,1009,-0.4350586,-0.7625122,0.53460693
1601045245922,1010,-0.43725586,-0.7686157,0.5326538
1601045245922,1011,-0.43725586,-0.7686157,0.5326538
1601045245923,1012,-0.43579102,-0.77008057,0.52923584
1601045245923,1013,-0.43432617,-0.7698364,0.5314331
1601045245923,1014,-0.43432617,-0.7698364,0.5314331
1601045245924,1015,-0.43579102,-0.7678833,0.53167725
1601045245925,1016,-0.43579102,-0.7678833,0.53167725
1601045245926,1017,-0.43432617,-0.7698364,0.5314331
1601045245926,1018,-0.43408203,-0.7661743,0.53118896
1601045245928,1019,-0.43579102,-0.7678833,0.53167725
1601045245928,1020,-0.4350586,-0.7625122,0.53460693
1601045245929,1021,-0.43725586,-0.7686157,0.5326538
1601045245929,1022,-0.43432617,-0.7698364,0.5314331
1601045245931,1023,-0.43579102,-0.7678833,0.53167725
1601045248195,1024,-0.4350586,-0.7642212,0.53167725
1601045248196,1025,-0.4350586,-0.7642212,0.53167725
1601045248196,1026,-0.43554688,-0.76568604,0.53167725
1601045248196,1027,-0.4350586,-0.7642212,0.53167725
1601045248196,1028,-0.43554688,-0.76568604,0.53167725
1601045248196,1029,-0.43554688,-0.76568604,0.53167725
1601045248196,1030,-0.43579102,-0.7678833,0.5297241
1601045248197,1031,-0.43579102,-0.7678833,0.5297241
1601045248198,1032,-0.4350586,-0.7642212,0.53167725
1601045248198,1033,-0.43579102,-0.7678833,0.5297241
1601045248198,1034,-0.4362793,-0.76690674,0.53411865
1601045248198,1035,-0.4362793,-0.76690674,0.53411865
1601045248198,1036,-0.43554688,-0.76568604,0.53167725
1601045248200,1037,-0.43676758,-0.7647095,0.5343628
1601045248201,1038,-0.4362793,-0.76690674,0.53411865
1601045248201,1039,-0.43579102,-0.7678833,0.5297241
1601045248201,1040,-0.43359375,-0.76690674,0.52948
1601045248201,1041,-0.43676758,-0.7647095,0.5343628
1601045248201,1042,-0.43676758,-0.7647095,0.5343628
1601045248202,1043,-0.4321289,-0.7637329,0.5326538
1601045248202,1044,-0.43359375,-0.76690674,0.52948
1601045248202,1045,-0.4362793,-0.76690674,0.53411865
1601045248202,1046,-0.43359375,-0.76690674,0.52948
1601045248202,1047,-0.43676758,-0.7647095,0.5343628
1601045248203,1048,-0.43554688,-0.7666626,0.53167725
1601045248203,1049,-0.4321289,-0.7637329,0.5326538
1601045248208,1050,-0.43359375,-0.76690674,0.52948
1601045248208,1051,-0.43408203,-0.76275635,0.53460693
1601045248208,1052,-0.4321289,-0.7637329,0.5326538
1601045248208,1053,-0.43554688,-0.7666626,0.53167725
1601045248208,1054,-0.43237305,-0.7659302,0.5319214
1601045248208,1055,-0.43554688,-0.7666626,0.53167725
1601045248208,1056,-0.43408203,-0.76275635,0.53460693
1601045248208,1057,-0.43530273,-0.76885986,0.52874756
1601045248209,1058,-0.43237305,-0.7659302,0.5319214
1601045248209,1059,-0.4321289,-0.7637329,0.5326538
1601045248209,1060,-0.43408203,-0.76275635,0.53460693
1601045248209,1061,-0.43530273,-0.76885986,0.52874756
1601045248210,1062,-0.43554688,-0.7666626,0.53167725
1601045248211,1063,-0.43481445,-0.7605591,0.5409546
1601045248211,1064,-0.43408203,-0.76275635,0.53460693
1601045248211,1065,-0.43237305,-0.7659302,0.5319214
1601045248211,1066,-0.43579102,-0.76446533,0.5321655
1601045248211,1067,-0.43481445,-0.7605591,0.5409546
1601045248211,1068,-0.43530273,-0.76885986,0.52874756
1601045248211,1069,-0.43237305,-0.7659302,0.5319214
1601045248212,1070,-0.43579102,-0.76446533,0.5321655
1601045248212,1071,-0.43481445,-0.7605591,0.5409546
1601045248212,1072,-0.43530273,-0.76885986,0.52874756
1601045248212,1073,-0.43579102,-0.76446533,0.5321655
1601045248213,1074,-0.43286133,-0.7654419,0.5314331
1601045248214,1075,-0.43286133,-0.7654419,0.5314331
1601045248216,1076,-0.43286133,-0.7654419,0.5314331
1601045248216,1077,-0.43481445,-0.7605591,0.5409546
1601045248216,1078,-0.43701172,-0.76568604,0.5348511
1601045248220,1079,-0.43701172,-0.76568604,0.5348511
1601045248224,1080,-0.43701172,-0.76568604,0.5348511
1601045248224,1081,-0.4350586,-0.7625122,0.53533936
1601045248225,1082,-0.43579102,-0.76446533,0.5321655
1601045248225,1083,-0.4350586,-0.7625122,0.53533936
1601045248225,1084,-0.4350586,-0.7625122,0.53533936
1601045248226,1085,-0.4350586,-0.76690674,0.5331421
1601045248226,1086,-0.43286133,-0.7654419,0.5314331
1601045248226,1087,-0.4350586,-0.76690674,0.5331421
1601045248226,1088,-0.4350586,-0.76690674,0.5331421
1601045248226,1089,-0.43359375,-0.76812744,0.53118896
1601045248227,1090,-0.43701172,-0.76568604,0.5348511
1601045248227,1091,-0.43359375,-0.76812744,0.53118896
1601045248227,1092,-0.43530273,-0.7642212,0.5350952
1601045248227,1093,-0.43530273,-0.7642212,0.5350952
1601045248227,1094,-0.43432617,-0.76397705,0.5375366
1601045248227,1095,-0.43359375,-0.76812744,0.53118896
1601045248227,1096,-0.4350586,-0.7625122,0.53533936
1601045248227,1097,-0.43237305,-0.76934814,0.5338745
1601045248227,1098,-0.43530273,-0.7642212,0.5350952
1601045248228,1099,-0.4350586,-0.76690674,0.5331421
1601045248228,1100,-0.43432617,-0.76397705,0.5375366
1601045248228,1101,-0.43359375,-0.76812744,0.53118896
1601045248228,1102,-0.43432617,-0.76568604,0.5343628
1601045248228,1103,-0.43237305,-0.76934814,0.5338745
1601045248228,1104,-0.43530273,-0.7642212,0.5350952
1601045248232,1105,-0.43432617,-0.76397705,0.5375366
1601045248233,1106,-0.43432617,-0.76568604,0.5343628
1601045248233,1107,-0.43481445,-0.7642212,0.5350952
1601045248233,1108,-0.43432617,-0.76397705,0.5375366
1601045248233,1109,-0.4345703,-0.7593384,0.5331421
1601045248234,1110,-0.43481445,-0.7642212,0.5350952
1601045248234,1111,-0.43237305,-0.76934814,0.5338745
1601045248234,1112,-0.43237305,-0.76934814,0.5338745
1601045248234,1113,-0.4345703,-0.7593384,0.5331421
1601045248234,1114,-0.43359375,-0.7686157,0.5314331
1601045248234,1115,-0.43432617,-0.76568604,0.5343628
1601045248234,1116,-0.4350586,-0.76934814,0.52948
1601045248234,1117,-0.43359375,-0.7686157,0.5314331
1601045248234,1118,-0.43481445,-0.7642212,0.5350952
1601045248235,1119,-0.43432617,-0.76568604,0.5343628
1601045248235,1120,-0.4345703,-0.7593384,0.5331421
1601045248235,1121,-0.43603516,-0.7642212,0.53289795
1601045248235,1122,-0.43676758,-0.76104736,0.5404663
1601045248235,1123,-0.4350586,-0.76934814,0.52948
1601045248235,1124,-0.43554688,-0.7661743,0.53045654
1601045248235,1125,-0.43481445,-0.7642212,0.5350952
1601045248235,1126,-0.4338379,-0.7671509,0.53118896
1601045248235,1127,-0.43603516,-0.7642212,0.53289795
1601045248236,1128,-0.4345703,-0.7593384,0.5331421
1601045248236,1129,-0.43652344,-0.76275635,0.5348511
1601045248236,1130,-0.43359375,-0.7686157,0.5314331
1601045248236,1131,-0.4345703,-0.76519775,0.52948
1601045248237,1132,-0.43676758,-0.76104736,0.5404663
1601045248237,1133,-0.4350586,-0.76934814,0.52948
1601045248237,1134,-0.43359375,-0.7686157,0.5314331
1601045248237,1135,-0.43554688,-0.7661743,0.53045654
1601045248237,1136,-0.43603516,-0.7642212,0.53289795
1601045248237,1137,-0.4350586,-0.76934814,0.52948
1601045248238,1138,-0.4338379,-0.7671509,0.53118896
1601045248238,1139,-0.43676758,-0.76104736,0.5404663
1601045248238,1140,-0.43652344,-0.76275635,0.5348511
1601045248238,1141,-0.43603516,-0.7642212,0.53289795
1601045248238,1142,-0.43554688,-0.7661743,0.53045654
1601045248238,1143,-0.4345703,-0.76519775,0.52948
1601045248238,1144,-0.43676758,-0.76104736,0.5404663
1601045248238,1145,-0.43554688,-0.7661743,0.53045654
1601045248238,1146,-0.4338379,-0.7671509,0.53118896
1601045248238,1147,-0.4338379,-0.7671509,0.53118896
1601045248238,1148,-0.43652344,-0.76275635,0.5348511
1601045248238,1149,-0.43652344,-0.76275635,0.5348511
1601045248239,1150,-0.4345703,-0.76519775,0.52948
1601045248239,1151,-0.4345703,-0.76519775,0.52948
1601045250925,1152,-0.4345703,-0.76885986,0.52948
1601045250926,1153,-0.4345703,-0.76885986,0.52948
1601045250926,1154,-0.4345703,-0.76885986,0.52948
1601045250927,1155,-0.4345703,-0.76885986,0.52948
1601045250927,1156,-0.43603516,-0.76519775,0.5350952
1601045250927,1157,-0.43603516,-0.76519775,0.5350952
1601045250928,1158,-0.43603516,-0.76519775,0.5350952
1601045250928,1159,-0.4362793,-0.7666626,0.5338745
1601045250930,1160,-0.43603516,-0.76519775,0.5350952
1601045250930,1161,-0.4362793,-0.7666626,0.5338745
1601045250930,1162,-0.43579102,-0.7686157,0.53240967
1601045250932,1163,-0.4362793,-0.7666626,0.5338745
1601045250932,1164,-0.43579102,-0.7686157,0.53240967
1601045250932,1165,-0.43188477,-0.7661743,0.5326538
1601045250933,1166,-0.43579102,-0.7686157,0.53240967
1601045250933,1167,-0.4350586,-0.76397705,0.5314331
1601045250933,1168,-0.43188477,-0.7661743,0.5326538
1601045250933,1169,-0.4362793,-0.7666626,0.5338745
1601045250934,1170,-0.43530273,-0.769104,0.52948
1601045250937,1171,-0.43579102,-0.7686157,0.53240967
1601045250937,1172,-0.43188477,-0.7661743,0.5326538
1601045250937,1173,-0.4350586,-0.76397705,0.5314331
1601045250937,1174,-0.43188477,-0.7661743,0.5326538
1601045250937,1175,-0.4350586,-0.76397705,0.5314331
1601045250937,1176,-0.43530273,-0.769104,0.52948
1601045250937,1177,-0.4350586,-0.76397705,0.5314331
1601045250937,1178,-0.43652344,-0.767395,0.5326538
1601045250938,1179,-0.43530273,-0.769104,0.52948
1601045250938,1180,-0.43530273,-0.769104,0.52948
1601045250938,1181,-0.43652344,-0.767395,0.5326538
1601045250938,1182,-0.4338379,-0.7642212,0.5319214
1601045250938,1183,-0.43652344,-0.767395,0.5326538
1601045250942,1184,-0.43652344,-0.767395,0.5326538
1601045250942,1185,-0.4338379,-0.7642212,0.5319214
1601045250942,1186,-0.43432617,-0.7637329,0.53704834
1601045250942,1187,-0.4338379,-0.7642212,0.5319214
1601045250942,1188,-0.43432617,-0.7637329,0.53704834
1601045250942,1189,-0.4338379,-0.7642212,0.5319214
1601045250942,1190,-0.43310547,-0.76348877,0.53826904
1601045250942,1191,-0.43432617,-0.7637329,0.53704834
1601045250942,1192,-0.43432617,-0.7637329,0.53704834
1601045250944,1193,-0.43530273,-0.7683716,0.52386475
1601045250944,1194,-0.43310547,-0.76348877,0.53826904
1601045250945,1195,-0.43310547,-0.76348877,0.53826904
1601045250946,1196,-0.4345703,-0.7632446,0.5375366
1601045250947,1197,-0.43310547,-0.76348877,0.53826904
1601045250947,1198,-0.43530273,-0.7683716,0.52386475
1601045250950,1199,-0.43432617,-0.7620239,0.5343628
1601045250951,1200,-0.43530273,-0.7683716,0.52386475
1601045250951,1201,-0.4345703,-0.7632446,0.5375366
1601045250951,1202,-0.43530273,-0.7683716,0.52386475
1601045250952,1203,-0.43115234,-0.77349854,0.5307007
1601045250953,1204,-0.4345703,-0.7632446,0.5375366
1601045250953,1205,-0.43432617,-0.7620239,0.5343628
1601045250953,1206,-0.43481445,-0.76446533,0.53656006
1601045250954,1207,-0.4345703,-0.7632446,0.5375366
1601045250954,1208,-0.43115234,-0.77349854,0.5307007
1601045250954,1209,-0.4350586,-0.7632446,0.53460693
1601045250954,1210,-0.43432617,-0.7620239,0.5343628
1601045250954,1211,-0.43481445,-0.76446533,0.53656006
1601045250956,1212,-0.43115234,-0.77349854,0.5307007
1601045250957,1213,-0.43432617,-0.7620239,0.5343628
1601045250957,1214,-0.43481445,-0.76446533,0.53656006
1601045250957,1215,-0.43115234,-0.77349854,0.5307007
1601045250957,1216,-0.4350586,-0.7632446,0.53460693
1601045250957,1217,-0.43481445,-0.76446533,0.53656006
1601045250957,1218,-0.43603516,-0.7642212,0.53533936
1601045250958,1219,-0.4309082,-0.7649536,0.53533936
1601045250962,1220,-0.43603516,-0.7642212,0.53533936
1601045250964,1221,-0.4350586,-0.7632446,0.53460693
1601045250964,1222,-0.43530273,-0.7654419,0.5338745
1601045250964,1223,-0.4309082,-0.7649536,0.53533936
1601045250964,1224,-0.43603516,-0.7642212,0.53533936
1601045250964,1225,-0.43286133,-0.7654419,0.53533936
1601045250964,1226,-0.4350586,-0.7632446,0.53460693
1601045250964,1227,-0.43530273,-0.7654419,0.5338745
1601045250965,1228,-0.4309082,-0.7649536,0.53533936
1601045250965,1229,-0.43603516,-0.7642212,0.53533936
1601045250966,1230,-0.43286133,-0.7654419,0.53533936
1601045250966,1231,-0.4345703,-0.76568604,0.5314331
1601045250966,1232,-0.4309082,-0.7649536,0.53533936
1601045250966,1233,-0.43530273,-0.7654419,0.5338745
1601045250967,1234,-0.43676758,-0.76446533,0.5363159
1601045250967,1235,-0.4345703,-0.76568604,0.5314331
1601045250969,1236,-0.4333496,-0.76446533,0.5326538
1601045250969,1237,-0.43286133,-0.7654419,0.53533936
1601045250969,1238,-0.43530273,-0.7654419,0.5338745
1601045250969,1239,-0.43676758,-0.76446533,0.5363159
1601045250969,1240,-0.43237305,-0.76568604,0.5336304
1601045250970,1241,-0.43286133,-0.7654419,0.53533936
1601045250972,1242,-0.4345703,-0.76568604,0.5314331
1601045250972,1243,-0.43530273,-0.7654419,0.53338623
1601045250972,1244,-0.4333496,-0.76446533,0.5326538
1601045250972,1245,-0.43676758,-0.76446533,0.5363159
1601045250972,1246,-0.4345703,-0.76568604,0.5314331
1601045250972,1247,-0.43237305,-0.76568604,0.5336304
1601045250973,1248,-0.43676758,-0.76446533,0.5363159
1601045250973,1249,-0.43481445,-0.7661743,0.5338745
1601045250974,1250,-0.43530273,-0.7654419,0.53338623
1601045250974,1251,-0.4333496,-0.76446533,0.5326538
1601045250975,1252,-0.4345703,-0.76348877,0.53533936
1601045250975,1253,-0.4333496,-0.76446533,0.5326538
1601045250975,1254,-0.43481445,-0.7661743,0.5338745
1601045250978,1255,-0.43237305,-0.76568604,0.5336304
1601045250979,1256,-0.4362793,-0.7630005,0.5385132
1601045250979,1257,-0.43237305,-0.76568604,0.5336304
1601045250979,1258,-0.4345703,-0.76348877,0.53533936
1601045250979,1259,-0.43530273,-0.7661743,0.53338623
1601045250981,1260,-0.43530273,-0.7654419,0.53338623
1601045250981,1261,-0.43530273,-0.7654419,0.53338623
1601045250981,1262,-0.4362793,-0.7630005,0.5385132
1601045250982,1263,-0.43481445,-0.7661743,0.5338745
1601045250982,1264,-0.43652344,-0.7661743,0.5297241
1601045250982,1265,-0.43481445,-0.7661743,0.5338745
1601045250982,1266,-0.4345703,-0.76348877,0.53533936
1601045250984,1267,-0.43530273,-0.7661743,0.53338623
1601045250985,1268,-0.43554688,-0.7632446,0.53289795
1601045250985,1269,-0.4345703,-0.76348877,0.53533936
1601045250985,1270,-0.43652344,-0.7661743,0.5297241
1601045250985,1271,-0.4362793,-0.7630005,0.5385132
1601045250986,1272,-0.43554688,-0.7632446,0.53289795
1601045250986,1273,-0.4362793,-0.7630005,0.5385132
1601045250986,1274,-0.43530273,-0.7661743,0.53338623
1601045250987,1275,-0.43530273,-0.7661743,0.53338623
1601045250987,1276,-0.43652344,-0.7661743,0.5297241
1601045250988,1277,-0.43554688,-0.7632446,0.53289795
1601045250992,1278,-0.43652344,-0.7661743,0.5297241
1601045250993,1279,-0.43554688,-0.7632446,0.53289795
1601045253667,1280,-0.43701172,-0.7659302,0.53338623
1601045253668,1281,-0.43701172,-0.7659302,0.53338623
1601045253668,1282,-0.43701172,-0.7659302,0.53338623
1601045253668,1283,-0.43701172,-0.7659302,0.53338623
1601045253672,1284,-0.4375,-0.7630005,0.5350952
1601045253673,1285,-0.4375,-0.7630005,0.5350952
1601045253673,1286,-0.4375,-0.7630005,0.5350952
1601045253673,1287,-0.4375,-0.7630005,0.5350952
1601045253673,1288,-0.43969727,-0.76690674,0.5336304
1601045253674,1289,-0.43969727,-0.76690674,0.5336304
1601045253674,1290,-0.43969727,-0.76690674,0.5336304
1601045253674,1291,-0.43798828,-0.76031494,0.52874756
1601045253674,1292,-0.43969727,-0.76690674,0.5336304
1601045253674,1293,-0.43774414,-0.76568604,0.5331421
1601045253674,1294,-0.43798828,-0.76031494,0.52874756
1601045253674,1295,-0.43798828,-0.76031494,0.52874756
1601045253674,1296,-0.43676758,-0.7637329,0.53167725
1601045253675,1297,-0.43774414,-0.76568604,0.5331421
1601045253676,1298,-0.43798828,-0.76031494,0.52874756
1601045253676,1299,-0.43774414,-0.76568604,0.5331421
1601045253676,1300,-0.43579102,-0.7659302,0.5302124
1601045253676,1301,-0.43676758,-0.7637329,0.53167725
1601045253676,1302,-0.43676758,-0.7637329,0.53167725
1601045253676,1303,-0.43579102,-0.7659302,0.5302124
1601045253677,1304,-0.43774414,-0.76568604,0.5331421
1601045253679,1305,-0.4345703,-0.7659302,0.53289795
1601045253679,1306,-0.4345703,-0.7659302,0.53289795
1601045253679,1307,-0.43579102,-0.7659302,0.5302124
1601045253687,1308,-0.43676758,-0.7637329,0.53167725
1601045253688,1309,-0.4362793,-0.7666626,0.5270386
1601045253688,1310,-0.4362793,-0.7666626,0.5270386
1601045253688,1311,-0.43579102,-0.7659302,0.5302124
1601045253689,1312,-0.4345703,-0.7659302,0.53289795
1601045253689,1313,-0.4362793,-0.76397705,0.5321655
1601045253689,1314,-0.4345703,-0.7659302,0.53289795
1601045253689,1315,-0.4362793,-0.76397705,0.5321655
1601045253689,1316,-0.4362793,-0.7666626,0.5270386
1601045253689,1317,-0.43652344,-0.7654419,0.53289795
1601045253689,1318,-0.43652344,-0.7654419,0.53289795
1601045253690,1319,-0.4362793,-0.7666626,0.5270386
1601045253690,1320,-0.43725586,-0.767395,0.53045654
1601045253690,1321,-0.4362793,-0.76397705,0.5321655
1601045253691,1322,-0.4362793,-0.76397705,0.5321655
1601045253691,1323,-0.43652344,-0.7654419,0.53289795
1601045253691,1324,-0.43652344,-0.7654419,0.53289795
1601045253691,1325,-0.43725586,-0.7637329,0.53411865
1601045253691,1326,-0.43725586,-0.767395,0.53045654
1601045253693,1327,-0.43725586,-0.767395,0.53045654
1601045253699,1328,-0.43725586,-0.7637329,0.53411865
1601045253699,1329,-0.43603516,-0.7637329,0.52923584
1601045253699,1330,-0.43725586,-0.767395,0.53045654
1601045253700,1331,-0.43603516,-0.7637329,0.52923584
1601045253700,1332,-0.43676758,-0.7659302,0.52996826
1601045253700,1333,-0.43725586,-0.7637329,0.53411865
1601045253700,1334,-0.43725586,-0.7637329,0.53411865
1601045253700,1335,-0.43676758,-0.7659302,0.52996826
1601045253700,1336,-0.43603516,-0.7637329,0.52923584
1601045253700,1337,-0.43603516,-0.7637329,0.52923584
1601045253700,1338,-0.4362793,-0.76397705,0.5321655
1601045253701,1339,-0.43676758,-0.7659302,0.52996826
1601045253701,1340,-0.4362793,-0.76397705,0.5321655
1601045253701,1341,-0.43676758,-0.7659302,0.52996826
1601045253702,1342,-0.43554688,-0.7630005,0.5321655
1601045253702,1343,-0.43554688,-0.7630005,0.5321655
1601045253702,1344,-0.4362793,-0.76397705,0.5321655
1601045253702,1345,-0.4362793,-0.76397705,0.5321655
1601045253704,1346,-0.4345703,-0.76446533,0.5348511
1601045253704,1347,-0.43554688,-0.7630005,0.5321655
1601045253705,1348,-0.43554688,-0.7630005,0.5321655
1601045253705,1349,-0.4345703,-0.76446533,0.5348511
1601045253705,1350,-0.43603516,-0.76690674,0.52948
1601045253705,1351,-0.4345703,-0.76446533,0.5348511
1601045253705,1352,-0.43432617,-0.7617798,0.52874756
1601045253706,1353,-0.43603516,-0.76690674,0.52948
1601045253706,1354,-0.4345703,-0.76446533,0.5348511
1601045253706,1355,-0.4333496,-0.76397705,0.5331421
1601045253707,1356,-0.43603516,-0.76690674,0.52948
1601045253710,1357,-0.43603516,-0.76690674,0.52948
1601045253710,1358,-0.4387207,-0.76348877,0.5392456
1601045253711,1359,-0.43432617,-0.7617798,0.52874756
1601045253711,1360,-0.43432617,-0.76348877,0.53656006
1601045253711,1361,-0.43432617,-0.7617798,0.52874756
1601045253711,1362,-0.43579102,-0.7632446,0.5336304
1601045253714,1363,-0.43554688,-0.76812744,0.5336304
1601045253714,1364,-0.4333496,-0.76397705,0.5331421
1601045253715,1365,-0.4333496,-0.76397705,0.5331421
1601045253717,1366,-0.4387207,-0.76348877,0.5392456
1601045253717,1367,-0.43579102,-0.7576294,0.5343628
1601045253717,1368,-0.43432617,-0.7617798,0.52874756
1601045253718,1369,-0.4387207,-0.76348877,0.5392456
1601045253719,1370,-0.43432617,-0.76348877,0.53656006
1601045253719,1371,-0.43676758,-0.7649536,0.5360718
1601045253720,1372,-0.4333496,-0.76397705,0.5331421
1601045253720,1373,-0.43432617,-0.76348877,0.53656006
1601045253722,1374,-0.43579102,-0.7632446,0.5336304
1601045253724,1375,-0.43359375,-0.76812744,0.5336304
1601045253724,1376,-0.4387207,-0.76348877,0.5392456
1601045253725,1377,-0.43579102,-0.7632446,0.5336304
1601045253725,1378,-0.4345703,-0.7649536,0.5338745
1601045253726,1379,-0.43432617,-0.76348877,0.53656006
1601045253727,1380,-0.43554688,-0.76812744,0.5336304
1601045253727,1381,-0.43554688,-0.76812744,0.5336304
1601045253728,1382,-0.43579102,-0.7576294,0.5343628
1601045253728,1383,-0.43579102,-0.7632446,0.5336304
1601045253728,1384,-0.43579102,-0.7576294,0.5343628
1601045253729,1385,-0.43676758,-0.7649536,0.5360718
1601045253730,1386,-0.43676758,-0.7649536,0.5360718
1601045253732,1387,-0.43359375,-0.76812744,0.5336304
1601045253733,1388,-0.43432617,-0.76519775,0.5331421
1601045253733,1389,-0.43554688,-0.76812744,0.5336304
1601045253735,1390,-0.43359375,-0.76812744,0.5336304
1601045253735,1391,-0.43579102,-0.7576294,0.5343628
1601045253735,1392,-0.4326172,-0.76446533,0.5321655
1601045253736,1393,-0.4345703,-0.7649536,0.5338745
1601045253736,1394,-0.4345703,-0.7649536,0.5338745
1601045253736,1395,-0.43115234,-0.7637329,0.5368042
1601045253736,1396,-0.43676758,-0.7649536,0.5360718
1601045253736,1397,-0.43359375,-0.76812744,0.5336304
1601045253737,1398,-0.43432617,-0.76519775,0.5331421
1601045253738,1399,-0.4345703,-0.7649536,0.5338745
1601045253738,1400,-0.4326172,-0.76446533,0.5321655
1601045253740,1401,-0.43432617,-0.76519775,0.5331421
1601045253740,1402,-0.43432617,-0.76519775,0.5331421
1601045253740,1403,-0.43115234,-0.7637329,0.5368042
1601045253740,1404,-0.4326172,-0.76446533,0.5321655
1601045253742,1405,-0.4326172,-0.76446533,0.5321655
1601045253743,1406,-0.43115234,-0.7637329,0.5368042
1601045253743,1407,-0.43115234,-0.7637329,0.5368042
1601045256197,1408,-0.4362793,-0.7630005,0.53778076
1601045256197,1409,-0.4362793,-0.7630005,0.53778076
1601045256197,1410,-0.4362793,-0.7630005,0.53778076
1601045256197,1411,-0.43359375,-0.7625122,0.5355835
1601045256197,1412,-0.43359375,-0.7625122,0.5355835
1601045256197,1413,-0.43359375,-0.7625122,0.5355835
1601045256198,1414,-0.4362793,-0.7630005,0.53778076
1601045256198,1415,-0.43188477,-0.7647095,0.5331421
1601045256199,1416,-0.43188477,-0.7647095,0.5331421
1601045256199,1417,-0.43188477,-0.7647095,0.5331421
1601045256200,1418,-0.43969727,-0.76104736,0.53704834
1601045256200,1419,-0.43969727,-0.76104736,0.53704834
1601045256201,1420,-0.43969727,-0.76104736,0.53704834
1601045256202,1421,-0.43359375,-0.7625122,0.5355835
1601045256202,1422,-0.43530273,-0.76226807,0.5319214
1601045256202,1423,-0.43530273,-0.76226807,0.5319214
1601045256205,1424,-0.43188477,-0.7647095,0.5331421
1601045256206,1425,-0.43530273,-0.76812744,0.5309448
1601045256206,1426,-0.43530273,-0.76226807,0.5319214
1601045256206,1427,-0.43530273,-0.76812744,0.5309448
1601045256206,1428,-0.43969727,-0.76104736,0.53704834
1601045256206,1429,-0.43530273,-0.7642212,0.5331421
1601045256206,1430,-0.43530273,-0.7642212,0.5331421
1601045256208,1431,-0.43530273,-0.76226807,0.5319214
1601045256208,1432,-0.43530273,-0.76812744,0.5309448
1601045256212,1433,-0.43530273,-0.76812744,0.5309448
1601045256212,1434,-0.43408203,-0.7647095,0.5372925
1601045256212,1435,-0.43530273,-0.7642212,0.5331421
1601045256212,1436,-0.43725586,-0.7686157,0.5297241
1601045256213,1437,-0.43408203,-0.7647095,0.5372925
1601045256213,1438,-0.43408203,-0.7647095,0.5372925
1601045256213,1439,-0.43530273,-0.7642212,0.5331421
1601045256213,1440,-0.43481445,-0.7647095,0.5302124
1601045256214,1441,-0.43725586,-0.7686157,0.5297241
1601045256215,1442,-0.43725586,-0.7686157,0.5297241
1601045256215,1443,-0.43481445,-0.7647095,0.5302124
1601045256215,1444,-0.43408203,-0.7647095,0.5372925
1601045256215,1445,-0.43798828,-0.7625122,0.5355835
1601045256216,1446,-0.43798828,-0.7625122,0.5355835
1601045256216,1447,-0.43481445,-0.7647095,0.5302124
1601045256216,1448,-0.4387207,-0.7661743,0.53411865
1601045256216,1449,-0.4387207,-0.7661743,0.53411865
1601045256217,1450,-0.43701172,-0.7649536,0.5302124
1601045256218,1451,-0.43701172,-0.7649536,0.5302124
1601045256218,1452,-0.43798828,-0.7625122,0.5355835
1601045256218,1453,-0.43725586,-0.7686157,0.5297241
1601045256219,1454,-0.4387207,-0.767395,0.52923584
1601045256221,1455,-0.4387207,-0.767395,0.52923584
1601045256221,1456,-0.43481445,-0.7647095,0.5302124
1601045256222,1457,-0.43774414,-0.7659302,0.52996826
1601045256222,1458,-0.4387207,-0.7661743,0.53411865
1601045256222,1459,-0.43798828,-0.7666626,0.53167725
1601045256223,1460,-0.43774414,-0.7659302,0.52996826
1601045256225,1461,-0.43701172,-0.7649536,0.5302124
1601045256226,1462,-0.43798828,-0.7625122,0.5355835
1601045256226,1463,-0.43798828,-0.7666626,0.53167725
1601045256226,1464,-0.4387207,-0.767395,0.52923584
1601045256226,1465,-0.4362793,-0.769104,0.52948
1601045256227,1466,-0.4387207,-0.7661743,0.53411865
1601045256227,1467,-0.4362793,-0.769104,0.52948
1601045256228,1468,-0.43774414,-0.7659302,0.52996826
1601045256228,1469,-0.43676758,-0.7659302,0.5297241
1601045256228,1470,-0.43701172,-0.7649536,0.5302124
1601045256229,1471,-0.43676758,-0.7659302,0.5297241
1601045256229,1472,-0.4387207,-0.767395,0.52923584
1601045256230,1473,-0.43945312,-0.7661743,0.5285034
1601045256230,1474,-0.43945312,-0.7661743,0.5285034
1601045256231,1475,-0.43798828,-0.7666626,0.53167725
1601045256231,1476,-0.43774414,-0.7659302,0.52996826
1601045256231,1477,-0.43676758,-0.7632446,0.5309448
1601045256231,1478,-0.43676758,-0.7632446,0.5309448
1601045256232,1479,-0.43798828,-0.7666626,0.53167725
1601045256232,1480,-0.43823242,-0.76568604,0.53118896
1601045256235,1481,-0.43823242,-0.76568604,0.53118896
1601045256235,1482,-0.4362793,-0.769104,0.52948
1601045256235,1483,-0.4362793,-0.769104,0.52948
1601045256235,1484,-0.43725586,-0.76885986,0.53289795
1601045256235,1485,-0.43725586,-0.76885986,0.53289795
1601045256238,1486,-0.43676758,-0.7659302,0.5297241
1601045256238,1487,-0.43579102,-0.7654419,0.5314331
1601045256239,1488,-0.43676758,-0.7659302,0.5297241
1601045256239,1489,-0.43579102,-0.7654419,0.5314331
1601045256240,1490,-0.43945312,-0.7661743,0.5285034
1601045256240,1491,-0.43676758,-0.7632446,0.5309448
1601045256240,1492,-0.43823242,-0.76446533,0.5282593
1601045256241,1493,-0.43945312,-0.7661743,0.5285034
1601045256242,1494,-0.43823242,-0.76446533,0.5282593
1601045256242,1495,-0.43823242,-0.76568604,0.53118896
1601045256242,1496,-0.4387207,-0.76226807,0.5363159
1601045256242,1497,-0.4387207,-0.76226807,0.5363159
1601045256242,1498,-0.43676758,-0.7632446,0.5309448
1601045256243,1499,-0.43823242,-0.76568604,0.53118896
1601045256243,1500,-0.43603516,-0.76446533,0.5319214
1601045256243,1501,-0.43725586,-0.76885986,0.53289795
1601045256243,1502,-0.43603516,-0.76446533,0.5319214
1601045256245,1503,-0.4362793,-0.76812744,0.5289917
1601045256245,1504,-0.43725586,-0.76885986,0.53289795
1601045256245,1505,-0.43579102,-0.7654419,0.5314331
1601045256245,1506,-0.43823242,-0.76446533,0.5282593
1601045256245,1507,-0.4362793,-0.76812744,0.5289917
1601045256247,1508,-0.43579102,-0.7654419,0.5314331
1601045256249,1509,-0.4387207,-0.76226807,0.5363159
1601045256249,1510,-0.43725586,-0.76446533,0.53338623
1601045256249,1511,-0.43725586,-0.76446533,0.53338623
1601045256249,1512,-0.43603516,-0.76446533,0.5319214
1601045256249,1513,-0.43823242,-0.76446533,0.5282593
1601045256249,1514,-0.43554688,-0.769104,0.53045654
1601045256249,1515,-0.43554688,-0.769104,0.53045654
1601045256250,1516,-0.4387207,-0.76226807,0.5363159
1601045256250,1517,-0.4362793,-0.76812744,0.5289917
1601045256250,1518,-0.43164062,-0.7671509,0.53045654
1601045256250,1519,-0.43164062,-0.7671509,0.53045654
1601045256250,1520,-0.43725586,-0.76446533,0.53338623
1601045256251,1521,-0.43554688,-0.769104,0.53045654
1601045256251,1522,-0.43481445,-0.76885986,0.53167725
1601045256251,1523,-0.43481445,-0.76885986,0.53167725
1601045256252,1524,-0.43603516,-0.76446533,0.5319214
1601045256253,1525,-0.4345703,-0.7683716,0.5338745
1601045256253,1526,-0.43164062,-0.7671509,0.53045654
1601045256253,1527,-0.4345703,-0.7683716,0.5338745
1601045256253,1528,-0.4362793,-0.76812744,0.5289917
1601045256256,1529,-0.43481445,-0.76885986,0.53167725
1601045256256,1530,-0.43725586,-0.76446533,0.53338623
1601045256256,1531,-0.4345703,-0.7683716,0.5338745
1601045256256,1532,-0.43554688,-0.769104,0.53045654
1601045256256,1533,-0.43164062,-0.7671509,0.53045654
1601045256256,1534,-0.43481445,-0.76885986,0.53167725
1601045256256,1535,-0.4345703,-0.7683716,0.5338745
