# Sensor position: Wrist
# Sensor side: Left
# Activity type: Descending stairs
# Activity code: 13
# Subject id: s1701688
timestamp,seq,accel_x,accel_y,accel_z
1601058746026,0,-0.97631836,0.2098999,0.199646
1601058746027,1,-0.9645996,0.2008667,0.2218628
1601058746029,2,-0.9641113,0.19647217,0.21820068
1601058746031,3,-0.96435547,0.22601318,0.21844482
1601058746036,4,-0.9567871,0.2501831,0.1984253
1601058746037,5,-0.96972656,0.26409912,0.20721436
1601058746039,6,-1.0090332,0.230896,0.20355225
1601058746040,7,-0.9958496,0.22357178,0.21624756
1601058746042,8,-0.9772949,0.20697021,0.21795654
1601058746044,9,-0.96484375,0.19915771,0.21380615
1601058746048,10,-0.9692383,0.2020874,0.19720459
1601058746048,11,-0.967041,0.21087646,0.18621826
1601058746049,12,-0.96606445,0.22259521,0.17767334
1601058746054,13,-0.9719238,0.23577881,0.18035889
1601058746055,14,-0.97753906,0.24359131,0.19647217
1601058746056,15,-0.9770508,0.24432373,0.2177124
1601058746057,16,-0.9777832,0.24017334,0.22772217
1601058746058,17,-0.97021484,0.23529053,0.2230835
1601058746058,18,-0.9711914,0.22357178,0.20794678
1601058746059,19,-0.970459,0.22454834,0.18109131
1601058746061,20,-0.96533203,0.2218628,0.16912842
1601058746062,21,-0.9682617,0.22088623,0.17572021
1601058746064,22,-0.98291016,0.21697998,0.19500732
1601058746065,23,-0.97021484,0.21063232,0.21282959
1601058746065,24,-0.9716797,0.21258545,0.23187256
1601058746069,25,-0.98168945,0.2164917,0.21429443
1601058746070,26,-0.9489746,0.23773193,0.17938232
1601058746070,27,-0.92407227,0.36590576,0.18865967
1601058746073,28,-0.9523926,0.5883179,0.30511475
1601058746074,29,-0.8977051,0.6051636,0.33026123
1601058746074,30,-0.99316406,0.621521,0.29119873
1601058746074,31,-0.89819336,0.5973511,0.16864014
1601058748366,32,-0.5793457,0.37469482,0.15106201
1601058748369,33,-0.29003906,0.29071045,0.10369873
1601058748370,34,-0.3017578,0.27459717,0.1293335
1601058748374,35,-0.529541,0.36932373,0.1552124
1601058748376,36,-1.0490723,0.3217163,0.17034912
1601058748378,37,-1.9387207,0.55926514,0.1696167
1601058748380,38,-1.5212402,0.3546753,0.3427124
1601058748383,39,-1.0031738,0.29193115,0.32855225
1601058748385,40,-0.626709,0.36541748,0.3468628
1601058748386,41,-0.5800781,0.2994995,0.26483154
1601058748388,42,-0.83691406,0.25213623,0.14593506
1601058748389,43,-1.1723633,0.30169678,0.19232178
1601058748391,44,-2.0,0.45819092,0.14471436
1601058748396,45,-1.5634766,0.19622803,0.08270264
1601058748397,46,-0.92578125,0.28216553,0.04071045
1601058748399,47,-0.5151367,0.15570068,0.035339355
1601058748400,48,-0.34521484,0.04876709,0.066345215
1601058748400,49,-0.5031738,0.2387085,0.12591553
1601058748401,50,-1.088623,0.45062256,0.17254639
1601058748402,51,-1.4936523,0.56585693,0.23968506
1601058748403,52,-1.5666504,0.65179443,0.3151245
1601058748405,53,-1.0073242,0.2645874,0.27313232
1601058748406,54,-0.6022949,0.25750732,0.35662842
1601058748407,55,-0.5913086,0.33148193,0.322937
1601058748407,56,-0.8535156,0.30023193,0.2999878
1601058748408,57,-1.3693848,0.27386475,0.291687
1601058748409,58,-1.951416,0.45355225,0.3234253
1601058748410,59,-1.4230957,0.24578857,0.14837646
1601058748412,60,-0.8989258,0.20770264,0.08026123
1601058748415,61,-0.6298828,0.22723389,0.05267334
1601058748419,62,-0.4111328,0.10736084,0.06707764
1601058748419,63,-0.23168945,0.23162842,0.18914795
1601058750907,64,-0.5656738,0.61712646,0.32977295
1601058750908,65,-1.1101074,0.55511475,0.3546753
1601058750912,66,-1.5837402,0.55511475,0.36541748
1601058750915,67,-1.1738281,0.3842163,0.28631592
1601058750916,68,-0.7480469,0.3312378,0.25042725
1601058750918,69,-0.638916,0.30438232,0.24212646
1601058750919,70,-0.8208008,0.33343506,0.21697998
1601058750919,71,-1.0666504,0.40374756,0.26507568
1601058750920,72,-1.6367188,0.418396,0.34417725
1601058750921,73,-1.7241211,0.3480835,0.25091553
1601058750922,74,-1.0632324,0.2584839,0.21331787
1601058750922,75,-0.61938477,0.20428467,0.1618042
1601058750924,76,-0.44433594,0.090026855,0.10028076
1601058750925,77,-0.44970703,0.1251831,0.097351074
1601058750926,78,-0.7175293,0.29925537,0.16229248
1601058750926,79,-1.236084,0.5385132,0.17449951
1601058750927,80,-1.4602051,0.6947632,0.20941162
1601058750928,81,-1.2810059,0.44476318,0.21966553
1601058750929,82,-0.84814453,0.46453857,0.09588623
1601058750930,83,-0.7602539,0.4237671,0.097839355
1601058750934,84,-0.77612305,0.41741943,0.08148193
1601058750934,85,-0.98046875,0.39837646,0.057800293
1601058750934,86,-1.4553223,0.43206787,0.13372803
1601058750934,87,-1.578125,0.43499756,0.47601318
1601058750936,88,-1.3981934,0.3829956,0.49945068
1601058750937,89,-0.89941406,0.21697998,0.42596436
1601058750938,90,-0.68774414,0.20794678,0.28363037
1601058750939,91,-0.7285156,0.19085693,0.14837646
1601058750939,92,-0.74365234,0.24700928,0.10760498
1601058750941,93,-1.1352539,0.3475952,0.055603027
1601058750941,94,-1.2399902,0.37957764,0.11639404
1601058750942,95,-1.2741699,0.2897339,0.09857178
1601058753635,96,-1.1040039,0.30828857,0.04852295
1601058753641,97,-0.97143555,0.34222412,0.06365967
1601058753645,98,-0.91967773,0.36175537,0.07684326
1601058753647,99,-0.9614258,0.41888428,0.10687256
1601058753650,100,-0.93603516,0.4616089,0.21453857
1601058753655,101,-1.0817871,0.5050659,0.39031982
1601058753658,102,-1.1674805,0.32000732,0.45648193
1601058753661,103,-1.5275879,0.22650146,0.3270874
1601058753664,104,-1.1130371,0.18206787,0.21966553
1601058753669,105,-0.76782227,0.21209717,0.1408081
1601058753671,106,-0.5698242,0.1473999,0.1317749
1601058753675,107,-0.49438477,0.16619873,0.15228271
1601058753676,108,-0.4819336,0.25604248,0.21917725
1601058753677,109,-0.82373047,0.45965576,0.2411499
1601058753678,110,-1.5153809,0.559021,0.25579834
1601058753679,111,-1.4331055,0.44354248,0.309021
1601058753680,112,-1.0461426,0.34124756,0.2230835
1601058753681,113,-0.5900879,0.38397217,0.25091553
1601058753682,114,-0.53564453,0.40252686,0.30804443
1601058753684,115,-0.91967773,0.40447998,0.39154053
1601058753685,116,-1.8210449,0.46453857,0.40081787
1601058753686,117,-1.7421875,0.2399292,0.24456787
1601058753687,118,-1.182373,0.24407959,0.15008545
1601058753688,119,-0.7558594,0.1798706,0.105163574
1601058753689,120,-0.5197754,0.09246826,0.028503418
1601058753691,121,-0.5012207,0.17230225,0.08099365
1601058753692,122,-0.7241211,0.2897339,0.20452881
1601058753694,123,-1.2160645,0.46697998,0.30096436
1601058753696,124,-1.5559082,0.5866089,0.5206909
1601058753696,125,-1.1970215,0.29412842,0.36590576
1601058753697,126,-0.8547363,0.27557373,0.3156128
1601058753698,127,-0.6633301,0.36834717,0.33319092
1601058755971,128,-0.5119629,0.3270874,0.26019287
1601058755972,129,-1.0180664,0.36444092,0.2904663
1601058755976,130,-1.765625,0.39837646,0.17938232
1601058755978,131,-1.7661133,0.31756592,0.24993896
1601058755981,132,-1.1726074,0.2543335,0.18255615
1601058755985,133,-0.79907227,0.1642456,0.20013428
1601058755988,134,-0.63305664,0.059265137,0.15887451
1601058755990,135,-0.48242188,0.113464355,0.10272217
1601058755994,136,-0.6604004,0.38616943,0.16400146
1601058755995,137,-1.394043,0.49383545,0.2850952
1601058755997,138,-1.6740723,0.4545288,0.46063232
1601058755998,139,-1.1391602,0.44744873,0.28851318
1601058756003,140,-0.7663574,0.3209839,0.34320068
1601058756003,141,-0.60058594,0.37664795,0.33148193
1601058756005,142,-0.7351074,0.33221436,0.27142334
1601058756007,143,-1.609375,0.2946167,0.152771
1601058756009,144,-1.9003906,0.28997803,0.23895264
1601058756013,145,-1.2675781,0.215271,0.20916748
1601058756014,146,-0.8796387,0.31414795,0.2111206
1601058756016,147,-0.77124023,0.21307373,0.18817139
1601058756019,148,-0.6123047,0.13519287,0.12908936
1601058756021,149,-0.43359375,0.23309326,0.15911865
1601058756022,150,-0.5703125,0.6312866,0.3505249
1601058756024,151,-0.8569336,0.9718628,0.36566162
1601058756025,152,-0.8869629,0.8912964,0.06536865
1601058756026,153,-0.6945801,0.6688843,-0.01763916
1601058756027,154,-0.62402344,0.24578857,0.08441162
1601058756028,155,-0.84375,0.4850464,0.06756592
1601058756029,156,-0.9301758,0.3973999,0.0524292
1601058756031,157,-1.3381348,0.49920654,0.15496826
1601058756034,158,-1.784668,0.559021,0.15887451
1601058756035,159,-1.4082031,0.5338745,0.34466553
1601058758707,160,-1.050293,0.3998413,0.3678589
1601058758710,161,-0.78466797,0.199646,0.29315186
1601058758714,162,-0.595459,0.19647217,0.19134521
1601058758715,163,-0.5593262,0.31536865,0.14666748
1601058758720,164,-0.7253418,0.5216675,0.11224365
1601058758723,165,-0.94189453,0.49871826,0.10662842
1601058758727,166,-1.3864746,0.4105835,0.11395264
1601058758730,167,-1.1848145,0.30389404,-0.017150879
1601058758733,168,-0.9868164,0.32122803,-0.049621582
1601058758737,169,-0.99658203,0.40618896,-0.065979004
1601058758739,170,-1.0007324,0.45404053,-0.023254395
1601058758739,171,-1.1645508,0.513855,0.09100342
1601058758739,172,-1.0603027,0.48602295,0.23626709
1601058758740,173,-1.2480469,0.42547607,0.4303589
1601058758742,174,-1.2998047,0.2958374,0.34881592
1601058758742,175,-1.0107422,0.13250732,0.2987671
1601058758743,176,-0.69677734,0.16033936,0.16156006
1601058758745,177,-0.545166,0.27581787,0.16546631
1601058758745,178,-0.40673828,0.2645874,0.15203857
1601058758745,179,-0.49829102,0.5753784,0.27069092
1601058758746,180,-0.9128418,0.84198,0.36151123
1601058758746,181,-1.1525879,0.59832764,0.39300537
1601058758748,182,-1.09375,0.5429077,0.2929077
1601058758749,183,-0.74316406,0.3834839,0.20770264
1601058758751,184,-0.6750488,0.20452881,0.17352295
1601058758755,185,-0.8010254,0.25213623,0.184021
1601058758756,186,-1.1662598,0.3060913,0.23382568
1601058758758,187,-1.9057617,0.31878662,0.2909546
1601058758759,188,-1.3896484,0.35028076,0.25457764
1601058758760,189,-0.94506836,0.31707764,0.2020874
1601058758761,190,-0.6660156,0.2670288,0.09979248
1601058758762,191,-0.60424805,0.20916748,0.070251465
1601058761231,192,-0.58496094,0.20037842,0.081970215
1601058761231,193,-0.71899414,0.27069092,0.1251831
1601058761234,194,-1.1477051,0.38909912,0.19696045
1601058761236,195,-1.6569824,0.5067749,0.38201904
1601058761237,196,-1.1640625,0.30755615,0.3102417
1601058761239,197,-0.85791016,0.3366089,0.2970581
1601058761240,198,-0.57373047,0.31536865,0.28533936
1601058761242,199,-0.5744629,0.24603271,0.19744873
1601058761244,200,-1.0786133,0.17059326,0.008972168
1601058761244,201,-1.8144531,0.3661499,0.015075684
1601058761246,202,-1.4680176,0.39886475,0.19403076
1601058761246,203,-0.90625,0.47991943,0.2098999
1601058761247,204,-0.7133789,0.3361206,0.24334717
1601058761248,205,-0.82421875,0.3456421,0.18988037
1601058761249,206,-0.6850586,0.22943115,0.10784912
1601058761251,207,-0.6320801,0.4286499,0.2177124
1601058761251,208,-0.91674805,0.53656006,0.3546753
1601058761255,209,-1.1206055,0.4315796,0.45355225
1601058761255,210,-1.1489258,0.34466553,0.35003662
1601058761256,211,-0.92163086,0.31878662,0.23480225
1601058761256,212,-0.8371582,0.2753296,0.25091553
1601058761257,213,-0.78930664,0.27850342,0.30926514
1601058761258,214,-0.7072754,0.2584839,0.22796631
1601058761259,215,-1.1831055,0.28045654,-0.058166504
1601058761261,216,-1.6833496,0.4015503,0.14251709
1601058761261,217,-1.3723145,0.35150146,0.184021
1601058761262,218,-1.0021973,0.40350342,0.23626709
1601058761264,219,-0.8605957,0.27093506,0.12445068
1601058761265,220,-0.7348633,0.13787842,0.074401855
1601058761267,221,-0.71606445,0.1239624,0.034362793
1601058761269,222,-0.98413086,0.24627686,0.078308105
1601058761270,223,-1.4301758,0.38250732,0.17376709
1601058763767,224,-1.5026855,0.46722412,0.34832764
1601058763770,225,-1.1416016,0.34710693,0.25701904
1601058763772,226,-0.74609375,0.33636475,0.30682373
1601058763775,227,-0.66625977,0.3932495,0.2682495
1601058763777,228,-1.0266113,0.39788818,0.2177124
1601058763780,229,-1.5249023,0.3241577,0.20843506
1601058763780,230,-1.7785645,0.31219482,0.27313232
1601058763782,231,-1.1386719,0.2897339,0.31097412
1601058763785,232,-0.8581543,0.22991943,0.32122803
1601058763788,233,-0.5966797,0.0914917,0.22772217
1601058763788,234,-0.6147461,0.10662842,0.1798706
1601058763790,235,-0.85668945,0.3361206,0.21551514
1601058763794,236,-1.2495117,0.44281006,0.25482178
1601058763795,237,-1.6279297,0.6273804,0.31707764
1601058763795,238,-1.177002,0.3583374,0.21600342
1601058763797,239,-0.85961914,0.2826538,0.098083496
1601058763798,240,-0.89404297,0.3451538,0.011169434
1601058763800,241,-1.0749512,0.4586792,-0.07086182
1601058763800,242,-1.1413574,0.45916748,0.15081787
1601058763802,243,-1.1000977,0.3529663,0.4015503
1601058763803,244,-1.2746582,0.36517334,0.6547241
1601058763804,245,-1.4370117,0.10882568,0.57977295
1601058763805,246,-1.0617676,0.16156006,0.43719482
1601058763806,247,-0.8815918,0.26068115,0.26556396
1601058763807,248,-0.6430664,0.16375732,0.17254639
1601058763808,249,-0.60546875,0.19696045,0.10003662
1601058763809,250,-0.8178711,0.28875732,0.07293701
1601058763811,251,-1.229248,0.3126831,0.1486206
1601058763812,252,-1.4257812,0.3060913,0.15740967
1601058763813,253,-1.0939941,0.3366089,0.121520996
1601058763814,254,-0.84106445,0.34832764,0.16546631
1601058763816,255,-0.6008301,0.35784912,0.22113037
1601058766311,256,-0.70092773,0.40252686,0.28070068
1601058766314,257,-1.3112793,0.354187,0.39471436
1601058766317,258,-2.0,0.1708374,0.2736206
1601058766321,259,-1.5996094,0.20501709,0.21453857
1601058766322,260,-0.9206543,0.2994995,0.17816162
1601058766325,261,-0.67407227,0.1906128,0.12689209
1601058766327,262,-0.54174805,0.08880615,0.105895996
1601058766329,263,-0.38208008,0.09075928,0.05218506
1601058766331,264,-0.70458984,0.33538818,0.13226318
1601058766332,265,-1.5754395,0.48162842,0.14105225
1601058766336,266,-1.8986816,0.53948975,0.44476318
1601058766337,267,-1.2531738,0.2748413,0.31048584
1601058766338,268,-0.69628906,0.27215576,0.42523193
1601058766340,269,-0.35327148,0.4611206,0.4467163
1601058766341,270,-0.67626953,0.30194092,0.3336792
1601058766342,271,-1.994873,0.17303467,-0.058898926
1601058766344,272,-1.8146973,0.36956787,0.1630249
1601058766345,273,-1.3718262,0.39715576,0.07489014
1601058766346,274,-1.0830078,0.22015381,0.050231934
1601058766347,275,-0.75756836,0.008239746,0.089538574
1601058766348,276,-0.52075195,0.093444824,0.07562256
1601058766349,277,-0.48999023,0.19403076,0.1449585
1601058766350,278,-0.77563477,0.32855225,0.2538452
1601058766351,279,-1.4719238,0.6185913,0.4232788
1601058766353,280,-1.5505371,0.4533081,0.35369873
1601058766354,281,-1.0187988,0.2736206,0.27801514
1601058766355,282,-0.7529297,0.38763428,0.26605225
1601058766356,283,-0.64746094,0.34735107,0.28533936
1601058766357,284,-0.6796875,0.32000732,0.27166748
1601058766358,285,-1.168457,0.3180542,0.27630615
1601058766359,286,-1.9023438,0.32513428,0.28948975
1601058766360,287,-1.5500488,0.2501831,0.2453003
1601058768841,288,-0.9987793,0.28997803,0.23822021
1601058768842,289,-0.72802734,0.20941162,0.21282959
1601058768845,290,-0.55322266,0.097839355,0.18670654
1601058768846,291,-0.44628906,0.06390381,0.1395874
1601058768849,292,-0.548584,0.31585693,0.19891357
1601058768852,293,-1.0625,0.883728,0.28363037
1601058768855,294,-1.5068359,0.61224365,0.3475952
1601058768858,295,-1.2116699,0.43499756,0.26849365
1601058768860,296,-0.7717285,0.3493042,0.24188232
1601058768863,297,-0.58984375,0.31951904,0.29315186
1601058768865,298,-0.625,0.3156128,0.293396
1601058768867,299,-0.9094238,0.22210693,0.18060303
1601058768870,300,-1.7373047,0.3595581,0.14837646
1601058768875,301,-1.6850586,0.44085693,0.35516357
1601058768876,302,-1.1494141,0.5018921,0.43084717
1601058768878,303,-0.82592773,0.24749756,0.38104248
1601058768879,304,-0.60009766,0.20501709,0.26605225
1601058768880,305,-0.34155273,0.014343262,0.1149292
1601058768881,306,-0.41601562,0.31903076,0.19989014
1601058768882,307,-0.95410156,0.7731323,0.28851318
1601058768883,308,-1.5263672,0.60076904,0.41229248
1601058768885,309,-1.4318848,0.46868896,0.2658081
1601058768886,310,-1.074707,0.4772339,0.17889404
1601058768887,311,-0.89624023,0.38616943,0.10028076
1601058768888,312,-1.0961914,0.31365967,-5.493164E-4
1601058768889,313,-1.0771484,0.31903076,0.03656006
1601058768891,314,-1.1633301,0.37982178,0.3366089
1601058768894,315,-1.3286133,-0.18511963,0.35076904
1601058768896,316,-1.5686035,0.10491943,0.3583374
1601058768897,317,-1.2424316,0.14984131,0.22088623
1601058768899,318,-0.84716797,0.16204834,0.101989746
1601058768900,319,-0.78637695,0.13885498,0.10809326
1601058771382,320,-0.7697754,0.08343506,0.1005249
1601058771383,321,-0.87939453,0.11639404,0.10028076
1601058771385,322,-1.4304199,0.31048584,-0.035949707
1601058771389,323,-1.5390625,0.44378662,-0.035705566
1601058771397,324,-1.427002,0.34979248,-6.1035156E-5
1601058771398,325,-0.9680176,0.36834717,0.086364746
1601058771400,326,-0.6496582,0.38250732,0.1239624
1601058771402,327,-0.4477539,0.29022217,0.25091553
1601058771406,328,-0.7236328,0.27850342,0.2946167
1601058771414,329,-0.9230957,0.22576904,0.22625732
1601058771418,330,-1.4567871,0.30340576,0.3829956
1601058771419,331,-2.0,0.28729248,0.23480225
1601058771419,332,-1.4509277,0.12030029,0.09832764
1601058771419,333,-0.7705078,0.199646,0.08538818
1601058771427,334,-0.5227051,0.16448975,0.010925293
1601058771427,335,-0.41601562,0.07122803,0.013366699
1601058771433,336,-0.48950195,0.10028076,0.06390381
1601058771434,337,-1.1733398,0.22601318,0.093444824
1601058771435,338,-2.0,0.4088745,0.26556396
1601058771435,339,-1.7124023,0.29608154,0.35247803
1601058771436,340,-1.0576172,0.17181396,0.3114624
1601058771439,341,-0.6105957,0.3307495,0.28289795
1601058771442,342,-0.39160156,0.26507568,0.21722412
1601058771442,343,-0.63500977,0.2296753,0.18255615
1601058771444,344,-1.3078613,0.14642334,0.14300537
1601058771445,345,-1.7556152,0.27288818,0.1071167
1601058771446,346,-1.5158691,0.5101929,0.25042725
1601058771447,347,-1.0073242,0.25823975,0.15374756
1601058771448,348,-0.7102051,0.105407715,0.16986084
1601058771449,349,-0.5661621,0.08758545,0.12445068
1601058771450,350,-0.4794922,0.0692749,0.085876465
1601058771454,351,-0.8508301,0.23431396,0.12908936
1601058774499,352,-1.6047363,0.4628296,0.23822021
1601058774500,353,-1.7409668,0.48187256,0.51727295
1601058774502,354,-1.064209,0.08465576,0.24188232
1601058774503,355,-0.579834,0.27288818,0.37591553
1601058774506,356,-0.42407227,0.38006592,0.32025146
1601058774507,357,-0.63427734,0.28411865,0.22625732
1601058774508,358,-1.8044434,0.25726318,0.20013428
1601058774510,359,-2.0,0.26605225,0.26263428
1601058774515,360,-1.4477539,0.24456787,0.11077881
1601058774516,361,-0.84814453,0.21868896,0.15374756
1601058774517,362,-0.5932617,0.08319092,0.07220459
1601058774518,363,-0.42578125,0.062194824,0.059509277
1601058774518,364,-0.39770508,0.09222412,0.0524292
1601058774519,365,-0.74121094,0.2711792,0.10003662
1601058774520,366,-1.7226562,0.39471436,0.18719482
1601058774522,367,-2.0,0.49749756,0.42181396
1601058774522,368,-1.2341309,0.24969482,0.3312378
1601058774523,369,-0.76171875,0.34075928,0.2819214
1601058774524,370,-0.52246094,0.27996826,0.16400146
1601058774524,371,-0.6220703,0.324646,0.12884521
1601058774525,372,-0.93188477,0.3024292,0.097351074
1601058774526,373,-1.3830566,0.28704834,0.07611084
1601058774527,374,-1.8532715,0.42425537,0.479187
1601058774527,375,-1.5041504,0.3925171,0.6051636
1601058774528,376,-1.0004883,0.23260498,0.4862671
1601058774529,377,-0.6809082,0.10687256,0.22796631
1601058774530,378,-0.59033203,0.14154053,0.077819824
1601058774530,379,-0.6828613,0.18426514,0.016296387
1601058774532,380,-1.1730957,0.2218628,0.04144287
1601058774533,381,-1.5454102,0.3793335,0.11566162
1601058774536,382,-1.4650879,0.27874756,0.16351318
1601058774537,383,-1.0432129,0.1408081,0.08709717
1601058776640,384,-0.7780762,0.33880615,0.05316162
1601058776641,385,-0.8720703,0.29388428,0.08074951
1601058776643,386,-0.8078613,0.3756714,0.16033936
1601058776645,387,-1.0422363,0.43377686,0.36688232
1601058776646,388,-1.3356934,0.3480835,0.572937
1601058776647,389,-1.357666,0.23406982,0.5314331
1601058776648,390,-1.5666504,0.027526855,0.36956787
1601058776650,391,-1.3071289,0.04876709,0.20379639
1601058776652,392,-0.85961914,0.11639404,0.07122803
1601058776655,393,-0.4716797,0.086120605,0.018737793
1601058776656,394,-0.35961914,0.07611084,0.053649902
1601058776657,395,-0.50561523,0.0914917,0.085632324
1601058776659,396,-0.9033203,0.1696167,0.0446167
1601058776660,397,-2.0,0.6251831,0.13909912
1601058776661,398,-1.9228516,0.6564331,0.590271
1601058776662,399,-1.2307129,0.40985107,0.32122803
1601058776663,400,-0.6047363,0.18792725,0.4989624
1601058776664,401,-0.45410156,0.32928467,0.40570068
1601058776665,402,-0.6040039,0.2074585,0.23016357
1601058776666,403,-1.6096191,0.22381592,0.13470459
1601058776667,404,-2.0,0.4804077,0.26239014
1601058776668,405,-1.4707031,0.20379639,0.13861084
1601058776669,406,-0.8261719,0.12884521,0.1293335
1601058776671,407,-0.50805664,0.078308105,0.051208496
1601058776675,408,-0.31518555,0.08441162,0.024108887
1601058776675,409,-0.31152344,0.1630249,0.03778076
1601058776676,410,-0.85058594,0.3624878,0.17938232
1601058776677,411,-1.7966309,0.39471436,0.32269287
1601058776678,412,-1.9135742,0.49627686,0.5204468
1601058776679,413,-1.2299805,0.14788818,0.37078857
1601058776680,414,-0.71606445,0.26409912,0.33685303
1601058776681,415,-0.45874023,0.34832764,0.27337646
