# Sensor position: Chest
# Sensor side: Right
# Activity type: Standing
# Activity code: 100
# Subject id: s1701688
timestamp,seq,accel_x,accel_y,accel_z
1600962921232,0,-0.016601562,-1.0286255,0.11883545
1600962921233,1,-0.016601562,-1.0286255,0.11883545
1600962921233,2,-0.022949219,-1.024231,0.124694824
1600962921236,3,-0.022949219,-1.024231,0.124694824
1600962921236,4,-0.017578125,-1.0169067,0.13470459
1600962921238,5,-0.053955078,-1.0386353,0.13641357
1600962921238,6,-0.017578125,-1.0169067,0.13470459
1600962921240,7,-0.0068359375,-1.003479,0.14788818
1600962921240,8,-0.053955078,-1.0386353,0.13641357
1600962921243,9,-0.05053711,-1.0281372,0.16351318
1600962921243,10,-0.0068359375,-1.003479,0.14788818
1600962921243,11,-0.036132812,-1.0073853,0.17108154
1600962921245,12,-0.05053711,-1.0281372,0.16351318
1600962921245,13,-0.02734375,-1.0200806,0.18182373
1600962921248,14,-0.036132812,-1.0073853,0.17108154
1600962921248,15,-0.0012207031,-1.0090942,0.17547607
1600962921249,16,-0.00390625,-1.006897,0.17889404
1600962921249,17,-0.02734375,-1.0200806,0.18182373
1600962921252,18,-0.0012207031,-1.0090942,0.17547607
1600962921252,19,0.0068359375,-1.00177,0.19378662
1600962921254,20,-0.00390625,-1.006897,0.17889404
1600962921255,21,-0.008056641,-1.0015259,0.19500732
1600962921255,22,-0.0021972656,-1.0088501,0.18914795
1600962921256,23,0.0068359375,-1.00177,0.19378662
1600962921258,24,-0.0024414062,-1.0122681,0.18499756
1600962921258,25,-0.008056641,-1.0015259,0.19500732
1600962921259,26,-0.0021972656,-1.0088501,0.18914795
1600962921260,27,0.00390625,-1.0061646,0.19818115
1600962921261,28,-0.0024414062,-1.0122681,0.18499756
1600962921261,29,0.0043945312,-1.0073853,0.18988037
1600962921261,30,0.00390625,-1.0061646,0.19818115
1600962921263,31,0.0073242188,-1.0110474,0.17938232
1600962921263,32,0.0043945312,-1.0073853,0.18988037
1600962921263,33,0.0,-1.0130005,0.17572021
1600962921263,34,0.0073242188,-1.0110474,0.17938232
1600962921265,35,0.006591797,-1.0088501,0.17425537
1600962921266,36,0.0,-1.0130005,0.17572021
1600962921268,37,-0.0026855469,-1.0134888,0.16986084
1600962921269,38,0.006591797,-1.0088501,0.17425537
1600962921269,39,-0.0026855469,-1.0134888,0.16986084
1600962921270,40,0.0024414062,-1.0149536,0.17181396
1600962921270,41,0.0024414062,-1.0149536,0.17181396
1600962921271,42,0.006591797,-1.0108032,0.16522217
1600962921271,43,0.006591797,-1.0108032,0.16522217
1600962921272,44,-0.0061035156,-1.0134888,0.16473389
1600962921273,45,-0.0061035156,-1.0134888,0.16473389
1600962921273,46,-0.0073242188,-1.0205688,0.16204834
1600962921275,47,-0.0073242188,-1.0205688,0.16204834
1600962921275,48,-0.010498047,-1.015686,0.16571045
1600962921276,49,-0.010498047,-1.015686,0.16571045
1600962921277,50,-0.013427734,-1.0147095,0.16741943
1600962921277,51,-0.013427734,-1.0147095,0.16741943
1600962921278,52,-0.008300781,-1.0125122,0.16986084
1600962921278,53,-0.008300781,-1.0125122,0.16986084
1600962921279,54,-0.0146484375,-1.0108032,0.17449951
1600962921279,55,-0.0146484375,-1.0108032,0.17449951
1600962921280,56,-0.014404297,-1.0078735,0.18109131
1600962921280,57,-0.014404297,-1.0078735,0.18109131
1600962921281,58,-0.015136719,-1.0108032,0.18011475
1600962921281,59,-0.015136719,-1.0108032,0.18011475
1600962921282,60,-0.01171875,-1.0115356,0.17889404
1600962921282,61,-0.01171875,-1.0115356,0.17889404
1600962921283,62,-0.024902344,-1.006897,0.18719482
1600962921284,63,-0.024902344,-1.006897,0.18719482
1600962923763,64,-0.010498047,-1.0029907,0.19891357
1600962923764,65,-0.010498047,-1.0029907,0.19891357
1600962923767,66,-0.026123047,-1.0090942,0.19134521
1600962923768,67,-0.026123047,-1.0090942,0.19134521
1600962923768,68,-0.025878906,-1.0081177,0.19354248
1600962923771,69,-0.025878906,-1.0081177,0.19354248
1600962923771,70,-0.018554688,-1.0098267,0.19769287
1600962923775,71,-0.018554688,-1.0098267,0.19769287
1600962923775,72,-0.022216797,-0.9993286,0.20477295
1600962923776,73,-0.014892578,-1.0054321,0.19989014
1600962923776,74,-0.022216797,-0.9993286,0.20477295
1600962923778,75,-0.017333984,-1.0059204,0.20770264
1600962923779,76,-0.014892578,-1.0054321,0.19989014
1600962923781,77,-0.021972656,-1.0073853,0.20574951
1600962923781,78,-0.017333984,-1.0059204,0.20770264
1600962923781,79,-0.01928711,-1.0025024,0.2111206
1600962923781,80,-0.021972656,-1.0073853,0.20574951
1600962923782,81,-0.01928711,-1.0025024,0.2111206
1600962923783,82,-0.018554688,-1.0056763,0.20697021
1600962923783,83,-0.020507812,-1.005188,0.20404053
1600962923783,84,-0.019042969,-1.0032349,0.20672607
1600962923784,85,-0.018554688,-1.0056763,0.20697021
1600962923786,86,-0.021972656,-1.0020142,0.20037842
1600962923786,87,-0.020507812,-1.005188,0.20404053
1600962923786,88,-0.018310547,-1.0029907,0.20452881
1600962923787,89,-0.019042969,-1.0032349,0.20672607
1600962923787,90,-0.021972656,-1.0020142,0.20037842
1600962923787,91,-0.015625,-1.0015259,0.2111206
1600962923788,92,-0.018310547,-1.006897,0.20697021
1600962923791,93,-0.018310547,-1.0029907,0.20452881
1600962923791,94,-0.018554688,-1.0056763,0.20770264
1600962923791,95,-0.015625,-1.0015259,0.2111206
1600962923794,96,-0.018310547,-1.006897,0.20697021
1600962923795,97,-0.01977539,-1.0064087,0.2062378
1600962923795,98,-0.018554688,-1.0056763,0.20770264
1600962923798,99,-0.020751953,-1.0059204,0.20794678
1600962923798,100,-0.01977539,-1.0064087,0.2062378
1600962923798,101,-0.016845703,-1.0012817,0.21014404
1600962923799,102,-0.020751953,-1.0059204,0.20794678
1600962923801,103,-0.018554688,-1.0066528,0.20697021
1600962923802,104,-0.016845703,-1.0012817,0.21014404
1600962923802,105,-0.016845703,-1.003479,0.21258545
1600962923803,106,-0.018554688,-1.0066528,0.20697021
1600962923804,107,-0.01953125,-1.0046997,0.21063232
1600962923804,108,-0.016845703,-1.003479,0.21258545
1600962923805,109,-0.012939453,-0.9993286,0.20770264
1600962923805,110,-0.01953125,-1.0046997,0.21063232
1600962923806,111,-0.009277344,-1.003479,0.21307373
1600962923806,112,-0.012939453,-0.9993286,0.20770264
1600962923808,113,-0.0087890625,-1.006897,0.20843506
1600962923808,114,-0.009277344,-1.003479,0.21307373
1600962923808,115,-0.015625,-1.0005493,0.20721436
1600962923808,116,-0.0087890625,-1.006897,0.20843506
1600962923810,117,-0.012939453,-0.9985962,0.20526123
1600962923810,118,-0.016113281,-1.0088501,0.20111084
1600962923811,119,0.005859375,-1.0015259,0.20184326
1600962923811,120,-0.016357422,-1.0093384,0.19573975
1600962923812,121,-0.015625,-1.0005493,0.20721436
1600962923812,122,-0.011230469,-1.0100708,0.19451904
1600962923814,123,-0.012939453,-0.9985962,0.20526123
1600962923814,124,-0.016113281,-1.0088501,0.20111084
1600962923815,125,0.005859375,-1.0015259,0.20184326
1600962923816,126,-0.016357422,-1.0093384,0.19573975
1600962923817,127,-0.011230469,-1.0100708,0.19451904
1600962926499,128,-0.0026855469,-1.0081177,0.19110107
1600962926499,129,-0.0026855469,-1.0081177,0.19110107
1600962926500,130,-0.015136719,-1.0117798,0.18890381
1600962926500,131,-0.015136719,-1.0117798,0.18890381
1600962926501,132,-0.014404297,-1.0117798,0.18182373
1600962926504,133,-0.017333984,-1.010315,0.1762085
1600962926504,134,-0.014404297,-1.0117798,0.18182373
1600962926506,135,-0.021728516,-1.0142212,0.17791748
1600962926506,136,-0.017333984,-1.010315,0.1762085
1600962926506,137,-0.024902344,-1.0100708,0.17108154
1600962926506,138,-0.021728516,-1.0142212,0.17791748
1600962926508,139,-0.022216797,-1.0115356,0.17230225
1600962926508,140,-0.024902344,-1.0100708,0.17108154
1600962926509,141,-0.029052734,-1.0134888,0.16937256
1600962926510,142,-0.022216797,-1.0115356,0.17230225
1600962926511,143,-0.029052734,-1.0134888,0.16937256
1600962926515,144,-0.02319336,-1.010315,0.17449951
1600962926516,145,-0.02319336,-1.010315,0.17449951
1600962926516,146,-0.02709961,-1.0117798,0.17694092
1600962926517,147,-0.02709961,-1.0117798,0.17694092
1600962926517,148,-0.013671875,-1.0110474,0.17889404
1600962926518,149,-0.013671875,-1.0110474,0.17889404
1600962926519,150,-0.013916016,-1.0130005,0.18182373
1600962926520,151,-0.013916016,-1.0130005,0.18182373
1600962926521,152,-0.015380859,-1.0110474,0.18450928
1600962926521,153,-0.015380859,-1.0110474,0.18450928
1600962926522,154,-0.01928711,-1.0076294,0.19451904
1600962926523,155,-0.01953125,-1.0093384,0.19525146
1600962926524,156,-0.01928711,-1.0076294,0.19451904
1600962926525,157,-0.019042969,-1.0042114,0.19940186
1600962926526,158,-0.015625,-1.0007935,0.20697021
1600962926526,159,-0.01953125,-1.0093384,0.19525146
1600962926526,160,-0.0073242188,-1.0056763,0.21014404
1600962926527,161,-0.019042969,-1.0042114,0.19940186
1600962926528,162,-0.015625,-1.0007935,0.20697021
1600962926529,163,-0.011962891,-0.9993286,0.20770264
1600962926530,164,-0.0073242188,-1.0056763,0.21014404
1600962926533,165,-0.0075683594,-1.0005493,0.21697998
1600962926533,166,-0.011962891,-0.9993286,0.20770264
1600962926534,167,-0.01171875,-1.0071411,0.21624756
1600962926536,168,-0.017578125,-1.0012817,0.22772217
1600962926536,169,-0.0075683594,-1.0005493,0.21697998
1600962926537,170,-0.010009766,-0.9939575,0.21844482
1600962926539,171,-0.01171875,-1.0071411,0.21624756
1600962926539,172,-0.012939453,-1.0020142,0.22772217
1600962926540,173,-0.017578125,-1.0012817,0.22772217
1600962926540,174,-0.010009766,-0.9939575,0.21844482
1600962926540,175,-0.012939453,-1.0020142,0.22772217
1600962926542,176,-0.013671875,-0.9993286,0.23114014
1600962926542,177,-0.013671875,-0.9993286,0.23114014
1600962926542,178,-0.015380859,-0.9976196,0.230896
1600962926543,179,-0.015380859,-0.9976196,0.230896
1600962926543,180,-0.021484375,-0.9973755,0.22821045
1600962926545,181,-0.021484375,-0.9973755,0.22821045
1600962926545,182,-0.024658203,-1.0039673,0.21868896
1600962926546,183,-0.024658203,-1.0039673,0.21868896
1600962926546,184,-0.015380859,-1.0061646,0.23944092
1600962926547,185,-0.015380859,-1.0061646,0.23944092
1600962926547,186,-0.017822266,-0.99298096,0.23138428
1600962926548,187,-0.017822266,-0.99298096,0.23138428
1600962926548,188,-0.015380859,-0.9949341,0.22698975
1600962926548,189,-0.015380859,-0.9949341,0.22698975
1600962926549,190,-0.020019531,-0.99664307,0.23138428
1600962926549,191,-0.020019531,-0.99664307,0.23138428
1600962929033,192,-0.025146484,-1.0003052,0.22894287
1600962929036,193,-0.025146484,-1.0003052,0.22894287
1600962929037,194,-0.020751953,-0.9981079,0.2296753
1600962929038,195,-0.020751953,-0.9981079,0.2296753
1600962929038,196,-0.029052734,-0.99786377,0.22650146
1600962929038,197,-0.029052734,-0.99786377,0.22650146
1600962929038,198,-0.024658203,-0.9990845,0.23016357
1600962929039,199,-0.024658203,-0.9990845,0.23016357
1600962929039,200,-0.025146484,-0.9973755,0.23382568
1600962929040,201,-0.025146484,-0.9973755,0.23382568
1600962929041,202,-0.021240234,-0.9968872,0.23602295
1600962929042,203,-0.021240234,-0.9968872,0.23602295
1600962929042,204,-0.0234375,-1.000061,0.23016357
1600962929045,205,-0.0234375,-1.000061,0.23016357
1600962929046,206,-0.022949219,-0.99957275,0.2333374
1600962929050,207,-0.022949219,-0.99957275,0.2333374
1600962929050,208,-0.025634766,-1.0007935,0.22772217
1600962929052,209,-0.025634766,-1.0007935,0.22772217
1600962929053,210,-0.021728516,-0.9981079,0.22259521
1600962929054,211,-0.021728516,-0.9981079,0.22259521
1600962929055,212,-0.015380859,-1.0015259,0.21990967
1600962929056,213,-0.015380859,-1.0015259,0.21990967
1600962929058,214,-0.022705078,-1.0022583,0.21136475
1600962929059,215,-0.022705078,-1.0022583,0.21136475
1600962929060,216,-0.02758789,-1.0056763,0.2062378
1600962929062,217,-0.016601562,-0.99713135,0.20770264
1600962929063,218,-0.02758789,-1.0056763,0.2062378
1600962929064,219,-0.016601562,-0.99713135,0.20770264
1600962929065,220,-0.009765625,-1.0049438,0.21356201
1600962929066,221,-0.009765625,-1.0049438,0.21356201
1600962929067,222,-0.0061035156,-0.9998169,0.2164917
1600962929067,223,-0.0061035156,-0.9998169,0.2164917
1600962929068,224,-0.012207031,-1.0020142,0.21380615
1600962929069,225,-0.012207031,-1.0020142,0.21380615
1600962929070,226,-0.010253906,-1.0029907,0.2074585
1600962929071,227,-0.009521484,-1.0066528,0.20550537
1600962929073,228,-0.010253906,-1.0029907,0.2074585
1600962929073,229,-0.014892578,-1.0090942,0.20111084
1600962929074,230,-0.009521484,-1.0066528,0.20550537
1600962929075,231,-0.014892578,-1.0090942,0.20111084
1600962929075,232,-0.016113281,-1.0022583,0.19818115
1600962929076,233,-0.016113281,-1.0022583,0.19818115
1600962929077,234,-0.020019531,-1.0083618,0.1954956
1600962929077,235,-0.020019531,-1.0083618,0.1954956
1600962929078,236,-0.01928711,-1.0066528,0.19329834
1600962929079,237,-0.01928711,-1.0066528,0.19329834
1600962929080,238,-0.021240234,-1.0054321,0.19036865
1600962929081,239,-0.021240234,-1.0054321,0.19036865
1600962929082,240,-0.017822266,-1.0029907,0.18914795
1600962929083,241,-0.020019531,-1.0059204,0.20233154
1600962929083,242,-0.017822266,-1.0029907,0.18914795
1600962929084,243,-0.017822266,-1.0042114,0.20404053
1600962929085,244,-0.020019531,-1.0059204,0.20233154
1600962929086,245,-0.020751953,-1.0083618,0.20574951
1600962929087,246,-0.017822266,-1.0042114,0.20404053
1600962929088,247,-0.020263672,-1.0022583,0.21331787
1600962929089,248,-0.020751953,-1.0083618,0.20574951
1600962929089,249,-0.021484375,-0.9998169,0.21624756
1600962929090,250,-0.03125,-1.0078735,0.21038818
1600962929091,251,-0.020263672,-1.0022583,0.21331787
1600962929091,252,-0.018310547,-0.99713135,0.22039795
1600962929093,253,-0.021484375,-0.9998169,0.21624756
1600962929093,254,-0.03125,-1.0078735,0.21038818
1600962929094,255,-0.018310547,-0.99713135,0.22039795
1600962931564,256,-0.025878906,-0.99884033,0.22747803
1600962931565,257,-0.025878906,-0.99884033,0.22747803
1600962931565,258,-0.01977539,-0.99786377,0.2218628
1600962931566,259,-0.01977539,-0.99786377,0.2218628
1600962931568,260,-0.033447266,-1.0039673,0.22821045
1600962931571,261,-0.037597656,-0.99835205,0.22943115
1600962931572,262,-0.033447266,-1.0039673,0.22821045
1600962931572,263,-0.03564453,-1.0020142,0.2267456
1600962931574,264,-0.036132812,-0.99591064,0.2296753
1600962931574,265,-0.037597656,-0.99835205,0.22943115
1600962931575,266,-0.033203125,-0.9963989,0.2411499
1600962931576,267,-0.035888672,-0.9981079,0.23577881
1600962931578,268,-0.03564453,-1.0020142,0.2267456
1600962931579,269,-0.035888672,-0.99591064,0.23480225
1600962931579,270,-0.036132812,-0.99591064,0.2296753
1600962931580,271,-0.033203125,-0.9963989,0.2411499
1600962931582,272,-0.041015625,-1.0005493,0.23553467
1600962931582,273,-0.035888672,-0.9981079,0.23577881
1600962931584,274,-0.035888672,-0.99591064,0.23480225
1600962931586,275,-0.041015625,-1.0005493,0.23553467
1600962931586,276,-0.029541016,-0.99591064,0.2345581
1600962931586,277,-0.029541016,-0.99591064,0.2345581
1600962931587,278,-0.04296875,-0.99591064,0.23773193
1600962931588,279,-0.037109375,-0.9973755,0.2333374
1600962931588,280,-0.04296875,-0.99591064,0.23773193
1600962931590,281,-0.03955078,-0.99713135,0.24017334
1600962931590,282,-0.037109375,-0.9973755,0.2333374
1600962931591,283,-0.03491211,-0.99591064,0.23309326
1600962931592,284,-0.03515625,-0.9973755,0.23968506
1600962931593,285,-0.03955078,-0.99713135,0.24017334
1600962931594,286,-0.0390625,-0.99713135,0.2345581
1600962931596,287,-0.037597656,-0.9963989,0.23626709
1600962931596,288,-0.03491211,-0.99591064,0.23309326
1600962931596,289,-0.037353516,-0.99786377,0.23504639
1600962931598,290,-0.03515625,-0.9973755,0.23968506
1600962931598,291,-0.033691406,-0.99713135,0.23968506
1600962931600,292,-0.037597656,-0.99664307,0.24090576
1600962931602,293,-0.0390625,-0.99713135,0.2345581
1600962931603,294,-0.029296875,-0.9973755,0.24017334
1600962931603,295,-0.037597656,-0.9963989,0.23626709
1600962931606,296,-0.037109375,-0.9985962,0.23504639
1600962931607,297,-0.037353516,-0.99786377,0.23504639
1600962931607,298,-0.033935547,-0.9993286,0.22869873
1600962931607,299,-0.033691406,-0.99713135,0.23968506
1600962931607,300,-0.03930664,-1.0037231,0.22772217
1600962931608,301,-0.037597656,-0.99664307,0.24090576
1600962931609,302,-0.034179688,-0.99713135,0.22479248
1600962931612,303,-0.029296875,-0.9973755,0.24017334
1600962931612,304,-0.034423828,-1.0007935,0.22894287
1600962931612,305,-0.033447266,-0.99957275,0.2255249
1600962931612,306,-0.037109375,-0.9985962,0.23504639
1600962931614,307,-0.033935547,-0.9993286,0.22869873
1600962931615,308,-0.03930664,-1.0037231,0.22772217
1600962931615,309,-0.02734375,-0.9985962,0.22723389
1600962931616,310,-0.034179688,-0.99713135,0.22479248
1600962931617,311,-0.034423828,-1.0007935,0.22894287
1600962931617,312,-0.027832031,-0.99835205,0.22821045
1600962931617,313,-0.029541016,-1.0003052,0.22869873
1600962931619,314,-0.033447266,-0.99957275,0.2255249
1600962931619,315,-0.02758789,-0.99835205,0.2177124
1600962931619,316,-0.02734375,-0.9985962,0.22723389
1600962931622,317,-0.027832031,-0.99835205,0.22821045
1600962931623,318,-0.029541016,-1.0003052,0.22869873
1600962931626,319,-0.02758789,-0.99835205,0.2177124
1600962934292,320,-0.026123047,-1.0022583,0.2189331
1600962934293,321,-0.026123047,-1.0022583,0.2189331
1600962934294,322,-0.025634766,-0.99664307,0.22137451
1600962934295,323,-0.025634766,-0.99664307,0.22137451
1600962934295,324,-0.025634766,-1.0005493,0.22137451
1600962934296,325,-0.025634766,-1.0005493,0.22137451
1600962934297,326,-0.036376953,-1.0032349,0.21673584
1600962934297,327,-0.036376953,-1.0032349,0.21673584
1600962934298,328,-0.028320312,-1.00177,0.21942139
1600962934298,329,-0.028320312,-1.00177,0.21942139
1600962934299,330,-0.029785156,-1.000061,0.21258545
1600962934299,331,-0.029785156,-1.000061,0.21258545
1600962934299,332,-0.029052734,-1.0042114,0.20916748
1600962934300,333,-0.029052734,-1.0042114,0.20916748
1600962934300,334,-0.03515625,-1.0054321,0.20892334
1600962934301,335,-0.03515625,-1.0054321,0.20892334
1600962934301,336,-0.033935547,-1.0025024,0.20306396
1600962934302,337,-0.03881836,-1.008606,0.20526123
1600962934303,338,-0.033935547,-1.0025024,0.20306396
1600962934304,339,-0.03881836,-1.008606,0.20526123
1600962934305,340,-0.03149414,-1.0012817,0.20697021
1600962934306,341,-0.03149414,-1.0012817,0.20697021
1600962934307,342,-0.03149414,-1.00177,0.21282959
1600962934307,343,-0.03149414,-1.00177,0.21282959
1600962934308,344,-0.032470703,-1.0027466,0.21038818
1600962934308,345,-0.032470703,-1.0027466,0.21038818
1600962934308,346,-0.037353516,-1.0007935,0.21307373
1600962934310,347,-0.037353516,-1.0007935,0.21307373
1600962934311,348,-0.03100586,-0.9998169,0.22650146
1600962934312,349,-0.03100586,-0.9998169,0.22650146
1600962934312,350,-0.03149414,-0.99835205,0.22235107
1600962934312,351,-0.03149414,-0.99835205,0.22235107
1600962934312,352,-0.025390625,-0.9973755,0.23016357
1600962934313,353,-0.025390625,-0.9973755,0.23016357
1600962934313,354,-0.02709961,-0.9993286,0.22796631
1600962934313,355,-0.02709961,-0.9993286,0.22796631
1600962934314,356,-0.036621094,-1.0005493,0.22479248
1600962934314,357,-0.036621094,-1.0005493,0.22479248
1600962934314,358,-0.03515625,-1.0005493,0.22723389
1600962934315,359,-0.03515625,-1.0005493,0.22723389
1600962934315,360,-0.02368164,-0.9949341,0.2321167
1600962934316,361,-0.02368164,-0.9949341,0.2321167
1600962934316,362,-0.032958984,-1.0003052,0.22747803
1600962934317,363,-0.032958984,-1.0003052,0.22747803
1600962934317,364,-0.029296875,-1.0029907,0.22747803
1600962934318,365,-0.029296875,-1.0029907,0.22747803
1600962934318,366,-0.024902344,-0.9973755,0.22528076
1600962934319,367,-0.024902344,-0.9973755,0.22528076
1600962934320,368,-0.016113281,-0.9951782,0.23797607
1600962934320,369,-0.016113281,-0.9951782,0.23797607
1600962934321,370,-0.022949219,-1.0003052,0.23944092
1600962934321,371,-0.022949219,-1.0003052,0.23944092
1600962934322,372,-0.021240234,-0.9937134,0.24017334
1600962934323,373,-0.021240234,-0.9937134,0.24017334
1600962934323,374,-0.017089844,-0.9937134,0.25335693
1600962934323,375,-0.017089844,-0.9937134,0.25335693
1600962934324,376,-0.008544922,-0.9937134,0.2555542
1600962934324,377,-0.008544922,-0.9937134,0.2555542
1600962934325,378,-0.0087890625,-0.99102783,0.2538452
1600962934326,379,-0.0087890625,-0.99102783,0.2538452
1600962934327,380,-0.010009766,-0.9949341,0.25750732
1600962934327,381,-0.010009766,-0.9949341,0.25750732
1600962934327,382,-0.0075683594,-0.99005127,0.26239014
1600962934332,383,-0.0075683594,-0.99005127,0.26239014
1600962936635,384,-0.016601562,-0.9902954,0.26605225
1600962936636,385,-0.016601562,-0.9902954,0.26605225
1600962936639,386,-0.012451172,-0.9866333,0.2670288
1600962936640,387,-0.012451172,-0.9866333,0.2670288
1600962936640,388,-0.014160156,-0.9898071,0.26434326
1600962936641,389,-0.014160156,-0.9898071,0.26434326
1600962936641,390,-0.01171875,-0.9902954,0.25726318
1600962936641,391,-0.01171875,-0.9902954,0.25726318
1600962936642,392,-0.015625,-0.9951782,0.25823975
1600962936642,393,-0.013916016,-0.99053955,0.24871826
1600962936642,394,-0.016601562,-0.9985962,0.24505615
1600962936643,395,-0.015625,-0.9951782,0.25823975
1600962936643,396,-0.017578125,-1.0005493,0.23114014
1600962936644,397,-0.013916016,-0.99053955,0.24871826
1600962936645,398,-0.018798828,-0.9973755,0.23114014
1600962936647,399,-0.016601562,-0.9985962,0.24505615
1600962936647,400,-0.017822266,-0.9968872,0.22406006
1600962936649,401,-0.017578125,-1.0005493,0.23114014
1600962936653,402,-0.018798828,-1.0005493,0.21551514
1600962936653,403,-0.018798828,-0.9973755,0.23114014
1600962936654,404,-0.017822266,-0.9968872,0.22406006
1600962936655,405,-0.018798828,-1.0005493,0.21551514
1600962936658,406,-0.020263672,-1.0039673,0.21356201
1600962936658,407,-0.020263672,-1.0039673,0.21356201
1600962936659,408,-0.01928711,-1.0046997,0.21160889
1600962936661,409,-0.017822266,-1.0032349,0.20648193
1600962936661,410,-0.01928711,-1.0046997,0.21160889
1600962936661,411,-0.01953125,-1.0078735,0.20135498
1600962936662,412,-0.017822266,-1.0032349,0.20648193
1600962936662,413,-0.01953125,-1.0078735,0.20135498
1600962936663,414,-0.01977539,-1.0076294,0.20404053
1600962936664,415,-0.01977539,-1.0076294,0.20404053
1600962936665,416,-0.017822266,-1.0032349,0.20599365
1600962936668,417,-0.017333984,-1.0044556,0.20281982
1600962936668,418,-0.017822266,-1.0032349,0.20599365
1600962936671,419,-0.017333984,-1.003479,0.20257568
1600962936671,420,-0.017578125,-1.0025024,0.20721436
1600962936671,421,-0.017333984,-1.0044556,0.20281982
1600962936671,422,-0.017333984,-1.003479,0.20257568
1600962936672,423,-0.017822266,-1.0015259,0.20550537
1600962936672,424,-0.017578125,-1.0025024,0.20721436
1600962936673,425,-0.0126953125,-1.0020142,0.21063232
1600962936674,426,-0.017822266,-1.0015259,0.20550537
1600962936675,427,-0.020263672,-1.0029907,0.21160889
1600962936675,428,-0.0126953125,-1.0020142,0.21063232
1600962936676,429,-0.011230469,-1.0005493,0.21258545
1600962936676,430,-0.020263672,-1.0029907,0.21160889
1600962936677,431,-0.0126953125,-0.99957275,0.21209717
1600962936677,432,-0.017578125,-0.9998169,0.21502686
1600962936678,433,-0.011230469,-1.0005493,0.21258545
1600962936678,434,-0.0126953125,-0.99957275,0.21209717
1600962936679,435,-0.015380859,-0.99713135,0.2177124
1600962936680,436,-0.017578125,-0.9998169,0.21502686
1600962936680,437,-0.009765625,-0.9961548,0.22357178
1600962936681,438,-0.015380859,-0.99713135,0.2177124
1600962936682,439,-0.0107421875,-1.0020142,0.22381592
1600962936682,440,-0.016113281,-1.0010376,0.22259521
1600962936683,441,-0.009765625,-0.9961548,0.22357178
1600962936684,442,-0.0107421875,-1.0020142,0.22381592
1600962936685,443,-0.016113281,-1.0010376,0.22259521
1600962936686,444,-0.010253906,-0.9990845,0.22918701
1600962936686,445,-0.010253906,-0.9990845,0.22918701
1600962936687,446,-0.0087890625,-0.9981079,0.22576904
1600962936688,447,-0.0087890625,-0.9981079,0.22576904
1600962939368,448,-0.0056152344,-0.99542236,0.22943115
1600962939368,449,-0.0056152344,-0.99542236,0.22943115
1600962939368,450,-0.01171875,-0.99713135,0.23236084
1600962939372,451,-0.012207031,-1.0003052,0.23480225
1600962939375,452,-0.006591797,-0.9973755,0.23724365
1600962939375,453,-0.016357422,-0.99664307,0.23577881
1600962939375,454,-0.01171875,-0.99713135,0.23236084
1600962939375,455,-0.011230469,-0.99664307,0.23944092
1600962939375,456,-0.014160156,-0.9961548,0.23773193
1600962939375,457,-0.012207031,-1.0003052,0.23480225
1600962939376,458,-0.0126953125,-0.9973755,0.24139404
1600962939376,459,-0.014892578,-0.9985962,0.24041748
1600962939380,460,-0.006591797,-0.9973755,0.23724365
1600962939380,461,-0.014404297,-0.9963989,0.23675537
1600962939380,462,-0.016357422,-0.99664307,0.23577881
1600962939380,463,-0.01586914,-0.9968872,0.24041748
1600962939381,464,-0.018310547,-0.99713135,0.23895264
1600962939381,465,-0.01586914,-0.99542236,0.24090576
1600962939384,466,-0.011230469,-0.99664307,0.23944092
1600962939384,467,-0.017089844,-0.9956665,0.2423706
1600962939385,468,-0.01171875,-0.99664307,0.24432373
1600962939394,469,-0.009277344,-0.9951782,0.24749756
1600962939394,470,-0.0107421875,-0.9951782,0.24383545
1600962939394,471,-0.0107421875,-0.9981079,0.24798584
1600962939396,472,-0.0056152344,-0.9915161,0.24383545
1600962939396,473,-0.014160156,-0.9961548,0.23773193
1600962939397,474,-0.0126953125,-0.9973755,0.24139404
1600962939397,475,-0.0029296875,-0.99542236,0.24261475
1600962939397,476,-0.014892578,-0.9985962,0.24041748
1600962939399,477,-0.008056641,-0.9939575,0.23822021
1600962939399,478,-0.014404297,-0.9963989,0.23675537
1600962939400,479,-0.01586914,-0.9968872,0.24041748
1600962939400,480,-0.0021972656,-0.99468994,0.24066162
1600962939402,481,-0.018310547,-0.99713135,0.23895264
1600962939405,482,-0.0048828125,-0.9932251,0.23406982
1600962939406,483,-0.01586914,-0.99542236,0.24090576
1600962939406,484,-0.017089844,-0.9956665,0.2423706
1600962939407,485,-0.009521484,-1.0007935,0.23138428
1600962939407,486,-0.01171875,-0.99664307,0.24432373
1600962939407,487,-0.012939453,-1.0010376,0.22821045
1600962939408,488,-0.009277344,-0.9951782,0.24749756
1600962939408,489,-0.005126953,-0.9998169,0.23358154
1600962939409,490,-0.0107421875,-0.9951782,0.24383545
1600962939409,491,-0.0048828125,-0.99346924,0.2387085
1600962939410,492,-0.0107421875,-0.9981079,0.24798584
1600962939410,493,2.4414062E-4,-0.9956665,0.2374878
1600962939411,494,-0.0026855469,-0.9993286,0.2296753
1600962939411,495,-0.0056152344,-0.9915161,0.24383545
1600962939412,496,-0.0034179688,-0.99786377,0.22845459
1600962939412,497,-0.0029296875,-0.99542236,0.24261475
1600962939413,498,-0.0056152344,-1.0003052,0.22894287
1600962939413,499,-0.008056641,-0.9939575,0.23822021
1600962939414,500,-0.0021972656,-1.0005493,0.21697998
1600962939415,501,-0.0021972656,-0.99468994,0.24066162
1600962939416,502,-0.0048828125,-0.9932251,0.23406982
1600962939416,503,-0.009521484,-1.0007935,0.23138428
1600962939417,504,-0.012939453,-1.0010376,0.22821045
1600962939418,505,-0.005126953,-0.9998169,0.23358154
1600962939419,506,-0.0048828125,-0.99346924,0.2387085
1600962939419,507,2.4414062E-4,-0.9956665,0.2374878
1600962939420,508,-0.0026855469,-0.9993286,0.2296753
1600962939420,509,-0.0034179688,-0.99786377,0.22845459
1600962939422,510,-0.0056152344,-1.0003052,0.22894287
1600962939422,511,-0.0021972656,-1.0005493,0.21697998
1600962941902,512,-0.010986328,-1.0003052,0.2218628
1600962941903,513,-0.010986328,-1.0003052,0.2218628
1600962941904,514,-0.011230469,-0.9993286,0.2177124
1600962941906,515,-0.011230469,-0.9993286,0.2177124
1600962941907,516,-0.01586914,-1.0042114,0.21746826
1600962941907,517,-0.01586914,-1.0042114,0.21746826
1600962941908,518,-0.01586914,-1.0044556,0.215271
1600962941908,519,-0.01586914,-1.0044556,0.215271
1600962941909,520,-0.009765625,-1.0015259,0.21038818
1600962941909,521,-0.009765625,-1.0015259,0.21038818
1600962941911,522,-0.016113281,-1.0029907,0.215271
1600962941911,523,-0.013916016,-1.0005493,0.21258545
1600962941912,524,-0.016113281,-1.0029907,0.215271
1600962941913,525,-0.013916016,-1.0037231,0.21917725
1600962941913,526,-0.013916016,-1.0005493,0.21258545
1600962941914,527,-0.011962891,-0.9985962,0.22650146
1600962941915,528,-0.013916016,-1.0037231,0.21917725
1600962941915,529,-0.012451172,-1.0003052,0.22381592
1600962941916,530,-0.009765625,-1.0005493,0.23480225
1600962941917,531,-0.011962891,-0.9985962,0.22650146
1600962941917,532,-0.009277344,-0.99957275,0.23138428
1600962941918,533,-0.012451172,-1.0003052,0.22381592
1600962941918,534,-0.0043945312,-1.0015259,0.23553467
1600962941919,535,-0.00390625,-0.9963989,0.23846436
1600962941920,536,-0.009765625,-1.0005493,0.23480225
1600962941921,537,-0.008300781,-1.0007935,0.23187256
1600962941921,538,-0.009277344,-0.99957275,0.23138428
1600962941922,539,0.0017089844,-0.9961548,0.24627686
1600962941923,540,-0.0034179688,-0.99346924,0.2399292
1600962941923,541,-0.0043945312,-1.0015259,0.23553467
1600962941924,542,0.0017089844,-0.9951782,0.25531006
1600962941925,543,-0.00390625,-0.9963989,0.23846436
1600962941925,544,0.0073242188,-0.9927368,0.24847412
1600962941926,545,0.0026855469,-0.99420166,0.25091553
1600962941926,546,-0.008300781,-1.0007935,0.23187256
1600962941927,547,0.005859375,-0.9927368,0.25115967
1600962941927,548,0.0017089844,-0.9961548,0.24627686
1600962941928,549,-0.0034179688,-0.99346924,0.2399292
1600962941929,550,0.006591797,-0.99298096,0.2538452
1600962941930,551,0.0017089844,-0.9951782,0.25531006
1600962941930,552,0.0043945312,-0.99176025,0.246521
1600962941930,553,4.8828125E-4,-0.99176025,0.25286865
1600962941931,554,0.0073242188,-0.9927368,0.24847412
1600962941931,555,0.0024414062,-0.9944458,0.25213623
1600962941932,556,0.0026855469,-0.99420166,0.25091553
1600962941933,557,0.008056641,-0.9915161,0.2506714
1600962941933,558,0.005859375,-0.9927368,0.25115967
1600962941934,559,0.00390625,-0.9944458,0.24945068
1600962941934,560,0.006591797,-0.99298096,0.2538452
1600962941935,561,0.0036621094,-0.9973755,0.25115967
1600962941935,562,0.0043945312,-0.99176025,0.246521
1600962941936,563,0.0053710938,-0.9951782,0.25238037
1600962941936,564,4.8828125E-4,-0.99176025,0.25286865
1600962941936,565,2.4414062E-4,-0.9937134,0.25604248
1600962941937,566,0.0024414062,-0.9944458,0.25213623
1600962941938,567,4.8828125E-4,-0.99346924,0.2477417
1600962941938,568,0.008056641,-0.9915161,0.2506714
1600962941939,569,9.765625E-4,-0.99420166,0.25286865
1600962941940,570,0.00390625,-0.9944458,0.24945068
1600962941941,571,0.0036621094,-0.9973755,0.25115967
1600962941941,572,0.0053710938,-0.9951782,0.25238037
1600962941942,573,2.4414062E-4,-0.9937134,0.25604248
1600962941942,574,4.8828125E-4,-0.99346924,0.2477417
1600962941943,575,9.765625E-4,-0.99420166,0.25286865
1600962944632,576,-0.0031738281,-0.99176025,0.25482178
1600962944632,577,-0.0031738281,-0.99176025,0.25482178
1600962944632,578,-0.0017089844,-0.9937134,0.25482178
1600962944633,579,-0.0017089844,-0.9937134,0.25482178
1600962944637,580,-0.0029296875,-0.99102783,0.25604248
1600962944637,581,-0.0029296875,-0.99102783,0.25604248
1600962944637,582,0.001953125,-0.99298096,0.25726318
1600962944637,583,0.001953125,-0.99298096,0.25726318
1600962944637,584,-0.0014648438,-0.9993286,0.24945068
1600962944638,585,-0.0014648438,-0.9993286,0.24945068
1600962944639,586,0.0012207031,-0.9956665,0.2489624
1600962944640,587,0.0012207031,-0.9956665,0.2489624
1600962944641,588,-0.0036621094,-0.99420166,0.24578857
1600962944642,589,-0.0036621094,-0.99420166,0.24578857
1600962944644,590,-0.0017089844,-0.99591064,0.23895264
1600962944646,591,-0.0017089844,-0.99591064,0.23895264
1600962944646,592,-7.324219E-4,-0.99591064,0.23187256
1600962944647,593,-7.324219E-4,-0.99591064,0.23187256
1600962944648,594,9.765625E-4,-0.9993286,0.2296753
1600962944648,595,9.765625E-4,-0.9993286,0.2296753
1600962944649,596,0.0026855469,-0.9961548,0.2267456
1600962944651,597,0.0026855469,-0.9961548,0.2267456
1600962944651,598,-0.0012207031,-1.0020142,0.21673584
1600962944651,599,-0.0012207031,-1.0020142,0.21673584
1600962944653,600,-0.0068359375,-1.0032349,0.21600342
1600962944653,601,0.0024414062,-0.9985962,0.21038818
1600962944654,602,-0.0068359375,-1.0032349,0.21600342
1600962944654,603,-4.8828125E-4,-1.0039673,0.20697021
1600962944656,604,-0.004638672,-1.0049438,0.19940186
1600962944656,605,-0.0036621094,-1.0071411,0.20281982
1600962944657,606,0.0024414062,-0.9985962,0.21038818
1600962944657,607,-0.011474609,-1.0027466,0.20135498
1600962944661,608,-0.004638672,-1.0066528,0.20233154
1600962944661,609,-4.8828125E-4,-1.0039673,0.20697021
1600962944662,610,-0.009033203,-1.005188,0.20013428
1600962944664,611,-0.004638672,-1.0049438,0.19940186
1600962944664,612,-0.005859375,-1.0049438,0.20037842
1600962944665,613,-0.0034179688,-1.0032349,0.20574951
1600962944666,614,-0.0036621094,-1.0071411,0.20281982
1600962944667,615,-0.0073242188,-1.0071411,0.19598389
1600962944668,616,-0.0043945312,-1.0039673,0.20257568
1600962944668,617,-0.011474609,-1.0027466,0.20135498
1600962944669,618,-0.004638672,-1.0066528,0.20233154
1600962944670,619,-0.0036621094,-1.0044556,0.20037842
1600962944675,620,-0.009033203,-1.005188,0.20013428
1600962944675,621,-0.0053710938,-1.0029907,0.20062256
1600962944675,622,-0.005859375,-1.0049438,0.20037842
1600962944675,623,-0.0073242188,-1.0020142,0.20574951
1600962944676,624,-0.0034179688,-1.0032349,0.20574951
1600962944678,625,-0.0056152344,-1.0049438,0.20477295
1600962944678,626,-0.0073242188,-1.0071411,0.19598389
1600962944679,627,-0.0063476562,-1.0007935,0.21502686
1600962944680,628,-0.0043945312,-1.0039673,0.20257568
1600962944681,629,-2.4414062E-4,-0.99957275,0.2164917
1600962944681,630,-0.0036621094,-1.0044556,0.20037842
1600962944682,631,0.0012207031,-0.99786377,0.22479248
1600962944683,632,-0.0053710938,-1.0029907,0.20062256
1600962944684,633,0.0024414062,-0.9976196,0.22161865
1600962944684,634,-0.0073242188,-1.0020142,0.20574951
1600962944687,635,-0.0056152344,-1.0049438,0.20477295
1600962944688,636,-0.0063476562,-1.0007935,0.21502686
1600962944689,637,-2.4414062E-4,-0.99957275,0.2164917
1600962944692,638,0.0012207031,-0.99786377,0.22479248
1600962944695,639,0.0024414062,-0.9976196,0.22161865
1600962946971,640,0.008056641,-0.9963989,0.23016357
1600962946972,641,0.008056641,-0.9963989,0.23016357
1600962946973,642,0.0,-0.99957275,0.23016357
1600962946975,643,2.4414062E-4,-0.9976196,0.2267456
1600962946975,644,0.0,-0.99957275,0.23016357
1600962946976,645,2.4414062E-4,-0.9976196,0.2267456
1600962946977,646,0.0031738281,-1.0003052,0.22576904
1600962946977,647,0.0031738281,-1.0003052,0.22576904
1600962946978,648,0.0078125,-0.99420166,0.23577881
1600962946980,649,0.0078125,-0.99420166,0.23577881
1600962946980,650,0.0036621094,-0.9968872,0.2387085
1600962946980,651,0.0036621094,-0.9968872,0.2387085
1600962946981,652,7.324219E-4,-0.99664307,0.23651123
1600962946982,653,7.324219E-4,-0.99664307,0.23651123
1600962946983,654,0.005126953,-0.99713135,0.24261475
1600962946984,655,0.005126953,-0.99713135,0.24261475
1600962946987,656,0.0048828125,-0.9927368,0.23675537
1600962946987,657,0.0048828125,-0.9927368,0.23675537
1600962946988,658,-0.0017089844,-0.9993286,0.24407959
1600962946988,659,-0.0017089844,-0.9993286,0.24407959
1600962946990,660,-0.005126953,-0.9981079,0.2411499
1600962946990,661,-0.005126953,-0.9981079,0.2411499
1600962946990,662,-0.0029296875,-0.99713135,0.24432373
1600962946992,663,-0.0029296875,-0.99713135,0.24432373
1600962946992,664,-0.006591797,-0.9939575,0.24676514
1600962946994,665,-0.008300781,-0.99542236,0.24383545
1600962946994,666,-0.006591797,-0.9939575,0.24676514
1600962946995,667,-0.017333984,-0.99468994,0.24627686
1600962946995,668,-0.008300781,-0.99542236,0.24383545
1600962946996,669,-0.012207031,-0.9963989,0.24456787
1600962946996,670,-0.017333984,-0.99468994,0.24627686
1600962946997,671,-0.01928711,-0.991272,0.2526245
1600962946998,672,-0.012207031,-0.9963989,0.24456787
1600962946998,673,-0.01171875,-0.99298096,0.24481201
1600962946999,674,-0.01928711,-0.991272,0.2526245
1600962946999,675,-0.026855469,-0.99884033,0.24334717
1600962947000,676,-0.01171875,-0.99298096,0.24481201
1600962947000,677,-0.022216797,-0.9944458,0.24822998
1600962947001,678,-0.026855469,-0.99884033,0.24334717
1600962947001,679,-0.017578125,-0.99224854,0.24212646
1600962947002,680,-0.022216797,-0.9944458,0.24822998
1600962947002,681,-0.020019531,-0.99420166,0.24310303
1600962947003,682,-0.017578125,-0.99224854,0.24212646
1600962947003,683,-0.016845703,-0.99420166,0.24700928
1600962947004,684,-0.020019531,-0.99420166,0.24310303
1600962947004,685,-0.016601562,-0.9968872,0.25091553
1600962947005,686,-0.016845703,-0.99420166,0.24700928
1600962947005,687,-0.009033203,-0.99713135,0.24945068
1600962947007,688,-0.016601562,-0.9968872,0.25091553
1600962947007,689,-0.014160156,-0.9968872,0.24456787
1600962947007,690,-0.009033203,-0.99713135,0.24945068
1600962947008,691,-0.008544922,-0.9944458,0.2477417
1600962947009,692,-0.014160156,-0.9968872,0.24456787
1600962947009,693,-0.0146484375,-0.99176025,0.24212646
1600962947009,694,-0.008544922,-0.9944458,0.2477417
1600962947010,695,-0.01171875,-1.0007935,0.2345581
1600962947010,696,-0.0146484375,-0.99176025,0.24212646
1600962947011,697,-0.01171875,-1.0007935,0.2345581
1600962947011,698,-0.005126953,-0.9956665,0.23431396
1600962947012,699,-0.005126953,-0.9956665,0.23431396
1600962947012,700,-0.0041503906,-0.9956665,0.22723389
1600962947013,701,-0.0041503906,-0.9956665,0.22723389
1600962947013,702,0.0014648438,-1.0032349,0.2267456
1600962947014,703,0.0014648438,-1.0032349,0.2267456
1600962949505,704,-0.010253906,-1.00177,0.23065186
1600962949506,705,-0.010253906,-1.00177,0.23065186
1600962949508,706,0.011474609,-0.9939575,0.230896
1600962949508,707,0.011474609,-0.9939575,0.230896
1600962949509,708,0.0,-0.99957275,0.22894287
1600962949509,709,0.0,-0.99957275,0.22894287
1600962949511,710,-0.011230469,-1.0020142,0.22698975
1600962949511,711,-0.011230469,-1.0020142,0.22698975
1600962949514,712,-0.011474609,-0.9973755,0.21917725
1600962949514,713,-0.011474609,-0.9973755,0.21917725
1600962949516,714,0.0012207031,-0.99835205,0.22406006
1600962949516,715,0.0012207031,-0.99835205,0.22406006
1600962949517,716,-0.0034179688,-0.99957275,0.22137451
1600962949517,717,-0.0034179688,-0.99957275,0.22137451
1600962949518,718,-0.013671875,-1.0039673,0.22161865
1600962949519,719,-0.013671875,-1.0039673,0.22161865
1600962949520,720,0.017822266,-0.9932251,0.22991943
1600962949520,721,0.017822266,-0.9932251,0.22991943
1600962949522,722,-0.0036621094,-0.9993286,0.23040771
1600962949523,723,-0.0036621094,-0.9993286,0.23040771
1600962949523,724,-0.00390625,-0.9981079,0.22869873
1600962949523,725,-0.00390625,-0.9981079,0.22869873
1600962949524,726,-0.0056152344,-0.99713135,0.2296753
1600962949524,727,-0.0053710938,-0.99664307,0.23236084
1600962949524,728,-0.0048828125,-0.9976196,0.21942139
1600962949527,729,-0.001953125,-0.99786377,0.23309326
1600962949527,730,-0.0056152344,-0.99713135,0.2296753
1600962949530,731,-9.765625E-4,-0.99346924,0.23260498
1600962949530,732,-0.0053710938,-0.99664307,0.23236084
1600962949533,733,-0.0014648438,-0.9981079,0.22991943
1600962949533,734,-0.0048828125,-0.9976196,0.21942139
1600962949534,735,-0.013916016,-1.003479,0.2296753
1600962949534,736,-0.001953125,-0.99786377,0.23309326
1600962949537,737,4.8828125E-4,-0.99957275,0.24139404
1600962949537,738,-9.765625E-4,-0.99346924,0.23260498
1600962949540,739,0.0014648438,-0.9927368,0.24139404
1600962949540,740,-0.0014648438,-0.9981079,0.22991943
1600962949540,741,-2.4414062E-4,-0.9937134,0.24090576
1600962949541,742,-0.013916016,-1.003479,0.2296753
1600962949542,743,4.8828125E-4,-0.99957275,0.24139404
1600962949542,744,0.0041503906,-0.9939575,0.24041748
1600962949543,745,0.0014648438,-0.9927368,0.24139404
1600962949544,746,-2.4414062E-4,-0.9915161,0.24945068
1600962949545,747,-2.4414062E-4,-0.9937134,0.24090576
1600962949546,748,9.765625E-4,-0.99420166,0.2453003
1600962949548,749,0.0041503906,-0.9939575,0.24041748
1600962949548,750,-0.0012207031,-0.9944458,0.25604248
1600962949548,751,-2.4414062E-4,-0.9915161,0.24945068
1600962949550,752,0.016113281,-0.9937134,0.26141357
1600962949550,753,9.765625E-4,-0.99420166,0.2453003
1600962949550,754,-0.0012207031,-0.9944458,0.25604248
1600962949550,755,-0.015380859,-0.9937134,0.2514038
1600962949551,756,0.016113281,-0.9937134,0.26141357
1600962949553,757,-0.015380859,-0.9937134,0.2514038
1600962949553,758,0.020996094,-0.9859009,0.2675171
1600962949553,759,0.020996094,-0.9859009,0.2675171
1600962949553,760,-0.009277344,-0.99346924,0.27752686
1600962949554,761,-0.009277344,-0.99346924,0.27752686
1600962949554,762,-9.765625E-4,-0.9837036,0.26361084
1600962949555,763,0.0014648438,-0.9871216,0.27069092
1600962949555,764,-9.765625E-4,-0.9837036,0.26361084
1600962949556,765,-0.001953125,-0.9883423,0.2633667
1600962949556,766,0.0014648438,-0.9871216,0.27069092
1600962949558,767,-0.001953125,-0.9883423,0.2633667
