# Sensor position: Wrist
# Sensor side: Left
# Activity type: Lying down left
# Activity code: 7
# Subject id: s1701688
timestamp,seq,accel_x,accel_y,accel_z
1601044978772,0,0.13574219,-0.20147705,-0.9854126
1601044978772,1,0.13574219,-0.20147705,-0.9854126
1601044978772,2,0.119628906,-0.31573486,-0.94732666
1601044978772,3,0.13574219,-0.20147705,-0.9854126
1601044978772,4,0.13061523,-0.41436768,-0.89727783
1601044978774,5,0.13061523,-0.3760376,-0.9385376
1601044978775,6,0.13061523,-0.20953369,-0.9898071
1601044978775,7,0.13110352,-0.36480713,-0.9368286
1601044978776,8,0.119628906,-0.31573486,-0.94732666
1601044978777,9,0.13378906,-0.36138916,-0.9417114
1601044978778,10,0.13061523,-0.20953369,-0.9898071
1601044978778,11,0.13061523,-0.20953369,-0.9898071
1601044978778,12,0.13623047,-0.364563,-0.9368286
1601044978779,13,0.13061523,-0.41436768,-0.89727783
1601044978779,14,0.1352539,-0.36309814,-0.940979
1601044978781,15,0.13061523,-0.3760376,-0.9385376
1601044978782,16,0.119628906,-0.31573486,-0.94732666
1601044978782,17,0.119628906,-0.31573486,-0.94732666
1601044978783,18,0.13110352,-0.36480713,-0.9368286
1601044978783,19,0.13452148,-0.35943604,-0.9414673
1601044978784,20,0.13061523,-0.41436768,-0.89727783
1601044978784,21,0.13378906,-0.36138916,-0.9417114
1601044978785,22,0.13476562,-0.36016846,-0.93756104
1601044978788,23,0.13305664,-0.35821533,-0.9390259
1601044978788,24,0.13623047,-0.364563,-0.9368286
1601044978789,25,0.13061523,-0.3760376,-0.9385376
1601044978789,26,0.13061523,-0.41436768,-0.89727783
1601044978789,27,0.1352539,-0.36309814,-0.940979
1601044978789,28,0.13061523,-0.3760376,-0.9385376
1601044978789,29,0.13110352,-0.36480713,-0.9368286
1601044978789,30,0.13452148,-0.35943604,-0.9414673
1601044978789,31,0.13476562,-0.36016846,-0.93756104
1601044978790,32,0.13378906,-0.36138916,-0.9417114
1601044978790,33,0.13623047,-0.364563,-0.9368286
1601044978791,34,0.13305664,-0.35821533,-0.9390259
1601044978791,35,0.13110352,-0.36480713,-0.9368286
1601044978792,36,0.1352539,-0.36309814,-0.940979
1601044978793,37,0.13378906,-0.36138916,-0.9417114
1601044978795,38,0.13623047,-0.364563,-0.9368286
1601044978796,39,0.13452148,-0.35943604,-0.9414673
1601044978796,40,0.1352539,-0.36309814,-0.940979
1601044978799,41,0.13476562,-0.36016846,-0.93756104
1601044978799,42,0.13452148,-0.35943604,-0.9414673
1601044978799,43,0.13476562,-0.36016846,-0.93756104
1601044978802,44,0.13305664,-0.35821533,-0.9390259
1601044978803,45,0.13305664,-0.35821533,-0.9390259
1601044980853,46,0.1352539,-0.3562622,-0.94073486
1601044980855,47,0.1352539,-0.3562622,-0.94073486
1601044980857,48,0.1352539,-0.3562622,-0.94073486
1601044980859,49,0.1352539,-0.3562622,-0.94073486
1601044980859,50,0.13378906,-0.35821533,-0.94073486
1601044980860,51,0.13378906,-0.35821533,-0.94073486
1601044980860,52,0.13378906,-0.35821533,-0.94073486
1601044980861,53,0.13427734,-0.35577393,-0.9402466
1601044980865,54,0.13427734,-0.35577393,-0.9402466
1601044980865,55,0.13378906,-0.35821533,-0.94073486
1601044980867,56,0.13452148,-0.35723877,-0.9421997
1601044980869,57,0.13427734,-0.35577393,-0.9402466
1601044980869,58,0.13452148,-0.35723877,-0.9421997
1601044980869,59,0.13500977,-0.35430908,-0.94317627
1601044980870,60,0.13427734,-0.35577393,-0.9402466
1601044980871,61,0.13500977,-0.35430908,-0.94317627
1601044980872,62,0.13305664,-0.3591919,-0.93878174
1601044980873,63,0.13452148,-0.35723877,-0.9421997
1601044980873,64,0.13305664,-0.3591919,-0.93878174
1601044980874,65,0.13452148,-0.35723877,-0.9421997
1601044980874,66,0.13232422,-0.35772705,-0.9439087
1601044980874,67,0.13500977,-0.35430908,-0.94317627
1601044980877,68,0.13232422,-0.35772705,-0.9439087
1601044980877,69,0.13500977,-0.35430908,-0.94317627
1601044980877,70,0.13305664,-0.3591919,-0.93878174
1601044980878,71,0.13305664,-0.3579712,-0.93878174
1601044980878,72,0.13232422,-0.35772705,-0.9439087
1601044980878,73,0.13256836,-0.35894775,-0.9390259
1601044980880,74,0.13305664,-0.3579712,-0.93878174
1601044980881,75,0.13305664,-0.3591919,-0.93878174
1601044980881,76,0.13305664,-0.3579712,-0.93878174
1601044980881,77,0.1328125,-0.35577393,-0.94195557
1601044980881,78,0.13232422,-0.35772705,-0.9439087
1601044980881,79,0.13256836,-0.35894775,-0.9390259
1601044980882,80,0.13378906,-0.35186768,-0.9397583
1601044980883,81,0.13256836,-0.35894775,-0.9390259
1601044980884,82,0.13305664,-0.3579712,-0.93878174
1601044980884,83,0.1328125,-0.35577393,-0.94195557
1601044980885,84,0.12988281,-0.35064697,-0.94488525
1601044980889,85,0.13256836,-0.35894775,-0.9390259
1601044980889,86,0.1328125,-0.35577393,-0.94195557
1601044980889,87,0.13378906,-0.35186768,-0.9397583
1601044980890,88,0.12890625,-0.34429932,-0.95025635
1601044980893,89,0.1328125,-0.35577393,-0.94195557
1601044980893,90,0.12988281,-0.35064697,-0.94488525
1601044980893,91,0.122802734,-0.34332275,-0.94317627
1601044980893,92,0.13378906,-0.35186768,-0.9397583
1601044980894,93,0.12988281,-0.35064697,-0.94488525
1601044980895,94,0.12890625,-0.34429932,-0.95025635
1601044980895,95,0.122802734,-0.34332275,-0.94317627
1601044980895,96,0.12890625,-0.34429932,-0.95025635
1601044980895,97,0.13378906,-0.35186768,-0.9397583
1601044980896,98,0.122802734,-0.34332275,-0.94317627
1601044980899,99,0.1262207,-0.34283447,-0.94610596
1601044980899,100,0.12988281,-0.35064697,-0.94488525
1601044980900,101,0.1262207,-0.34283447,-0.94610596
1601044980900,102,0.1262207,-0.34283447,-0.94610596
1601044980902,103,0.1274414,-0.3418579,-0.94317627
1601044980903,104,0.1274414,-0.3418579,-0.94317627
1601044980903,105,0.12890625,-0.34429932,-0.95025635
1601044980903,106,0.12939453,-0.3430786,-0.94366455
1601044980904,107,0.1274414,-0.3418579,-0.94317627
1601044980905,108,0.12866211,-0.34405518,-0.94195557
1601044980908,109,0.12719727,-0.34283447,-0.94317627
1601044980908,110,0.12939453,-0.3430786,-0.94366455
1601044980908,111,0.12939453,-0.3430786,-0.94366455
1601044980908,112,0.12866211,-0.34405518,-0.94195557
1601044980911,113,0.122802734,-0.34332275,-0.94317627
1601044980911,114,0.12866211,-0.34405518,-0.94195557
1601044980911,115,0.125,-0.34088135,-0.9404907
1601044980911,116,0.12719727,-0.34283447,-0.94317627
1601044980913,117,0.12719727,-0.34283447,-0.94317627
1601044980914,118,0.1262207,-0.34283447,-0.94610596
1601044980914,119,0.12670898,-0.3267212,-0.96221924
1601044980914,120,0.125,-0.34088135,-0.9404907
1601044980918,121,0.123046875,-0.33087158,-0.9536743
1601044980919,122,0.1274414,-0.3418579,-0.94317627
1601044980919,123,0.12670898,-0.3267212,-0.96221924
1601044980919,124,0.12451172,-0.32843018,-0.94976807
1601044980919,125,0.125,-0.34088135,-0.9404907
1601044980920,126,0.123046875,-0.33087158,-0.9536743
1601044980920,127,0.12939453,-0.3430786,-0.94366455
1601044980922,128,0.12573242,-0.33258057,-0.94659424
1601044980923,129,0.12670898,-0.3267212,-0.96221924
1601044980923,130,0.12451172,-0.32843018,-0.94976807
1601044980924,131,0.123046875,-0.33087158,-0.9536743
1601044980924,132,0.12402344,-0.331604,-0.94781494
1601044980927,133,0.12866211,-0.34405518,-0.94195557
1601044980928,134,0.12573242,-0.33258057,-0.94659424
1601044980928,135,0.12451172,-0.32843018,-0.94976807
1601044980929,136,0.12719727,-0.34283447,-0.94317627
1601044980931,137,0.12475586,-0.32940674,-0.9487915
1601044980935,138,0.12573242,-0.33258057,-0.94659424
1601044980935,139,0.125,-0.34088135,-0.9404907
1601044980935,140,0.12402344,-0.331604,-0.94781494
1601044980935,141,0.12426758,-0.32989502,-0.9463501
1601044980935,142,0.12670898,-0.3267212,-0.96221924
1601044980936,143,0.12475586,-0.32940674,-0.9487915
1601044980936,144,0.12402344,-0.331604,-0.94781494
1601044980936,145,0.122558594,-0.32769775,-0.9553833
1601044980936,146,0.12426758,-0.32989502,-0.9463501
1601044980937,147,0.123046875,-0.33087158,-0.9536743
1601044980938,148,0.122558594,-0.32769775,-0.9553833
1601044980940,149,0.12451172,-0.32843018,-0.94976807
1601044980940,150,0.12475586,-0.32940674,-0.9487915
1601044980940,151,0.122558594,-0.3213501,-0.9500122
1601044980940,152,0.122558594,-0.3213501,-0.9500122
1601044980940,153,0.12426758,-0.32989502,-0.9463501
1601044980940,154,0.12573242,-0.33258057,-0.94659424
1601044980941,155,0.118652344,-0.3184204,-0.95880127
1601044980942,156,0.118652344,-0.3184204,-0.95880127
1601044980942,157,0.119140625,-0.30963135,-0.9602661
1601044980942,158,0.122558594,-0.32769775,-0.9553833
1601044980942,159,0.12402344,-0.331604,-0.94781494
1601044980943,160,0.119140625,-0.30963135,-0.9602661
1601044980945,161,0.119628906,-0.31036377,-0.9627075
1601044980945,162,0.122558594,-0.3213501,-0.9500122
1601044980945,163,0.12475586,-0.32940674,-0.9487915
1601044980946,164,0.119628906,-0.31036377,-0.9627075
1601044980946,165,0.118652344,-0.3184204,-0.95880127
1601044980946,166,0.12426758,-0.32989502,-0.9463501
1601044980948,167,0.122558594,-0.32769775,-0.9553833
1601044980948,168,0.119140625,-0.30963135,-0.9602661
1601044980949,169,0.122558594,-0.3213501,-0.9500122
1601044980950,170,0.119628906,-0.31036377,-0.9627075
1601044980950,171,0.118652344,-0.3184204,-0.95880127
1601044980951,172,0.119140625,-0.30963135,-0.9602661
1601044980952,173,0.119628906,-0.31036377,-0.9627075
1601044983387,174,0.11816406,-0.31011963,-0.9612427
1601044983391,175,0.11816406,-0.31011963,-0.9612427
1601044983391,176,0.1184082,-0.3086548,-0.95562744
1601044983392,177,0.1184082,-0.3086548,-0.95562744
1601044983392,178,0.11816406,-0.31011963,-0.9612427
1601044983392,179,0.11816406,-0.31011963,-0.9612427
1601044983398,180,0.11791992,-0.30596924,-0.95684814
1601044983398,181,0.1184082,-0.3086548,-0.95562744
1601044983398,182,0.11791992,-0.30596924,-0.95684814
1601044983399,183,0.1184082,-0.3086548,-0.95562744
1601044983399,184,0.11669922,-0.3015747,-0.9585571
1601044983400,185,0.11791992,-0.30596924,-0.95684814
1601044983400,186,0.11669922,-0.3015747,-0.9585571
1601044983400,187,0.114990234,-0.2930298,-0.96710205
1601044983401,188,0.11669922,-0.3015747,-0.9585571
1601044983402,189,0.11791992,-0.30596924,-0.95684814
1601044983403,190,0.11669922,-0.3015747,-0.9585571
1601044983405,191,0.114990234,-0.2930298,-0.96710205
1601044983405,192,0.114990234,-0.2930298,-0.96710205
1601044983405,193,0.114990234,-0.2930298,-0.96710205
1601044983405,194,0.111083984,-0.28936768,-0.96588135
1601044983407,195,0.111083984,-0.28936768,-0.96588135
1601044983407,196,0.111083984,-0.28936768,-0.96588135
1601044983408,197,0.111083984,-0.28936768,-0.96588135
1601044983411,198,0.111816406,-0.27911377,-0.9727173
1601044983411,199,0.111816406,-0.27911377,-0.9727173
1601044983411,200,0.111816406,-0.27911377,-0.9727173
1601044983411,201,0.11254883,-0.27496338,-0.96661377
1601044983416,202,0.11254883,-0.27496338,-0.96661377
1601044983416,203,0.111816406,-0.27911377,-0.9727173
1601044983416,204,0.11254883,-0.27496338,-0.96661377
1601044983417,205,0.11328125,-0.2756958,-0.9717407
1601044983417,206,0.11254883,-0.27496338,-0.96661377
1601044983417,207,0.1105957,-0.2744751,-0.9717407
1601044983417,208,0.11328125,-0.2756958,-0.9717407
1601044983418,209,0.11328125,-0.2756958,-0.9717407
1601044983418,210,0.11328125,-0.2756958,-0.9717407
1601044983418,211,0.1105957,-0.27349854,-0.97125244
1601044983418,212,0.1105957,-0.2744751,-0.9717407
1601044983419,213,0.10961914,-0.27227783,-0.96954346
1601044983419,214,0.1105957,-0.2744751,-0.9717407
1601044983421,215,0.10888672,-0.2732544,-0.9702759
1601044983422,216,0.1105957,-0.27349854,-0.97125244
1601044983424,217,0.1105957,-0.2744751,-0.9717407
1601044983424,218,0.1105957,-0.27349854,-0.97125244
1601044983427,219,0.10961914,-0.27227783,-0.96954346
1601044983427,220,0.110839844,-0.2720337,-0.97076416
1601044983427,221,0.1105957,-0.27349854,-0.97125244
1601044983432,222,0.10961914,-0.27227783,-0.96954346
1601044983432,223,0.10888672,-0.2732544,-0.9702759
1601044983432,224,0.1105957,-0.27471924,-0.96759033
1601044983433,225,0.10888672,-0.2732544,-0.9702759
1601044983433,226,0.10961914,-0.27227783,-0.96954346
1601044983433,227,0.110839844,-0.2720337,-0.97076416
1601044983433,228,0.1105957,-0.27471924,-0.96759033
1601044983433,229,0.11303711,-0.27471924,-0.972229
1601044983433,230,0.11303711,-0.27471924,-0.972229
1601044983433,231,0.10888672,-0.2732544,-0.9702759
1601044983433,232,0.110839844,-0.2720337,-0.97076416
1601044983433,233,0.11254883,-0.2732544,-0.9702759
1601044983434,234,0.11254883,-0.2732544,-0.9702759
1601044983435,235,0.11328125,-0.27227783,-0.97247314
1601044983435,236,0.1105957,-0.27471924,-0.96759033
1601044983437,237,0.110839844,-0.2720337,-0.97076416
1601044983437,238,0.110839844,-0.2666626,-0.97003174
1601044983437,239,0.11328125,-0.27227783,-0.97247314
1601044983438,240,0.1105957,-0.27471924,-0.96759033
1601044983438,241,0.111083984,-0.26275635,-0.975647
1601044983438,242,0.11303711,-0.27471924,-0.972229
1601044983438,243,0.11206055,-0.2630005,-0.97076416
1601044983438,244,0.11303711,-0.27471924,-0.972229
1601044983438,245,0.11254883,-0.2732544,-0.9702759
1601044983438,246,0.110839844,-0.2666626,-0.97003174
1601044983439,247,0.11254883,-0.2732544,-0.9702759
1601044983439,248,0.11279297,-0.26275635,-0.9714966
1601044983440,249,0.11328125,-0.27227783,-0.97247314
1601044983440,250,0.11328125,-0.27227783,-0.97247314
1601044983440,251,0.110839844,-0.2666626,-0.97003174
1601044983440,252,0.1105957,-0.25738525,-0.97662354
1601044983441,253,0.110839844,-0.2666626,-0.97003174
1601044983441,254,0.111816406,-0.26031494,-0.97491455
1601044983442,255,0.111083984,-0.26275635,-0.975647
1601044983442,256,0.111083984,-0.26275635,-0.975647
1601044983443,257,0.111083984,-0.26275635,-0.975647
1601044983443,258,0.111816406,-0.2576294,-0.9763794
1601044983443,259,0.11206055,-0.2630005,-0.97076416
1601044983444,260,0.11206055,-0.2630005,-0.97076416
1601044983445,261,0.11206055,-0.2630005,-0.97076416
1601044983445,262,0.11279297,-0.26275635,-0.9714966
1601044983445,263,0.11279297,-0.26275635,-0.9714966
1601044983446,264,0.10986328,-0.25933838,-0.9702759
1601044983446,265,0.11279297,-0.26275635,-0.9714966
1601044983446,266,0.1105957,-0.25738525,-0.97662354
1601044983447,267,0.1105957,-0.25738525,-0.97662354
1601044983448,268,0.111572266,-0.25982666,-0.9751587
1601044983448,269,0.111816406,-0.26031494,-0.97491455
1601044983448,270,0.111816406,-0.26031494,-0.97491455
1601044983448,271,0.1105957,-0.25738525,-0.97662354
1601044983448,272,0.111816406,-0.2576294,-0.9763794
1601044983449,273,0.111816406,-0.26031494,-0.97491455
1601044983450,274,0.111816406,-0.2576294,-0.9763794
1601044983450,275,0.10986328,-0.25933838,-0.9702759
1601044983451,276,0.111816406,-0.2576294,-0.9763794
1601044983452,277,0.11401367,-0.25860596,-0.97320557
1601044983452,278,0.111572266,-0.25982666,-0.9751587
1601044983452,279,0.10986328,-0.25933838,-0.9702759
1601044983453,280,0.111572266,-0.25982666,-0.9751587
1601044983453,281,0.11401367,-0.25860596,-0.97320557
1601044983453,282,0.10986328,-0.25933838,-0.9702759
1601044983453,283,0.111572266,-0.25982666,-0.9751587
1601044983454,284,0.11328125,-0.25982666,-0.97491455
1601044983455,285,0.11401367,-0.25860596,-0.97320557
1601044983455,286,0.11401367,-0.25860596,-0.97320557
1601044983455,287,0.111083984,-0.25836182,-0.9729614
1601044983456,288,0.11328125,-0.25982666,-0.97491455
1601044983456,289,0.11328125,-0.25982666,-0.97491455
1601044983456,290,0.11328125,-0.25982666,-0.97491455
1601044983457,291,0.111083984,-0.25836182,-0.9729614
1601044983458,292,0.11035156,-0.25836182,-0.97442627
1601044983458,293,0.111083984,-0.25836182,-0.9729614
1601044983458,294,0.111083984,-0.25836182,-0.9729614
1601044983459,295,0.11035156,-0.25836182,-0.97442627
1601044983460,296,0.11035156,-0.25836182,-0.97442627
1601044983460,297,0.111328125,-0.2559204,-0.9729614
1601044983460,298,0.11035156,-0.25836182,-0.97442627
1601044983461,299,0.111328125,-0.2559204,-0.9729614
1601044983461,300,0.111328125,-0.2559204,-0.9729614
1601044983462,301,0.111328125,-0.2559204,-0.9729614
1601044986119,302,0.11254883,-0.25860596,-0.9741821
1601044986121,303,0.11254883,-0.25860596,-0.9741821
1601044986121,304,0.11206055,-0.25933838,-0.9751587
1601044986122,305,0.11254883,-0.25860596,-0.9741821
1601044986122,306,0.11254883,-0.25860596,-0.9741821
1601044986122,307,0.11206055,-0.25933838,-0.9751587
1601044986123,308,0.11279297,-0.26275635,-0.9727173
1601044986125,309,0.11206055,-0.25933838,-0.9751587
1601044986125,310,0.11206055,-0.25933838,-0.9751587
1601044986128,311,0.11279297,-0.26275635,-0.9727173
1601044986128,312,0.11279297,-0.26275635,-0.9727173
1601044986129,313,0.111572266,-0.2612915,-0.9697876
1601044986129,314,0.11279297,-0.26275635,-0.9727173
1601044986129,315,0.111572266,-0.2612915,-0.9697876
1601044986130,316,0.111572266,-0.2612915,-0.9697876
1601044986130,317,0.11401367,-0.2642212,-0.973938
1601044986131,318,0.11401367,-0.2642212,-0.973938
1601044986131,319,0.111572266,-0.2612915,-0.9697876
1601044986132,320,0.11279297,-0.26324463,-0.97247314
1601044986132,321,0.11401367,-0.2642212,-0.973938
1601044986133,322,0.11279297,-0.26324463,-0.97247314
1601044986133,323,0.11254883,-0.26617432,-0.97003174
1601044986133,324,0.11401367,-0.2642212,-0.973938
1601044986134,325,0.11279297,-0.26324463,-0.97247314
1601044986134,326,0.11254883,-0.26617432,-0.97003174
1601044986134,327,0.11279297,-0.26324463,-0.97247314
1601044986134,328,0.111572266,-0.26885986,-0.9690552
1601044986134,329,0.11254883,-0.26617432,-0.97003174
1601044986136,330,0.111572266,-0.26885986,-0.9690552
1601044986136,331,0.11254883,-0.26617432,-0.97003174
1601044986136,332,0.11328125,-0.269104,-0.97247314
1601044986136,333,0.111572266,-0.26885986,-0.9690552
1601044986136,334,0.111572266,-0.26885986,-0.9690552
1601044986138,335,0.11328125,-0.269104,-0.97247314
1601044986138,336,0.11328125,-0.269104,-0.97247314
1601044986138,337,0.11376953,-0.26739502,-0.97320557
1601044986141,338,0.11328125,-0.269104,-0.97247314
1601044986142,339,0.11376953,-0.26739502,-0.97320557
1601044986142,340,0.11376953,-0.26739502,-0.97320557
1601044986142,341,0.11254883,-0.26617432,-0.9763794
1601044986142,342,0.11254883,-0.26617432,-0.9763794
1601044986142,343,0.11376953,-0.26739502,-0.97320557
1601044986142,344,0.11254883,-0.26617432,-0.9763794
1601044986143,345,0.10864258,-0.2678833,-0.9697876
1601044986143,346,0.11254883,-0.26617432,-0.9763794
1601044986143,347,0.10864258,-0.2678833,-0.9697876
1601044986144,348,0.10864258,-0.2678833,-0.9697876
1601044986144,349,0.11401367,-0.26812744,-0.97247314
1601044986146,350,0.11401367,-0.26812744,-0.97247314
1601044986146,351,0.11401367,-0.26812744,-0.97247314
1601044986146,352,0.11425781,-0.26690674,-0.9714966
1601044986146,353,0.11425781,-0.26690674,-0.9714966
1601044986147,354,0.10864258,-0.2678833,-0.9697876
1601044986147,355,0.11425781,-0.26690674,-0.9714966
1601044986147,356,0.11450195,-0.26397705,-0.972229
1601044986147,357,0.11450195,-0.26397705,-0.972229
1601044986147,358,0.11401367,-0.26812744,-0.97247314
1601044986147,359,0.11206055,-0.26275635,-0.9727173
1601044986148,360,0.11206055,-0.26275635,-0.9727173
1601044986148,361,0.11450195,-0.26397705,-0.972229
1601044986148,362,0.11425781,-0.26690674,-0.9714966
1601044986149,363,0.11425781,-0.2649536,-0.97442627
1601044986151,364,0.11425781,-0.2649536,-0.97442627
1601044986151,365,0.11230469,-0.26593018,-0.9729614
1601044986151,366,0.11206055,-0.26275635,-0.9727173
1601044986152,367,0.11230469,-0.26593018,-0.9729614
1601044986153,368,0.111816406,-0.26593018,-0.97247314
1601044986153,369,0.11425781,-0.2649536,-0.97442627
1601044986153,370,0.1105957,-0.26617432,-0.9729614
1601044986153,371,0.11450195,-0.26397705,-0.972229
1601044986154,372,0.111816406,-0.26593018,-0.97247314
1601044986154,373,0.11230469,-0.26593018,-0.9729614
1601044986154,374,0.111816406,-0.26593018,-0.97247314
1601044986155,375,0.1105957,-0.26617432,-0.9729614
1601044986155,376,0.1105957,-0.26617432,-0.9729614
1601044986156,377,0.11206055,-0.26275635,-0.9727173
1601044986156,378,0.111083984,-0.26568604,-0.9702759
1601044986156,379,0.111083984,-0.26568604,-0.9702759
1601044986157,380,0.11425781,-0.2649536,-0.97442627
1601044986157,381,0.11303711,-0.26837158,-0.9710083
1601044986158,382,0.11230469,-0.26593018,-0.9729614
1601044986158,383,0.11303711,-0.26837158,-0.9710083
1601044986159,384,0.111816406,-0.2654419,-0.97125244
1601044986159,385,0.111083984,-0.26568604,-0.9702759
1601044986159,386,0.111816406,-0.26593018,-0.97247314
1601044986159,387,0.111816406,-0.2654419,-0.97125244
1601044986159,388,0.111572266,-0.2666626,-0.9702759
1601044986160,389,0.11303711,-0.26837158,-0.9710083
1601044986161,390,0.11206055,-0.2625122,-0.975647
1601044986161,391,0.1105957,-0.26617432,-0.9729614
1601044986161,392,0.111816406,-0.2654419,-0.97125244
1601044986162,393,0.11206055,-0.26861572,-0.9727173
1601044986162,394,0.111083984,-0.26568604,-0.9702759
1601044986162,395,0.11303711,-0.26837158,-0.9710083
1601044986163,396,0.1105957,-0.26593018,-0.97052
1601044986163,397,0.111572266,-0.2666626,-0.9702759
1601044986163,398,0.10864258,-0.26690674,-0.97076416
1601044986164,399,0.111572266,-0.2666626,-0.9702759
1601044986164,400,0.10986328,-0.26690674,-0.96954346
1601044986165,401,0.111816406,-0.2654419,-0.97125244
1601044986165,402,0.10913086,-0.26519775,-0.972229
1601044986165,403,0.111572266,-0.2666626,-0.9702759
1601044986166,404,0.11206055,-0.2625122,-0.975647
1601044986167,405,0.11206055,-0.2625122,-0.975647
1601044986169,406,0.11206055,-0.26861572,-0.9727173
1601044986170,407,0.11254883,-0.2666626,-0.9729614
1601044986170,408,0.11206055,-0.2625122,-0.975647
1601044986170,409,0.11206055,-0.26861572,-0.9727173
1601044986170,410,0.11010742,-0.26470947,-0.9746704
1601044986171,411,0.11206055,-0.26861572,-0.9727173
1601044986171,412,0.1105957,-0.26593018,-0.97052
1601044986171,413,0.1105957,-0.26593018,-0.97052
1601044986172,414,0.10864258,-0.26690674,-0.97076416
1601044986172,415,0.10864258,-0.26690674,-0.97076416
1601044986172,416,0.10986328,-0.26690674,-0.96954346
1601044986173,417,0.10986328,-0.26690674,-0.96954346
1601044986174,418,0.10913086,-0.26519775,-0.972229
1601044986174,419,0.1105957,-0.26593018,-0.97052
1601044986174,420,0.10913086,-0.26519775,-0.972229
1601044986175,421,0.11254883,-0.2666626,-0.9729614
1601044986175,422,0.10864258,-0.26690674,-0.97076416
1601044986175,423,0.11010742,-0.26470947,-0.9746704
1601044986177,424,0.10986328,-0.26690674,-0.96954346
1601044986177,425,0.11254883,-0.2666626,-0.9729614
1601044986178,426,0.11010742,-0.26470947,-0.9746704
1601044986178,427,0.10913086,-0.26519775,-0.972229
1601044986180,428,0.11254883,-0.2666626,-0.9729614
1601044986181,429,0.11010742,-0.26470947,-0.9746704
1601044988659,430,0.110839844,-0.2678833,-0.96881104
1601044988659,431,0.110839844,-0.2678833,-0.96881104
1601044988660,432,0.10986328,-0.26519775,-0.973938
1601044988661,433,0.110839844,-0.2678833,-0.96881104
1601044988663,434,0.10986328,-0.26519775,-0.973938
1601044988663,435,0.11010742,-0.26837158,-0.97320557
1601044988664,436,0.10986328,-0.26519775,-0.973938
1601044988667,437,0.110839844,-0.2654419,-0.9702759
1601044988669,438,0.110839844,-0.2678833,-0.96881104
1601044988670,439,0.11010742,-0.26837158,-0.97320557
1601044988671,440,0.11010742,-0.26837158,-0.97320557
1601044988671,441,0.10986328,-0.26519775,-0.973938
1601044988671,442,0.110839844,-0.2654419,-0.9702759
1601044988672,443,0.1105957,-0.26617432,-0.97076416
1601044988672,444,0.110839844,-0.2654419,-0.9702759
1601044988675,445,0.11010742,-0.26837158,-0.97320557
1601044988675,446,0.1105957,-0.26617432,-0.97076416
1601044988675,447,0.11035156,-0.26739502,-0.9729614
1601044988675,448,0.11035156,-0.26739502,-0.9729614
1601044988675,449,0.1105957,-0.26617432,-0.97076416
1601044988676,450,0.110839844,-0.2654419,-0.9702759
1601044988676,451,0.11035156,-0.26641846,-0.9729614
1601044988676,452,0.11035156,-0.26641846,-0.9729614
1601044988677,453,0.1105957,-0.26617432,-0.97076416
1601044988678,454,0.11035156,-0.26739502,-0.9729614
1601044988678,455,0.11230469,-0.26470947,-0.96881104
1601044988678,456,0.11230469,-0.26470947,-0.96881104
1601044988678,457,0.11035156,-0.26641846,-0.9729614
1601044988680,458,0.11035156,-0.26739502,-0.9729614
1601044988681,459,0.109375,-0.2654419,-0.9734497
1601044988681,460,0.11230469,-0.26470947,-0.96881104
1601044988681,461,0.109375,-0.2654419,-0.9734497
1601044988681,462,0.11279297,-0.26641846,-0.97247314
1601044988681,463,0.11279297,-0.26641846,-0.97247314
1601044988681,464,0.109375,-0.2654419,-0.9734497
1601044988681,465,0.11035156,-0.26641846,-0.9729614
1601044988682,466,0.11279297,-0.26641846,-0.97247314
1601044988682,467,0.11230469,-0.26470947,-0.96881104
1601044988682,468,0.109375,-0.26617432,-0.97320557
1601044988683,469,0.109375,-0.2654419,-0.9734497
1601044988684,470,0.109375,-0.26617432,-0.97320557
1601044988685,471,0.109375,-0.26617432,-0.97320557
1601044988685,472,0.11254883,-0.2678833,-0.9714966
1601044988685,473,0.11279297,-0.26641846,-0.97247314
1601044988686,474,0.11254883,-0.2678833,-0.9714966
1601044988687,475,0.11254883,-0.2678833,-0.9714966
1601044988687,476,0.1105957,-0.26446533,-0.97198486
1601044988687,477,0.109375,-0.26617432,-0.97320557
1601044988687,478,0.1105957,-0.26446533,-0.97198486
1601044988687,479,0.11206055,-0.26617432,-0.9710083
1601044988687,480,0.11206055,-0.26617432,-0.9710083
1601044988692,481,0.111328125,-0.2654419,-0.97125244
1601044988692,482,0.11254883,-0.2678833,-0.9714966
1601044988692,483,0.1105957,-0.26446533,-0.97198486
1601044988693,484,0.1105957,-0.26446533,-0.97198486
1601044988694,485,0.11206055,-0.26617432,-0.9710083
1601044988694,486,0.11206055,-0.26617432,-0.9710083
1601044988694,487,0.111328125,-0.2654419,-0.97125244
1601044988694,488,0.111572266,-0.26690674,-0.97198486
1601044988694,489,0.111328125,-0.2654419,-0.97125244
1601044988694,490,0.111572266,-0.26690674,-0.97198486
1601044988694,491,0.111328125,-0.2654419,-0.97125244
1601044988695,492,0.111572266,-0.26690674,-0.97198486
1601044988696,493,0.10888672,-0.26519775,-0.97491455
1601044988696,494,0.111572266,-0.26690674,-0.97198486
1601044988697,495,0.10888672,-0.26519775,-0.97491455
1601044988697,496,0.10888672,-0.26641846,-0.97198486
1601044988698,497,0.111816406,-0.26348877,-0.9727173
1601044988700,498,0.10888672,-0.26641846,-0.97198486
1601044988701,499,0.10888672,-0.26519775,-0.97491455
1601044988701,500,0.111572266,-0.26837158,-0.9758911
1601044988701,501,0.111816406,-0.26348877,-0.9727173
1601044988701,502,0.10888672,-0.26519775,-0.97491455
1601044988701,503,0.10888672,-0.26641846,-0.97198486
1601044988701,504,0.111572266,-0.26837158,-0.9758911
1601044988702,505,0.11279297,-0.26593018,-0.9751587
1601044988702,506,0.10888672,-0.26641846,-0.97198486
1601044988705,507,0.111816406,-0.26348877,-0.9727173
1601044988705,508,0.111816406,-0.26348877,-0.9727173
1601044988705,509,0.111328125,-0.26348877,-0.973938
1601044988705,510,0.11279297,-0.26593018,-0.9751587
1601044988706,511,0.111572266,-0.26837158,-0.9758911
1601044988706,512,0.111083984,-0.26397705,-0.9751587
1601044988706,513,0.11279297,-0.26593018,-0.9751587
1601044988707,514,0.111328125,-0.26348877,-0.973938
1601044988707,515,0.111328125,-0.26348877,-0.973938
1601044988707,516,0.111083984,-0.26397705,-0.9751587
1601044988707,517,0.111083984,-0.26397705,-0.9751587
1601044988720,518,0.111572266,-0.26519775,-0.96881104
1601044988720,519,0.111572266,-0.26519775,-0.96881104
1601044988721,520,0.111572266,-0.26519775,-0.96881104
1601044988721,521,0.11010742,-0.26617432,-0.97320557
1601044988721,522,0.11010742,-0.26617432,-0.97320557
1601044988721,523,0.110839844,-0.2637329,-0.9729614
1601044988721,524,0.10839844,-0.2654419,-0.972229
1601044988721,525,0.110839844,-0.2637329,-0.9729614
1601044988721,526,0.110839844,-0.2654419,-0.9727173
1601044988721,527,0.10839844,-0.2654419,-0.972229
1601044988721,528,0.110839844,-0.2654419,-0.9727173
1601044988721,529,0.10961914,-0.26641846,-0.97052
1601044988721,530,0.10961914,-0.26641846,-0.97052
1601044988722,531,0.111572266,-0.26470947,-0.9710083
1601044988722,532,0.111572266,-0.26470947,-0.9710083
1601044988722,533,0.111572266,-0.26446533,-0.97369385
1601044988722,534,0.111572266,-0.26446533,-0.97369385
1601044988722,535,0.109375,-0.2625122,-0.97442627
1601044988722,536,0.109375,-0.2625122,-0.97442627
1601044988723,537,0.111572266,-0.26837158,-0.9758911
1601044988728,538,0.11010742,-0.26617432,-0.97320557
1601044988732,539,0.110839844,-0.2637329,-0.9729614
1601044988732,540,0.10839844,-0.2654419,-0.972229
1601044988732,541,0.11279297,-0.26593018,-0.9751587
1601044988732,542,0.111328125,-0.26348877,-0.973938
1601044988732,543,0.110839844,-0.2654419,-0.9727173
1601044988732,544,0.111083984,-0.26397705,-0.9751587
1601044988733,545,0.111572266,-0.26519775,-0.96881104
1601044988734,546,0.11010742,-0.26617432,-0.97320557
1601044988734,547,0.10961914,-0.26641846,-0.97052
1601044988735,548,0.110839844,-0.2637329,-0.9729614
1601044988735,549,0.10839844,-0.2654419,-0.972229
1601044988736,550,0.110839844,-0.2654419,-0.9727173
1601044988737,551,0.111572266,-0.26470947,-0.9710083
1601044988738,552,0.10961914,-0.26641846,-0.97052
1601044988738,553,0.111572266,-0.26446533,-0.97369385
1601044988738,554,0.111572266,-0.26470947,-0.9710083
1601044988739,555,0.109375,-0.2625122,-0.97442627
1601044988741,556,0.111572266,-0.26446533,-0.97369385
1601044988741,557,0.109375,-0.2625122,-0.97442627
1601044991579,558,0.11328125,-0.2654419,-0.9727173
1601044991582,559,0.11328125,-0.2654419,-0.9727173
1601044991582,560,0.11328125,-0.2654419,-0.9727173
1601044991582,561,0.11328125,-0.26446533,-0.9741821
1601044991582,562,0.11328125,-0.2654419,-0.9727173
1601044991584,563,0.11328125,-0.26446533,-0.9741821
1601044991584,564,0.11328125,-0.26446533,-0.9741821
1601044991585,565,0.11328125,-0.26446533,-0.9741821
1601044991588,566,0.111328125,-0.26202393,-0.9763794
1601044991591,567,0.111328125,-0.26202393,-0.9763794
1601044991592,568,0.111328125,-0.26202393,-0.9763794
1601044991592,569,0.111328125,-0.26202393,-0.9763794
1601044991592,570,0.11303711,-0.26446533,-0.9702759
1601044991592,571,0.11303711,-0.26446533,-0.9702759
1601044991592,572,0.11303711,-0.26446533,-0.9702759
1601044991592,573,0.11303711,-0.26446533,-0.9702759
1601044991592,574,0.11035156,-0.26348877,-0.97198486
1601044991592,575,0.11035156,-0.26348877,-0.97198486
1601044991593,576,0.11035156,-0.26348877,-0.97198486
1601044991594,577,0.10888672,-0.26202393,-0.97247314
1601044991594,578,0.10888672,-0.26202393,-0.97247314
1601044991594,579,0.11035156,-0.26348877,-0.97198486
1601044991595,580,0.10888672,-0.26202393,-0.97247314
1601044991597,581,0.10961914,-0.26055908,-0.9729614
1601044991597,582,0.10961914,-0.26055908,-0.9729614
1601044991597,583,0.10961914,-0.26055908,-0.9729614
1601044991597,584,0.111083984,-0.26080322,-0.9729614
1601044991598,585,0.111083984,-0.26080322,-0.9729614
1601044991598,586,0.10986328,-0.25933838,-0.973938
1601044991599,587,0.10888672,-0.26202393,-0.97247314
1601044991600,588,0.10839844,-0.2612915,-0.97369385
1601044991600,589,0.111083984,-0.26080322,-0.9729614
1601044991600,590,0.10986328,-0.25933838,-0.973938
1601044991601,591,0.10839844,-0.2612915,-0.97369385
1601044991602,592,0.10961914,-0.2630005,-0.9741821
1601044991602,593,0.10986328,-0.25933838,-0.973938
1601044991602,594,0.10961914,-0.26055908,-0.9729614
1601044991602,595,0.111816406,-0.2600708,-0.9734497
1601044991603,596,0.10839844,-0.2612915,-0.97369385
1601044991603,597,0.10961914,-0.2630005,-0.9741821
1601044991603,598,0.11254883,-0.2625122,-0.9717407
1601044991603,599,0.10961914,-0.2630005,-0.9741821
1601044991606,600,0.10888672,-0.26275635,-0.97247314
1601044991606,601,0.111816406,-0.2600708,-0.9734497
1601044991606,602,0.111816406,-0.2600708,-0.9734497
1601044991606,603,0.111083984,-0.26080322,-0.9729614
1601044991607,604,0.10986328,-0.25933838,-0.973938
1601044991607,605,0.107177734,-0.26446533,-0.97125244
1601044991608,606,0.11254883,-0.2625122,-0.9717407
1601044991608,607,0.11254883,-0.2625122,-0.9717407
1601044991612,608,0.10839844,-0.2612915,-0.97369385
1601044991613,609,0.109375,-0.26348877,-0.972229
1601044991613,610,0.10888672,-0.26275635,-0.97247314
1601044991613,611,0.10888672,-0.26275635,-0.97247314
1601044991613,612,0.111572266,-0.26153564,-0.97613525
1601044991613,613,0.10961914,-0.2630005,-0.9741821
1601044991613,614,0.107177734,-0.26446533,-0.97125244
1601044991613,615,0.111816406,-0.2600708,-0.9734497
1601044991614,616,0.107177734,-0.26446533,-0.97125244
1601044991614,617,0.111083984,-0.26397705,-0.97247314
1601044991614,618,0.109375,-0.26348877,-0.972229
1601044991616,619,0.109375,-0.26348877,-0.972229
1601044991616,620,0.11254883,-0.2625122,-0.9717407
1601044991617,621,0.111572266,-0.26153564,-0.97613525
1601044991617,622,0.11206055,-0.2630005,-0.97198486
1601044991618,623,0.111572266,-0.26153564,-0.97613525
1601044991619,624,0.10888672,-0.26275635,-0.97247314
1601044991620,625,0.111083984,-0.26397705,-0.97247314
1601044991620,626,0.111083984,-0.26397705,-0.97247314
1601044991620,627,0.11010742,-0.26470947,-0.9741821
1601044991621,628,0.107177734,-0.26446533,-0.97125244
1601044991622,629,0.11206055,-0.2630005,-0.97198486
1601044991622,630,0.11206055,-0.2630005,-0.97198486
1601044991623,631,0.11206055,-0.26324463,-0.97003174
1601044991624,632,0.11010742,-0.26470947,-0.9741821
1601044991624,633,0.11010742,-0.26470947,-0.9741821
1601044991625,634,0.111328125,-0.26397705,-0.96954346
1601044991626,635,0.109375,-0.26348877,-0.972229
1601044991627,636,0.11206055,-0.26324463,-0.97003174
1601044991627,637,0.11206055,-0.26324463,-0.97003174
1601044991627,638,0.111572266,-0.26690674,-0.972229
1601044991627,639,0.111572266,-0.26153564,-0.97613525
1601044991628,640,0.111328125,-0.26397705,-0.96954346
1601044991628,641,0.111083984,-0.26397705,-0.97247314
1601044991629,642,0.10839844,-0.26226807,-0.97662354
1601044991634,643,0.111328125,-0.26397705,-0.96954346
1601044991635,644,0.111572266,-0.26690674,-0.972229
1601044991635,645,0.111572266,-0.26690674,-0.972229
1601044991635,646,0.10839844,-0.26226807,-0.97662354
1601044991638,647,0.11206055,-0.2630005,-0.97198486
1601044991638,648,0.11035156,-0.2642212,-0.97198486
1601044991638,649,0.10839844,-0.26226807,-0.97662354
1601044991638,650,0.11035156,-0.2642212,-0.97198486
1601044991641,651,0.111816406,-0.26519775,-0.9734497
1601044991641,652,0.111816406,-0.26519775,-0.9734497
1601044991641,653,0.11035156,-0.2642212,-0.97198486
1601044991641,654,0.11010742,-0.26470947,-0.9741821
1601044991642,655,0.10913086,-0.2654419,-0.97247314
1601044991642,656,0.111816406,-0.26519775,-0.9734497
1601044991643,657,0.10913086,-0.2654419,-0.97247314
1601044991643,658,0.11206055,-0.26324463,-0.97003174
1601044991645,659,0.111572266,-0.26470947,-0.9763794
1601044991645,660,0.111572266,-0.26470947,-0.9763794
1601044991645,661,0.111328125,-0.26397705,-0.96954346
1601044991645,662,0.11279297,-0.2678833,-0.9727173
1601044991645,663,0.11279297,-0.2678833,-0.9727173
1601044991645,664,0.10913086,-0.2654419,-0.97247314
1601044991645,665,0.11010742,-0.27008057,-0.9668579
1601044991646,666,0.11010742,-0.27008057,-0.9668579
1601044991647,667,0.10986328,-0.27374268,-0.97003174
1601044991647,668,0.111572266,-0.26690674,-0.972229
1601044991648,669,0.111572266,-0.26470947,-0.9763794
1601044991648,670,0.11254883,-0.2744751,-0.97003174
1601044991648,671,0.10986328,-0.27374268,-0.97003174
1601044991649,672,0.11279297,-0.2678833,-0.9727173
1601044991652,673,0.10839844,-0.26226807,-0.97662354
1601044991652,674,0.11010742,-0.27008057,-0.9668579
1601044991652,675,0.11254883,-0.2744751,-0.97003174
1601044991652,676,0.10986328,-0.27374268,-0.97003174
1601044991652,677,0.11035156,-0.2642212,-0.97198486
1601044991652,678,0.11254883,-0.2744751,-0.97003174
1601044991653,679,0.111816406,-0.26519775,-0.9734497
1601044991654,680,0.10913086,-0.2654419,-0.97247314
1601044991656,681,0.111572266,-0.26470947,-0.9763794
1601044991658,682,0.11279297,-0.2678833,-0.9727173
1601044991658,683,0.11010742,-0.27008057,-0.9668579
1601044991659,684,0.10986328,-0.27374268,-0.97003174
1601044991661,685,0.11254883,-0.2744751,-0.97003174
1601044993750,686,0.11230469,-0.27642822,-0.9644165
1601044993750,687,0.11230469,-0.27642822,-0.9644165
1601044993750,688,0.11230469,-0.27642822,-0.9644165
1601044993751,689,0.11230469,-0.27642822,-0.9644165
1601044993751,690,0.111816406,-0.27593994,-0.96954346
1601044993752,691,0.111816406,-0.27593994,-0.96954346
1601044993752,692,0.111572266,-0.27130127,-0.9680786
1601044993752,693,0.111816406,-0.27593994,-0.96954346
1601044993752,694,0.111572266,-0.27130127,-0.9680786
1601044993754,695,0.111572266,-0.27130127,-0.9680786
1601044993754,696,0.111816406,-0.27593994,-0.96954346
1601044993754,697,0.11450195,-0.2732544,-0.96881104
1601044993755,698,0.111572266,-0.27130127,-0.9680786
1601044993755,699,0.11450195,-0.2732544,-0.96881104
1601044993756,700,0.11450195,-0.2732544,-0.96881104
1601044993757,701,0.11450195,-0.2732544,-0.96881104
1601044993758,702,0.11328125,-0.27496338,-0.96954346
1601044993758,703,0.11328125,-0.27496338,-0.96954346
1601044993758,704,0.11328125,-0.27496338,-0.96954346
1601044993759,705,0.1105957,-0.27008057,-0.9714966
1601044993759,706,0.1105957,-0.27008057,-0.9714966
1601044993759,707,0.1105957,-0.27008057,-0.9714966
1601044993761,708,0.11303711,-0.26983643,-0.9692993
1601044993761,709,0.11303711,-0.26983643,-0.9692993
1601044993761,710,0.11254883,-0.27178955,-0.9710083
1601044993762,711,0.11328125,-0.27496338,-0.96954346
1601044993762,712,0.106933594,-0.26837158,-0.973938
1601044993763,713,0.11254883,-0.27178955,-0.9710083
1601044993763,714,0.1105957,-0.27008057,-0.9714966
1601044993763,715,0.10986328,-0.26885986,-0.9710083
1601044993765,716,0.11303711,-0.26983643,-0.9692993
1601044993765,717,0.11303711,-0.26983643,-0.9692993
1601044993765,718,0.111572266,-0.27130127,-0.9714966
1601044993765,719,0.11254883,-0.27178955,-0.9710083
1601044993766,720,0.11254883,-0.27178955,-0.9710083
1601044993766,721,0.106933594,-0.26837158,-0.973938
1601044993767,722,0.110839844,-0.2715454,-0.9717407
1601044993767,723,0.10986328,-0.26885986,-0.9710083
1601044993767,724,0.1105957,-0.2715454,-0.97125244
1601044993768,725,0.106933594,-0.26837158,-0.973938
1601044993768,726,0.11230469,-0.26934814,-0.97369385
1601044993771,727,0.111572266,-0.27130127,-0.9714966
1601044993771,728,0.106933594,-0.26837158,-0.973938
1601044993771,729,0.10864258,-0.26568604,-0.97198486
1601044993772,730,0.110839844,-0.2715454,-0.9717407
1601044993773,731,0.111572266,-0.26763916,-0.972229
1601044993773,732,0.10986328,-0.26885986,-0.9710083
1601044993775,733,0.111572266,-0.27130127,-0.9714966
1601044993776,734,0.10986328,-0.26885986,-0.9710083
1601044993776,735,0.106933594,-0.2666626,-0.9702759
1601044993776,736,0.1105957,-0.2715454,-0.97125244
1601044993776,737,0.111572266,-0.27130127,-0.9714966
1601044993780,738,0.110839844,-0.2715454,-0.9717407
1601044993780,739,0.1081543,-0.26739502,-0.97369385
1601044993780,740,0.107421875,-0.2666626,-0.9710083
1601044993780,741,0.110839844,-0.2715454,-0.9717407
1601044993783,742,0.11230469,-0.26934814,-0.97369385
1601044993785,743,0.10888672,-0.26324463,-0.9729614
1601044993785,744,0.1105957,-0.2715454,-0.97125244
1601044993785,745,0.1105957,-0.2715454,-0.97125244
1601044993785,746,0.11230469,-0.26934814,-0.97369385
1601044993785,747,0.10864258,-0.26568604,-0.97198486
1601044993785,748,0.111572266,-0.26763916,-0.972229
1601044993785,749,0.10864258,-0.26568604,-0.97198486
1601044993785,750,0.111572266,-0.26763916,-0.972229
1601044993788,751,0.11230469,-0.26934814,-0.97369385
1601044993788,752,0.10668945,-0.2642212,-0.9702759
1601044993790,753,0.106933594,-0.2666626,-0.9702759
1601044993790,754,0.10864258,-0.26568604,-0.97198486
1601044993791,755,0.111572266,-0.26763916,-0.972229
1601044993792,756,0.1081543,-0.26739502,-0.97369385
1601044993792,757,0.106933594,-0.2666626,-0.9702759
1601044993792,758,0.10888672,-0.26617432,-0.972229
1601044993792,759,0.107421875,-0.2666626,-0.9710083
1601044993793,760,0.106933594,-0.2666626,-0.9702759
1601044993795,761,0.10888672,-0.26324463,-0.9729614
1601044993795,762,0.1081543,-0.26739502,-0.97369385
1601044993795,763,0.1081543,-0.26739502,-0.97369385
1601044993796,764,0.10986328,-0.26812744,-0.9717407
1601044993796,765,0.10668945,-0.2642212,-0.9702759
1601044993800,766,0.107421875,-0.2666626,-0.9710083
1601044993801,767,0.10888672,-0.26617432,-0.972229
1601044993801,768,0.10986328,-0.26690674,-0.97198486
1601044993806,769,0.10839844,-0.26885986,-0.9710083
1601044993807,770,0.10888672,-0.26324463,-0.9729614
1601044993807,771,0.10986328,-0.26812744,-0.9717407
1601044993807,772,0.11279297,-0.26617432,-0.97491455
1601044993808,773,0.10986328,-0.26690674,-0.97198486
1601044993808,774,0.10668945,-0.2642212,-0.9702759
1601044993808,775,0.107421875,-0.2666626,-0.9710083
1601044993810,776,0.10839844,-0.26885986,-0.9710083
1601044993815,777,0.10961914,-0.26641846,-0.9710083
1601044993815,778,0.11279297,-0.26617432,-0.97491455
1601044993815,779,0.10888672,-0.26324463,-0.9729614
1601044993815,780,0.10888672,-0.26617432,-0.972229
1601044993815,781,0.10961914,-0.26641846,-0.9710083
1601044993815,782,0.11010742,-0.2642212,-0.97369385
1601044993816,783,0.10668945,-0.2642212,-0.9702759
1601044993816,784,0.10888672,-0.26617432,-0.972229
1601044993816,785,0.10888672,-0.26715088,-0.9746704
1601044993819,786,0.11010742,-0.2642212,-0.97369385
1601044993819,787,0.10888672,-0.26715088,-0.9746704
1601044993819,788,0.10595703,-0.2678833,-0.9727173
1601044993819,789,0.10986328,-0.26812744,-0.9717407
1601044993819,790,0.10986328,-0.26812744,-0.9717407
1601044993819,791,0.10595703,-0.2678833,-0.9727173
1601044993820,792,0.106933594,-0.2695923,-0.97003174
1601044993821,793,0.10986328,-0.26690674,-0.97198486
1601044993821,794,0.10986328,-0.26690674,-0.97198486
1601044993821,795,0.106933594,-0.2695923,-0.97003174
1601044993822,796,0.10961914,-0.269104,-0.9727173
1601044993822,797,0.10839844,-0.26885986,-0.9710083
1601044993822,798,0.11279297,-0.26617432,-0.97491455
1601044993822,799,0.10839844,-0.26885986,-0.9710083
1601044993824,800,0.10961914,-0.269104,-0.9727173
1601044993824,801,0.10961914,-0.26641846,-0.9710083
1601044993825,802,0.11279297,-0.26617432,-0.97491455
1601044993827,803,0.11010742,-0.2642212,-0.97369385
1601044993829,804,0.10961914,-0.26641846,-0.9710083
1601044993829,805,0.10888672,-0.26715088,-0.9746704
1601044993829,806,0.11010742,-0.2642212,-0.97369385
1601044993830,807,0.10888672,-0.26715088,-0.9746704
1601044993831,808,0.10595703,-0.2678833,-0.9727173
1601044993831,809,0.10595703,-0.2678833,-0.9727173
1601044993832,810,0.106933594,-0.2695923,-0.97003174
1601044993832,811,0.106933594,-0.2695923,-0.97003174
1601044993832,812,0.10961914,-0.269104,-0.9727173
1601044993833,813,0.10961914,-0.269104,-0.9727173
1601044996451,814,0.111083984,-0.2703247,-0.9717407
1601044996453,815,0.10913086,-0.2678833,-0.97003174
1601044996453,816,0.111083984,-0.2703247,-0.9717407
1601044996453,817,0.111083984,-0.2703247,-0.9717407
1601044996453,818,0.10913086,-0.2678833,-0.97003174
1601044996454,819,0.10913086,-0.2678833,-0.97003174
1601044996454,820,0.10888672,-0.26934814,-0.9710083
1601044996455,821,0.10986328,-0.270813,-0.97247314
1601044996456,822,0.110839844,-0.26983643,-0.9702759
1601044996457,823,0.10888672,-0.26934814,-0.9710083
1601044996457,824,0.111328125,-0.2715454,-0.9690552
1601044996461,825,0.10986328,-0.270813,-0.97247314
1601044996461,826,0.111083984,-0.270813,-0.9729614
1601044996462,827,0.10888672,-0.26934814,-0.9710083
1601044996462,828,0.111083984,-0.2703247,-0.9717407
1601044996462,829,0.10913086,-0.2678833,-0.97003174
1601044996462,830,0.10986328,-0.270813,-0.97247314
1601044996462,831,0.10986328,-0.26983643,-0.97198486
1601044996462,832,0.110839844,-0.26983643,-0.9702759
1601044996462,833,0.10888672,-0.26934814,-0.9710083
1601044996463,834,0.110839844,-0.26983643,-0.9702759
1601044996463,835,0.111328125,-0.2715454,-0.9690552
1601044996464,836,0.10986328,-0.270813,-0.97247314
1601044996464,837,0.11010742,-0.27227783,-0.97052
1601044996464,838,0.111083984,-0.270813,-0.9729614
1601044996464,839,0.111083984,-0.27056885,-0.9697876
1601044996467,840,0.111328125,-0.2715454,-0.9690552
1601044996468,841,0.1081543,-0.2678833,-0.9729614
1601044996469,842,0.110839844,-0.26983643,-0.9702759
1601044996470,843,0.111083984,-0.270813,-0.9729614
1601044996470,844,0.10986328,-0.26983643,-0.97198486
1601044996470,845,0.10864258,-0.26837158,-0.9710083
1601044996471,846,0.10986328,-0.26983643,-0.97198486
1601044996472,847,0.107910156,-0.27130127,-0.9678345
1601044996472,848,0.11010742,-0.27227783,-0.97052
1601044996474,849,0.10986328,-0.26739502,-0.97247314
1601044996474,850,0.111328125,-0.2715454,-0.9690552
1601044996474,851,0.11010742,-0.27227783,-0.97052
1601044996474,852,0.111083984,-0.27056885,-0.9697876
1601044996474,853,0.111083984,-0.27056885,-0.9697876
1601044996475,854,0.111083984,-0.270813,-0.9729614
1601044996476,855,0.10986328,-0.26593018,-0.9776001
1601044996476,856,0.1081543,-0.2678833,-0.9729614
1601044996476,857,0.10986328,-0.26983643,-0.97198486
1601044996476,858,0.11010742,-0.26934814,-0.97369385
1601044996476,859,0.10864258,-0.26837158,-0.9710083
1601044996476,860,0.11010742,-0.27227783,-0.97052
1601044996476,861,0.107910156,-0.27130127,-0.9678345
1601044996476,862,0.10986328,-0.26739502,-0.97247314
1601044996477,863,0.10986328,-0.26593018,-0.9776001
1601044996477,864,0.11010742,-0.26934814,-0.97369385
1601044996478,865,0.1105957,-0.2678833,-0.97052
1601044996479,866,0.111083984,-0.27056885,-0.9697876
1601044996479,867,0.1105957,-0.2678833,-0.97052
1601044996479,868,0.1081543,-0.2678833,-0.9729614
1601044996479,869,0.10913086,-0.26861572,-0.973938
1601044996479,870,0.10913086,-0.26861572,-0.973938
1601044996479,871,0.1081543,-0.2678833,-0.9729614
1601044996479,872,0.10986328,-0.2625122,-0.973938
1601044996481,873,0.10986328,-0.2625122,-0.973938
1601044996481,874,0.111328125,-0.26519775,-0.9729614
1601044996482,875,0.111328125,-0.26519775,-0.9729614
1601044996482,876,0.10986328,-0.26470947,-0.972229
1601044996484,877,0.10864258,-0.26837158,-0.9710083
1601044996484,878,0.107910156,-0.26446533,-0.9751587
1601044996485,879,0.10986328,-0.26470947,-0.972229
1601044996485,880,0.11035156,-0.26446533,-0.97320557
1601044996485,881,0.10864258,-0.26837158,-0.9710083
1601044996485,882,0.107910156,-0.26446533,-0.9751587
1601044996487,883,0.107910156,-0.27130127,-0.9678345
1601044996487,884,0.107910156,-0.27130127,-0.9678345
1601044996488,885,0.11035156,-0.26446533,-0.97320557
1601044996488,886,0.10986328,-0.26739502,-0.97247314
1601044996490,887,0.10986328,-0.26739502,-0.97247314
1601044996490,888,0.107666016,-0.26275635,-0.97491455
1601044996490,889,0.10986328,-0.26593018,-0.9776001
1601044996491,890,0.10986328,-0.26593018,-0.9776001
1601044996491,891,0.107666016,-0.26275635,-0.97491455
1601044996491,892,0.11010742,-0.26934814,-0.97369385
1601044996491,893,0.1081543,-0.26470947,-0.9741821
1601044996491,894,0.1081543,-0.26470947,-0.9741821
1601044996492,895,0.1105957,-0.2678833,-0.97052
1601044996492,896,0.109375,-0.2642212,-0.97369385
1601044996492,897,0.10913086,-0.26861572,-0.973938
1601044996492,898,0.109375,-0.2642212,-0.97369385
1601044996494,899,0.11035156,-0.26324463,-0.9702759
1601044996494,900,0.11035156,-0.26324463,-0.9702759
1601044996494,901,0.10986328,-0.2625122,-0.973938
1601044996495,902,0.10888672,-0.26593018,-0.97442627
1601044996498,903,0.10888672,-0.26593018,-0.97442627
1601044996498,904,0.111572266,-0.26593018,-0.9768677
1601044996499,905,0.111328125,-0.26519775,-0.9729614
1601044996499,906,0.111328125,-0.2666626,-0.97247314
1601044996499,907,0.111572266,-0.26593018,-0.9768677
1601044996499,908,0.11010742,-0.26934814,-0.97369385
1601044996500,909,0.10986328,-0.26470947,-0.972229
1601044996500,910,0.111328125,-0.2666626,-0.97247314
1601044996501,911,0.10913086,-0.26446533,-0.9727173
1601044996501,912,0.1105957,-0.2678833,-0.97052
1601044996501,913,0.107910156,-0.26446533,-0.9751587
1601044996501,914,0.10913086,-0.26446533,-0.9727173
1601044996501,915,0.11035156,-0.26446533,-0.97320557
1601044996501,916,0.109375,-0.26568604,-0.9717407
1601044996501,917,0.109375,-0.26568604,-0.9717407
1601044996501,918,0.107666016,-0.26275635,-0.97491455
1601044996501,919,0.1081543,-0.26470947,-0.9741821
1601044996501,920,0.109375,-0.2642212,-0.97369385
1601044996502,921,0.11035156,-0.26324463,-0.9702759
1601044996502,922,0.10888672,-0.26593018,-0.97442627
1601044996502,923,0.10913086,-0.26861572,-0.973938
1601044996502,924,0.111572266,-0.26593018,-0.9768677
1601044996502,925,0.10986328,-0.2625122,-0.973938
1601044996502,926,0.111328125,-0.2666626,-0.97247314
1601044996502,927,0.10913086,-0.26446533,-0.9727173
1601044996503,928,0.109375,-0.26568604,-0.9717407
1601044996503,929,0.111328125,-0.26519775,-0.9729614
1601044996504,930,0.10986328,-0.26470947,-0.972229
1601044996504,931,0.107910156,-0.26446533,-0.9751587
1601044996505,932,0.11035156,-0.26446533,-0.97320557
1601044996505,933,0.107666016,-0.26275635,-0.97491455
1601044996506,934,0.1081543,-0.26470947,-0.9741821
1601044996506,935,0.109375,-0.2642212,-0.97369385
1601044996507,936,0.11035156,-0.26324463,-0.9702759
1601044996507,937,0.10888672,-0.26593018,-0.97442627
1601044996508,938,0.111572266,-0.26593018,-0.9768677
1601044996508,939,0.111328125,-0.2666626,-0.97247314
1601044996509,940,0.10913086,-0.26446533,-0.9727173
1601044996510,941,0.109375,-0.26568604,-0.9717407
1601044999373,942,0.11035156,-0.2649536,-0.9734497
1601044999375,943,0.11035156,-0.2649536,-0.9734497
1601044999375,944,0.111816406,-0.26885986,-0.9692993
1601044999376,945,0.11035156,-0.2649536,-0.9734497
1601044999376,946,0.10864258,-0.26837158,-0.97198486
1601044999376,947,0.111816406,-0.26885986,-0.9692993
1601044999377,948,0.111816406,-0.26885986,-0.9692993
1601044999377,949,0.111572266,-0.26568604,-0.9717407
1601044999377,950,0.10864258,-0.26837158,-0.97198486
1601044999377,951,0.10864258,-0.26519775,-0.97198486
1601044999378,952,0.10864258,-0.26837158,-0.97198486
1601044999378,953,0.111572266,-0.26568604,-0.9717407
1601044999379,954,0.10644531,-0.26397705,-0.97125244
1601044999380,955,0.11035156,-0.2649536,-0.9734497
1601044999380,956,0.111572266,-0.26568604,-0.9717407
1601044999380,957,0.10864258,-0.26519775,-0.97198486
1601044999380,958,0.111816406,-0.26885986,-0.9692993
1601044999380,959,0.10864258,-0.26519775,-0.97198486
1601044999381,960,0.10864258,-0.2654419,-0.972229
1601044999381,961,0.10644531,-0.26397705,-0.97125244
1601044999386,962,0.10864258,-0.26837158,-0.97198486
1601044999386,963,0.1081543,-0.2666626,-0.9729614
1601044999386,964,0.10644531,-0.26397705,-0.97125244
1601044999386,965,0.111328125,-0.2654419,-0.9697876
1601044999387,966,0.111572266,-0.26568604,-0.9717407
1601044999387,967,0.10864258,-0.2654419,-0.972229
1601044999387,968,0.110839844,-0.26568604,-0.97125244
1601044999387,969,0.10864258,-0.2654419,-0.972229
1601044999387,970,0.10864258,-0.26519775,-0.97198486
1601044999388,971,0.10644531,-0.26397705,-0.97125244
1601044999390,972,0.10864258,-0.2654419,-0.972229
1601044999390,973,0.1081543,-0.26715088,-0.97247314
1601044999390,974,0.1081543,-0.2666626,-0.9729614
1601044999391,975,0.1081543,-0.2666626,-0.9729614
1601044999391,976,0.1081543,-0.2666626,-0.9729614
1601044999391,977,0.111328125,-0.2654419,-0.9697876
1601044999392,978,0.111328125,-0.2654419,-0.9697876
1601044999393,979,0.111328125,-0.2654419,-0.9697876
1601044999393,980,0.10864258,-0.26690674,-0.97076416
1601044999393,981,0.110839844,-0.26568604,-0.97125244
1601044999393,982,0.110839844,-0.26568604,-0.97125244
1601044999393,983,0.110839844,-0.26568604,-0.97125244
1601044999393,984,0.110839844,-0.26690674,-0.97198486
1601044999394,985,0.1081543,-0.26715088,-0.97247314
1601044999394,986,0.1081543,-0.26715088,-0.97247314
1601044999395,987,0.107666016,-0.2666626,-0.973938
1601044999395,988,0.11010742,-0.26715088,-0.97076416
1601044999395,989,0.1081543,-0.26715088,-0.97247314
1601044999397,990,0.10864258,-0.26690674,-0.97076416
1601044999397,991,0.10864258,-0.26690674,-0.97076416
1601044999397,992,0.10864258,-0.27008057,-0.97076416
1601044999397,993,0.10864258,-0.26690674,-0.97076416
1601044999397,994,0.110839844,-0.26690674,-0.97198486
1601044999398,995,0.110839844,-0.26690674,-0.97198486
1601044999398,996,0.110839844,-0.26690674,-0.97198486
1601044999398,997,0.107666016,-0.2666626,-0.973938
1601044999398,998,0.107666016,-0.2666626,-0.973938
1601044999401,999,0.11010742,-0.26715088,-0.97076416
1601044999401,1000,0.11010742,-0.26715088,-0.97076416
1601044999401,1001,0.107666016,-0.2666626,-0.973938
1601044999401,1002,0.10864258,-0.27008057,-0.97076416
1601044999401,1003,0.107421875,-0.26763916,-0.9734497
1601044999403,1004,0.111816406,-0.26739502,-0.97491455
1601044999403,1005,0.10864258,-0.27008057,-0.97076416
1601044999403,1006,0.107421875,-0.26763916,-0.9734497
1601044999403,1007,0.11010742,-0.26715088,-0.97076416
1601044999403,1008,0.111816406,-0.26739502,-0.97491455
1601044999404,1009,0.11254883,-0.26641846,-0.97540283
1601044999404,1010,0.11254883,-0.26641846,-0.97540283
1601044999404,1011,0.10864258,-0.27008057,-0.97076416
1601044999405,1012,0.11279297,-0.270813,-0.97198486
1601044999406,1013,0.107421875,-0.26763916,-0.9734497
1601044999406,1014,0.1105957,-0.26885986,-0.9729614
1601044999406,1015,0.107421875,-0.26763916,-0.9734497
1601044999406,1016,0.11279297,-0.270813,-0.97198486
1601044999406,1017,0.111816406,-0.26739502,-0.97491455
1601044999407,1018,0.107666016,-0.269104,-0.97369385
1601044999407,1019,0.111816406,-0.26739502,-0.97491455
1601044999407,1020,0.1105957,-0.26885986,-0.9729614
1601044999408,1021,0.11254883,-0.26641846,-0.97540283
1601044999408,1022,0.11254883,-0.26641846,-0.97540283
1601044999411,1023,0.111328125,-0.27008057,-0.973938
1601044999411,1024,0.11279297,-0.270813,-0.97198486
1601044999413,1025,0.107666016,-0.269104,-0.97369385
1601044999413,1026,0.10864258,-0.2695923,-0.9727173
1601044999414,1027,0.11279297,-0.270813,-0.97198486
1601044999414,1028,0.1105957,-0.26885986,-0.9729614
1601044999416,1029,0.111328125,-0.27008057,-0.973938
1601044999417,1030,0.1105957,-0.26885986,-0.9729614
1601044999417,1031,0.10839844,-0.269104,-0.96832275
1601044999417,1032,0.107666016,-0.269104,-0.97369385
1601044999417,1033,0.11230469,-0.2732544,-0.9729614
1601044999417,1034,0.107666016,-0.269104,-0.97369385
1601044999417,1035,0.111328125,-0.27008057,-0.973938
1601044999418,1036,0.10864258,-0.2695923,-0.9727173
1601044999418,1037,0.11035156,-0.26983643,-0.97003174
1601044999418,1038,0.10864258,-0.2695923,-0.9727173
1601044999418,1039,0.111328125,-0.27008057,-0.973938
1601044999418,1040,0.10839844,-0.269104,-0.96832275
1601044999418,1041,0.10864258,-0.2695923,-0.9727173
1601044999418,1042,0.111328125,-0.2678833,-0.9717407
1601044999418,1043,0.10839844,-0.269104,-0.96832275
1601044999419,1044,0.11230469,-0.2732544,-0.9729614
1601044999419,1045,0.10839844,-0.269104,-0.96832275
1601044999419,1046,0.11010742,-0.26934814,-0.97076416
1601044999421,1047,0.11035156,-0.26983643,-0.97003174
1601044999421,1048,0.11230469,-0.2732544,-0.9729614
1601044999421,1049,0.11230469,-0.2732544,-0.9729614
1601044999421,1050,0.111328125,-0.2678833,-0.9717407
1601044999421,1051,0.11035156,-0.26983643,-0.97003174
1601044999422,1052,0.11035156,-0.26983643,-0.97003174
1601044999422,1053,0.107910156,-0.26934814,-0.97076416
1601044999422,1054,0.111328125,-0.2678833,-0.9717407
1601044999422,1055,0.11010742,-0.26934814,-0.97076416
1601044999422,1056,0.11010742,-0.2654419,-0.97198486
1601044999423,1057,0.11010742,-0.26934814,-0.97076416
1601044999423,1058,0.111328125,-0.2678833,-0.9717407
1601044999423,1059,0.107910156,-0.26934814,-0.97076416
1601044999424,1060,0.10986328,-0.26593018,-0.9717407
1601044999424,1061,0.11010742,-0.26934814,-0.97076416
1601044999424,1062,0.11010742,-0.2654419,-0.97198486
1601044999424,1063,0.107910156,-0.26934814,-0.97076416
1601044999424,1064,0.11010742,-0.2654419,-0.97198486
1601044999424,1065,0.107910156,-0.26934814,-0.97076416
1601044999424,1066,0.10986328,-0.26593018,-0.9717407
1601044999424,1067,0.10986328,-0.26593018,-0.9717407
1601044999424,1068,0.11010742,-0.2654419,-0.97198486
1601044999424,1069,0.10986328,-0.26593018,-0.9717407
1601045001518,1070,0.109375,-0.2678833,-0.97540283
1601045001519,1071,0.109375,-0.2678833,-0.97540283
1601045001520,1072,0.10839844,-0.26763916,-0.97052
1601045001520,1073,0.10839844,-0.26763916,-0.97052
1601045001520,1074,0.109375,-0.2678833,-0.97540283
1601045001521,1075,0.109375,-0.2666626,-0.9729614
1601045001522,1076,0.109375,-0.2666626,-0.9729614
1601045001522,1077,0.109375,-0.2678833,-0.97540283
1601045001523,1078,0.10839844,-0.26763916,-0.97052
1601045001524,1079,0.10888672,-0.26470947,-0.97320557
1601045001524,1080,0.10888672,-0.26470947,-0.97320557
1601045001524,1081,0.109375,-0.2666626,-0.9729614
1601045001525,1082,0.10839844,-0.26763916,-0.97052
1601045001525,1083,0.10986328,-0.2678833,-0.97320557
1601045001525,1084,0.10986328,-0.2678833,-0.97320557
1601045001525,1085,0.10888672,-0.26470947,-0.97320557
1601045001526,1086,0.109375,-0.2666626,-0.9729614
1601045001526,1087,0.107666016,-0.26690674,-0.97198486
1601045001528,1088,0.10986328,-0.2678833,-0.97320557
1601045001528,1089,0.10888672,-0.26470947,-0.97320557
1601045001528,1090,0.107666016,-0.26690674,-0.97198486
1601045001528,1091,0.10864258,-0.26861572,-0.9717407
1601045001529,1092,0.10986328,-0.2678833,-0.97320557
1601045001529,1093,0.107666016,-0.26690674,-0.97198486
1601045001529,1094,0.10864258,-0.26861572,-0.9717407
1601045001529,1095,0.11352539,-0.26715088,-0.97076416
1601045001531,1096,0.11352539,-0.26715088,-0.97076416
1601045001531,1097,0.107666016,-0.26690674,-0.97198486
1601045001531,1098,0.10864258,-0.26861572,-0.9717407
1601045001531,1099,0.10913086,-0.2678833,-0.972229
1601045001532,1100,0.10864258,-0.26861572,-0.9717407
1601045001533,1101,0.10913086,-0.2678833,-0.972229
1601045001533,1102,0.11352539,-0.26715088,-0.97076416
1601045001533,1103,0.10839844,-0.2666626,-0.97198486
1601045001533,1104,0.10839844,-0.2666626,-0.97198486
1601045001533,1105,0.10986328,-0.2678833,-0.97003174
1601045001533,1106,0.10913086,-0.2678833,-0.972229
1601045001534,1107,0.10986328,-0.2678833,-0.97003174
1601045001534,1108,0.11352539,-0.26715088,-0.97076416
1601045001534,1109,0.111816406,-0.26861572,-0.97076416
1601045001535,1110,0.111816406,-0.26861572,-0.97076416
1601045001535,1111,0.10839844,-0.2666626,-0.97198486
1601045001536,1112,0.10913086,-0.2678833,-0.972229
1601045001536,1113,0.10986328,-0.269104,-0.9697876
1601045001537,1114,0.10986328,-0.269104,-0.9697876
1601045001537,1115,0.10839844,-0.2666626,-0.97198486
1601045001538,1116,0.10986328,-0.2678833,-0.97003174
1601045001538,1117,0.107910156,-0.26983643,-0.97052
1601045001538,1118,0.10986328,-0.2678833,-0.97003174
1601045001539,1119,0.107910156,-0.26983643,-0.97052
1601045001539,1120,0.111816406,-0.26861572,-0.97076416
1601045001539,1121,0.111816406,-0.26861572,-0.97076416
1601045001540,1122,0.11010742,-0.26861572,-0.9727173
1601045001540,1123,0.10986328,-0.269104,-0.9697876
1601045001540,1124,0.11010742,-0.26861572,-0.9727173
1601045001540,1125,0.10668945,-0.26812744,-0.9697876
1601045001541,1126,0.10668945,-0.26812744,-0.9697876
1601045001541,1127,0.10986328,-0.269104,-0.9697876
1601045001541,1128,0.107910156,-0.26983643,-0.97052
1601045001541,1129,0.111083984,-0.27130127,-0.9692993
1601045001541,1130,0.111083984,-0.27130127,-0.9692993
1601045001542,1131,0.107910156,-0.26983643,-0.97052
1601045001542,1132,0.11010742,-0.26861572,-0.9727173
1601045001542,1133,0.109375,-0.27301025,-0.9717407
1601045001542,1134,0.109375,-0.27301025,-0.9717407
1601045001543,1135,0.11010742,-0.26861572,-0.9727173
1601045001543,1136,0.110839844,-0.27423096,-0.973938
1601045001544,1137,0.10668945,-0.26812744,-0.9697876
1601045001544,1138,0.10668945,-0.26812744,-0.9697876
1601045001544,1139,0.11328125,-0.27520752,-0.972229
1601045001544,1140,0.111083984,-0.27130127,-0.9692993
1601045001545,1141,0.111083984,-0.27130127,-0.9692993
1601045001545,1142,0.110839844,-0.27423096,-0.973938
1601045001546,1143,0.109375,-0.27301025,-0.9717407
1601045001546,1144,0.111816406,-0.2703247,-0.973938
1601045001546,1145,0.109375,-0.27301025,-0.9717407
1601045001546,1146,0.11328125,-0.27520752,-0.972229
1601045001547,1147,0.111816406,-0.2703247,-0.973938
1601045001547,1148,0.10864258,-0.27056885,-0.97125244
1601045001547,1149,0.110839844,-0.27423096,-0.973938
1601045001547,1150,0.110839844,-0.27423096,-0.973938
1601045001547,1151,0.11328125,-0.27520752,-0.972229
1601045001548,1152,0.10864258,-0.27056885,-0.97125244
1601045001549,1153,0.110839844,-0.27105713,-0.97198486
1601045001549,1154,0.111816406,-0.2703247,-0.973938
1601045001549,1155,0.11328125,-0.27520752,-0.972229
1601045001549,1156,0.111328125,-0.27178955,-0.97320557
1601045001549,1157,0.10864258,-0.27056885,-0.97125244
1601045001549,1158,0.111816406,-0.2703247,-0.973938
1601045001560,1159,0.110839844,-0.27227783,-0.9717407
1601045001560,1160,0.110839844,-0.27105713,-0.97198486
1601045001560,1161,0.10864258,-0.27056885,-0.97125244
1601045001560,1162,0.111328125,-0.27178955,-0.97442627
1601045001561,1163,0.111328125,-0.27178955,-0.97320557
1601045001561,1164,0.110839844,-0.27105713,-0.97198486
1601045001561,1165,0.11010742,-0.27349854,-0.9690552
1601045001562,1166,0.111328125,-0.27178955,-0.97320557
1601045001562,1167,0.110839844,-0.27227783,-0.9717407
1601045001562,1168,0.110839844,-0.27105713,-0.97198486
1601045001562,1169,0.111083984,-0.27423096,-0.97198486
1601045001562,1170,0.110839844,-0.27227783,-0.9717407
1601045001563,1171,0.111328125,-0.27178955,-0.97320557
1601045001563,1172,0.111328125,-0.27178955,-0.97442627
1601045001563,1173,0.11230469,-0.27008057,-0.97198486
1601045001563,1174,0.110839844,-0.27227783,-0.9717407
1601045001563,1175,0.111083984,-0.2695923,-0.9714966
1601045001563,1176,0.11010742,-0.27349854,-0.9690552
1601045001563,1177,0.111328125,-0.27178955,-0.97442627
1601045001563,1178,0.111816406,-0.27056885,-0.9702759
1601045001563,1179,0.111572266,-0.2695923,-0.97076416
1601045001564,1180,0.111083984,-0.27423096,-0.97198486
1601045001564,1181,0.111328125,-0.27178955,-0.97442627
1601045001564,1182,0.11010742,-0.27349854,-0.9690552
1601045001564,1183,0.11230469,-0.27008057,-0.97198486
1601045001564,1184,0.11010742,-0.27349854,-0.9690552
1601045001564,1185,0.111083984,-0.27423096,-0.97198486
1601045001564,1186,0.111083984,-0.2695923,-0.9714966
1601045001565,1187,0.11230469,-0.27008057,-0.97198486
1601045001565,1188,0.111816406,-0.27056885,-0.9702759
1601045001565,1189,0.111083984,-0.27423096,-0.97198486
1601045001566,1190,0.111083984,-0.2695923,-0.9714966
1601045001566,1191,0.111816406,-0.27056885,-0.9702759
1601045001566,1192,0.11230469,-0.27008057,-0.97198486
1601045001569,1193,0.111083984,-0.2695923,-0.9714966
1601045001569,1194,0.111572266,-0.2695923,-0.97076416
1601045001569,1195,0.111572266,-0.2695923,-0.97076416
1601045001572,1196,0.111816406,-0.27056885,-0.9702759
1601045001573,1197,0.111572266,-0.2695923,-0.97076416
1601045004261,1198,0.11206055,-0.270813,-0.9690552
1601045004266,1199,0.11035156,-0.2703247,-0.9678345
1601045004268,1200,0.11206055,-0.270813,-0.9690552
1601045004268,1201,0.11206055,-0.270813,-0.9690552
1601045004269,1202,0.11206055,-0.270813,-0.9690552
1601045004269,1203,0.10668945,-0.26690674,-0.97369385
1601045004275,1204,0.11035156,-0.2703247,-0.9678345
1601045004275,1205,0.11035156,-0.2703247,-0.9678345
1601045004275,1206,0.11035156,-0.2703247,-0.9678345
1601045004275,1207,0.106933594,-0.26861572,-0.9746704
1601045004275,1208,0.109375,-0.26690674,-0.9714966
1601045004275,1209,0.10668945,-0.26690674,-0.97369385
1601045004275,1210,0.10668945,-0.26690674,-0.97369385
1601045004276,1211,0.106933594,-0.26861572,-0.9746704
1601045004277,1212,0.106933594,-0.26861572,-0.9746704
1601045004277,1213,0.10864258,-0.26861572,-0.9717407
1601045004277,1214,0.109375,-0.26690674,-0.9714966
1601045004277,1215,0.109375,-0.26690674,-0.9714966
1601045004278,1216,0.10668945,-0.26690674,-0.97369385
1601045004284,1217,0.10864258,-0.26861572,-0.9717407
1601045004286,1218,0.10864258,-0.26861572,-0.9717407
1601045004286,1219,0.111328125,-0.26885986,-0.9685669
1601045004289,1220,0.106933594,-0.26861572,-0.9746704
1601045004290,1221,0.111328125,-0.26885986,-0.9685669
1601045004290,1222,0.107910156,-0.26593018,-0.97052
1601045004291,1223,0.111328125,-0.26885986,-0.9685669
1601045004291,1224,0.107910156,-0.26593018,-0.97052
1601045004291,1225,0.109375,-0.26690674,-0.9714966
1601045004291,1226,0.10888672,-0.26641846,-0.9727173
1601045004291,1227,0.10888672,-0.26641846,-0.9727173
1601045004294,1228,0.107177734,-0.26763916,-0.9702759
1601045004294,1229,0.10864258,-0.26861572,-0.9717407
1601045004294,1230,0.107910156,-0.26593018,-0.97052
1601045004295,1231,0.107177734,-0.26763916,-0.9702759
1601045004295,1232,0.11010742,-0.2678833,-0.9714966
1601045004295,1233,0.11010742,-0.2678833,-0.9714966
1601045004295,1234,0.111328125,-0.26885986,-0.9685669
1601045004296,1235,0.107910156,-0.26593018,-0.97052
1601045004296,1236,0.10888672,-0.26641846,-0.9727173
1601045004297,1237,0.10668945,-0.26617432,-0.973938
1601045004298,1238,0.10888672,-0.26641846,-0.9727173
1601045004298,1239,0.10668945,-0.26617432,-0.973938
1601045004299,1240,0.107177734,-0.26763916,-0.9702759
1601045004299,1241,0.1081543,-0.2666626,-0.96954346
1601045004299,1242,0.11010742,-0.2678833,-0.9714966
1601045004299,1243,0.107177734,-0.26763916,-0.9702759
1601045004299,1244,0.1081543,-0.2666626,-0.96954346
1601045004302,1245,0.107666016,-0.26983643,-0.9692993
1601045004302,1246,0.10668945,-0.26617432,-0.973938
1601045004302,1247,0.1081543,-0.26885986,-0.9710083
1601045004302,1248,0.11010742,-0.2678833,-0.9714966
1601045004303,1249,0.1081543,-0.2666626,-0.96954346
1601045004303,1250,0.107666016,-0.26983643,-0.9692993
1601045004303,1251,0.110839844,-0.2703247,-0.9741821
1601045004303,1252,0.10668945,-0.26617432,-0.973938
1601045004308,1253,0.111083984,-0.27105713,-0.9734497
1601045004309,1254,0.107666016,-0.26983643,-0.9692993
1601045004309,1255,0.1081543,-0.2666626,-0.96954346
1601045004309,1256,0.1081543,-0.26885986,-0.9710083
1601045004309,1257,0.107666016,-0.26983643,-0.9692993
1601045004311,1258,0.1105957,-0.27178955,-0.97369385
1601045004311,1259,0.110839844,-0.2703247,-0.9741821
1601045004311,1260,0.1081543,-0.26885986,-0.9710083
1601045004312,1261,0.111328125,-0.2703247,-0.97076416
1601045004312,1262,0.110839844,-0.2703247,-0.9741821
1601045004313,1263,0.1081543,-0.26885986,-0.9710083
1601045004313,1264,0.10986328,-0.2715454,-0.97198486
1601045004313,1265,0.111083984,-0.27105713,-0.9734497
1601045004313,1266,0.111083984,-0.27105713,-0.9734497
1601045004313,1267,0.10839844,-0.2727661,-0.97052
1601045004313,1268,0.1105957,-0.27178955,-0.97369385
1601045004314,1269,0.1105957,-0.27178955,-0.97369385
1601045004314,1270,0.1081543,-0.27398682,-0.97076416
1601045004314,1271,0.110839844,-0.2703247,-0.9741821
1601045004314,1272,0.111328125,-0.2703247,-0.97076416
1601045004314,1273,0.10888672,-0.27349854,-0.97198486
1601045004314,1274,0.111328125,-0.2703247,-0.97076416
1601045004315,1275,0.111083984,-0.27105713,-0.9734497
1601045004315,1276,0.1081543,-0.27496338,-0.97003174
1601045004317,1277,0.10986328,-0.2715454,-0.97198486
1601045004318,1278,0.1105957,-0.27178955,-0.97369385
1601045004319,1279,0.10986328,-0.2715454,-0.97198486
1601045004319,1280,0.11035156,-0.27398682,-0.97320557
1601045004319,1281,0.10839844,-0.2727661,-0.97052
1601045004327,1282,0.111328125,-0.2703247,-0.97076416
1601045004328,1283,0.104003906,-0.270813,-0.96954346
1601045004328,1284,0.1081543,-0.27398682,-0.97076416
1601045004328,1285,0.10839844,-0.2727661,-0.97052
1601045004328,1286,0.11010742,-0.27178955,-0.96759033
1601045004328,1287,0.10986328,-0.2715454,-0.97198486
1601045004328,1288,0.10888672,-0.27349854,-0.97198486
1601045004328,1289,0.1081543,-0.27398682,-0.97076416
1601045004328,1290,0.10986328,-0.27252197,-0.97198486
1601045004328,1291,0.10839844,-0.2727661,-0.97052
1601045004328,1292,0.1081543,-0.27496338,-0.97003174
1601045004328,1293,0.111083984,-0.27252197,-0.9697876
1601045004329,1294,0.10888672,-0.27349854,-0.97198486
1601045004329,1295,0.11035156,-0.27398682,-0.97320557
1601045004329,1296,0.1081543,-0.27398682,-0.97076416
1601045004329,1297,0.104003906,-0.270813,-0.96954346
1601045004329,1298,0.1081543,-0.27398682,-0.9697876
1601045004329,1299,0.1081543,-0.27496338,-0.97003174
1601045004329,1300,0.11010742,-0.27178955,-0.96759033
1601045004329,1301,0.10888672,-0.27349854,-0.97198486
1601045004329,1302,0.11035156,-0.27398682,-0.97320557
1601045004329,1303,0.11206055,-0.2732544,-0.9727173
1601045004330,1304,0.1081543,-0.27496338,-0.97003174
1601045004332,1305,0.10986328,-0.27252197,-0.97198486
1601045004332,1306,0.11035156,-0.27178955,-0.97003174
1601045004332,1307,0.104003906,-0.270813,-0.96954346
1601045004332,1308,0.11035156,-0.27398682,-0.97320557
1601045004333,1309,0.104003906,-0.270813,-0.96954346
1601045004334,1310,0.111083984,-0.27252197,-0.9697876
1601045004334,1311,0.11010742,-0.27178955,-0.96759033
1601045004334,1312,0.11010742,-0.27178955,-0.96759033
1601045004334,1313,0.1081543,-0.27398682,-0.9697876
1601045004334,1314,0.10986328,-0.27252197,-0.97198486
1601045004334,1315,0.111083984,-0.27252197,-0.9697876
1601045004336,1316,0.11206055,-0.2732544,-0.9727173
1601045004336,1317,0.10986328,-0.27252197,-0.97198486
1601045004336,1318,0.1081543,-0.27398682,-0.9697876
1601045004336,1319,0.11035156,-0.27178955,-0.97003174
1601045004337,1320,0.11206055,-0.2732544,-0.9727173
1601045004337,1321,0.111083984,-0.27252197,-0.9697876
1601045004337,1322,0.11035156,-0.27178955,-0.97003174
1601045004338,1323,0.1081543,-0.27398682,-0.9697876
1601045004339,1324,0.11206055,-0.2732544,-0.9727173
1601045004340,1325,0.11035156,-0.27178955,-0.97003174
1601045006595,1326,0.111083984,-0.27496338,-0.9734497
1601045006595,1327,0.111083984,-0.27496338,-0.9734497
1601045006596,1328,0.111083984,-0.27496338,-0.9734497
1601045006598,1329,0.111083984,-0.27496338,-0.9734497
1601045006598,1330,0.10913086,-0.26837158,-0.9729614
1601045006599,1331,0.10913086,-0.26837158,-0.9729614
1601045006601,1332,0.10913086,-0.26837158,-0.9729614
1601045006602,1333,0.110839844,-0.270813,-0.9729614
1601045006602,1334,0.110839844,-0.270813,-0.9729614
1601045006606,1335,0.10913086,-0.26837158,-0.9729614
1601045006607,1336,0.110839844,-0.270813,-0.9729614
1601045006607,1337,0.111083984,-0.270813,-0.9727173
1601045006609,1338,0.111083984,-0.270813,-0.9727173
1601045006609,1339,0.110839844,-0.270813,-0.9729614
1601045006609,1340,0.111083984,-0.270813,-0.9727173
1601045006609,1341,0.11010742,-0.270813,-0.9690552
1601045006612,1342,0.11010742,-0.270813,-0.9690552
1601045006613,1343,0.11010742,-0.26861572,-0.9692993
1601045006613,1344,0.111083984,-0.270813,-0.9727173
1601045006613,1345,0.11010742,-0.270813,-0.9690552
1601045006618,1346,0.11010742,-0.26861572,-0.9692993
1601045006618,1347,0.11010742,-0.270813,-0.9690552
1601045006618,1348,0.11010742,-0.26861572,-0.9692993
1601045006619,1349,0.11230469,-0.2703247,-0.97003174
1601045006619,1350,0.11230469,-0.2703247,-0.97003174
1601045006619,1351,0.11230469,-0.2703247,-0.97003174
1601045006619,1352,0.11230469,-0.27056885,-0.972229
1601045006620,1353,0.11010742,-0.26861572,-0.9692993
1601045006621,1354,0.11230469,-0.27056885,-0.972229
1601045006623,1355,0.11230469,-0.27056885,-0.972229
1601045006623,1356,0.11230469,-0.2703247,-0.97003174
1601045006623,1357,0.111328125,-0.2720337,-0.972229
1601045006624,1358,0.111328125,-0.2720337,-0.972229
1601045006628,1359,0.111328125,-0.2720337,-0.972229
1601045006628,1360,0.11230469,-0.27056885,-0.972229
1601045006628,1361,0.10839844,-0.269104,-0.9717407
1601045006628,1362,0.10839844,-0.269104,-0.9717407
1601045006633,1363,0.10839844,-0.269104,-0.9717407
1601045006633,1364,0.111328125,-0.2720337,-0.972229
1601045006633,1365,0.1081543,-0.2727661,-0.97003174
1601045006633,1366,0.1081543,-0.2727661,-0.97003174
1601045006636,1367,0.1081543,-0.2727661,-0.97003174
1601045006636,1368,0.10839844,-0.269104,-0.9717407
1601045006636,1369,0.111083984,-0.27056885,-0.97003174
1601045006637,1370,0.111083984,-0.27056885,-0.97003174
1601045006639,1371,0.111083984,-0.27056885,-0.97003174
1601045006639,1372,0.1081543,-0.2727661,-0.97003174
1601045006639,1373,0.111816406,-0.27105713,-0.9734497
1601045006639,1374,0.111816406,-0.27105713,-0.9734497
1601045006640,1375,0.111816406,-0.27105713,-0.9734497
1601045006645,1376,0.1105957,-0.26934814,-0.9727173
1601045006645,1377,0.111083984,-0.27056885,-0.97003174
1601045006645,1378,0.1105957,-0.26934814,-0.9727173
1601045006646,1379,0.1105957,-0.26934814,-0.9727173
1601045006646,1380,0.10839844,-0.26739502,-0.9727173
1601045006647,1381,0.10839844,-0.26739502,-0.9727173
1601045006647,1382,0.10839844,-0.26739502,-0.9727173
1601045006648,1383,0.111816406,-0.27105713,-0.9734497
1601045006651,1384,0.111328125,-0.26837158,-0.9717407
1601045006651,1385,0.111328125,-0.26837158,-0.9717407
1601045006652,1386,0.111328125,-0.26837158,-0.9717407
1601045006652,1387,0.1105957,-0.26934814,-0.9727173
1601045006652,1388,0.10913086,-0.26593018,-0.973938
1601045006653,1389,0.10839844,-0.26739502,-0.9727173
1601045006653,1390,0.111328125,-0.26837158,-0.9717407
1601045006655,1391,0.10913086,-0.26593018,-0.973938
1601045006655,1392,0.111328125,-0.26885986,-0.9714966
1601045006656,1393,0.10913086,-0.26593018,-0.973938
1601045006657,1394,0.11254883,-0.270813,-0.97247314
1601045006657,1395,0.111328125,-0.26885986,-0.9714966
1601045006658,1396,0.11254883,-0.270813,-0.97247314
1601045006661,1397,0.10839844,-0.27130127,-0.9717407
1601045006662,1398,0.111328125,-0.26885986,-0.9714966
1601045006662,1399,0.10913086,-0.26593018,-0.973938
1601045006662,1400,0.10839844,-0.27130127,-0.9717407
1601045006663,1401,0.109375,-0.26885986,-0.97320557
1601045006665,1402,0.11254883,-0.270813,-0.97247314
1601045006666,1403,0.109375,-0.26885986,-0.97320557
1601045006666,1404,0.111328125,-0.26885986,-0.9714966
1601045006667,1405,0.11230469,-0.27056885,-0.9685669
1601045006668,1406,0.10839844,-0.27130127,-0.9717407
1601045006670,1407,0.11254883,-0.270813,-0.97247314
1601045006670,1408,0.10668945,-0.26763916,-0.9734497
1601045006672,1409,0.109375,-0.26885986,-0.97320557
1601045006672,1410,0.10839844,-0.27130127,-0.9717407
1601045006673,1411,0.10986328,-0.26885986,-0.97125244
1601045006674,1412,0.109375,-0.26885986,-0.97320557
1601045006675,1413,0.11230469,-0.27056885,-0.9685669
1601045006675,1414,0.1105957,-0.26593018,-0.972229
1601045006675,1415,0.11230469,-0.27056885,-0.9685669
1601045006677,1416,0.11230469,-0.27056885,-0.9685669
1601045006677,1417,0.10668945,-0.26763916,-0.9734497
1601045006678,1418,0.109375,-0.2649536,-0.97491455
1601045006679,1419,0.10668945,-0.26763916,-0.9734497
1601045006679,1420,0.10668945,-0.26763916,-0.9734497
1601045006679,1421,0.10986328,-0.26885986,-0.97125244
1601045006679,1422,0.10913086,-0.26885986,-0.9734497
1601045006680,1423,0.10986328,-0.26885986,-0.97125244
1601045006680,1424,0.10986328,-0.26885986,-0.97125244
1601045006682,1425,0.1105957,-0.26593018,-0.972229
1601045006682,1426,0.10913086,-0.2695923,-0.9714966
1601045006683,1427,0.1105957,-0.26593018,-0.972229
1601045006683,1428,0.1105957,-0.26593018,-0.972229
1601045006683,1429,0.11206055,-0.2678833,-0.9714966
1601045006683,1430,0.109375,-0.2649536,-0.97491455
1601045006684,1431,0.109375,-0.2649536,-0.97491455
1601045006684,1432,0.109375,-0.2649536,-0.97491455
1601045006684,1433,0.10913086,-0.26885986,-0.9734497
1601045006685,1434,0.10913086,-0.26885986,-0.9734497
1601045006685,1435,0.109375,-0.26983643,-0.9734497
1601045006685,1436,0.10913086,-0.2695923,-0.9714966
1601045006685,1437,0.10913086,-0.26885986,-0.9734497
1601045006687,1438,0.10913086,-0.2695923,-0.9714966
1601045006687,1439,0.109375,-0.26861572,-0.96954346
1601045006687,1440,0.10913086,-0.2695923,-0.9714966
1601045006687,1441,0.11206055,-0.2678833,-0.9714966
1601045006689,1442,0.11206055,-0.2678833,-0.9714966
1601045006690,1443,0.11206055,-0.2678833,-0.9714966
1601045006690,1444,0.109375,-0.26983643,-0.9734497
1601045006693,1445,0.109375,-0.26983643,-0.9734497
1601045006694,1446,0.107910156,-0.26885986,-0.97076416
1601045006694,1447,0.109375,-0.26861572,-0.96954346
1601045006694,1448,0.109375,-0.26983643,-0.9734497
1601045006695,1449,0.109375,-0.26861572,-0.96954346
1601045006696,1450,0.107910156,-0.26885986,-0.97076416
1601045006696,1451,0.109375,-0.26861572,-0.96954346
1601045006696,1452,0.107910156,-0.26885986,-0.97076416
1601045006698,1453,0.107910156,-0.26885986,-0.97076416
1601045009131,1454,0.11035156,-0.26812744,-0.9717407
1601045009131,1455,0.11035156,-0.26812744,-0.9717407
1601045009131,1456,0.11035156,-0.26812744,-0.9717407
1601045009131,1457,0.11035156,-0.26812744,-0.9717407
1601045009133,1458,0.106933594,-0.26641846,-0.97003174
1601045009133,1459,0.106933594,-0.26641846,-0.97003174
1601045009134,1460,0.106933594,-0.26641846,-0.97003174
1601045009134,1461,0.10888672,-0.27056885,-0.9697876
1601045009134,1462,0.106933594,-0.26641846,-0.97003174
1601045009134,1463,0.111083984,-0.26983643,-0.97076416
1601045009136,1464,0.10888672,-0.27056885,-0.9697876
1601045009137,1465,0.107666016,-0.269104,-0.97076416
1601045009138,1466,0.10888672,-0.27056885,-0.9697876
1601045009140,1467,0.10888672,-0.27056885,-0.9697876
1601045009141,1468,0.10961914,-0.26861572,-0.97247314
1601045009141,1469,0.111083984,-0.26983643,-0.97076416
1601045009141,1470,0.107666016,-0.269104,-0.97076416
1601045009148,1471,0.111083984,-0.26983643,-0.97076416
1601045009148,1472,0.111083984,-0.26983643,-0.97076416
1601045009149,1473,0.1105957,-0.26934814,-0.97247314
1601045009149,1474,0.107666016,-0.269104,-0.97076416
1601045009149,1475,0.10961914,-0.26861572,-0.97247314
1601045009149,1476,0.107177734,-0.26983643,-0.9710083
1601045009149,1477,0.107666016,-0.269104,-0.97076416
1601045009149,1478,0.1105957,-0.26934814,-0.97247314
1601045009149,1479,0.10961914,-0.26861572,-0.97247314
1601045009149,1480,0.1081543,-0.269104,-0.97320557
1601045009149,1481,0.10961914,-0.26861572,-0.97247314
1601045009150,1482,0.11035156,-0.26934814,-0.9710083
1601045009150,1483,0.1105957,-0.26934814,-0.97247314
1601045009150,1484,0.10864258,-0.2666626,-0.9692993
1601045009150,1485,0.107177734,-0.26983643,-0.9710083
1601045009153,1486,0.1105957,-0.26934814,-0.97247314
1601045009153,1487,0.1081543,-0.269104,-0.97320557
1601045009153,1488,0.107177734,-0.26983643,-0.9710083
1601045009164,1489,0.107177734,-0.26983643,-0.9710083
1601045009164,1490,0.11035156,-0.26934814,-0.9710083
1601045009165,1491,0.1081543,-0.269104,-0.97320557
1601045009165,1492,0.1081543,-0.269104,-0.97320557
1601045009165,1493,0.11035156,-0.26934814,-0.9710083
1601045009165,1494,0.10864258,-0.269104,-0.9692993
1601045009165,1495,0.10864258,-0.2666626,-0.9692993
1601045009165,1496,0.1081543,-0.26983643,-0.972229
1601045009166,1497,0.10986328,-0.26715088,-0.9685669
1601045009167,1498,0.10864258,-0.2666626,-0.9692993
1601045009167,1499,0.11035156,-0.26934814,-0.9710083
1601045009167,1500,0.10913086,-0.269104,-0.9714966
1601045009167,1501,0.10864258,-0.269104,-0.9692993
1601045009167,1502,0.10864258,-0.269104,-0.9692993
1601045009168,1503,0.10986328,-0.26934814,-0.97369385
1601045009168,1504,0.10864258,-0.2666626,-0.9692993
1601045009168,1505,0.10864258,-0.269104,-0.9692993
1601045009168,1506,0.1081543,-0.26983643,-0.972229
1601045009168,1507,0.1081543,-0.26983643,-0.972229
1601045009168,1508,0.10839844,-0.2695923,-0.9741821
1601045009169,1509,0.10986328,-0.26715088,-0.9685669
1601045009170,1510,0.110839844,-0.2666626,-0.96954346
1601045009170,1511,0.10986328,-0.26715088,-0.9685669
1601045009170,1512,0.1081543,-0.26983643,-0.972229
1601045009173,1513,0.10986328,-0.26763916,-0.97320557
1601045009173,1514,0.10913086,-0.269104,-0.9714966
1601045009173,1515,0.10986328,-0.26715088,-0.9685669
1601045009173,1516,0.10888672,-0.269104,-0.97198486
1601045009176,1517,0.10913086,-0.269104,-0.9714966
1601045009176,1518,0.10986328,-0.26934814,-0.97369385
1601045009176,1519,0.10913086,-0.269104,-0.9714966
1601045009176,1520,0.111572266,-0.26837158,-0.97369385
1601045009176,1521,0.10839844,-0.2695923,-0.9741821
1601045009177,1522,0.10986328,-0.26934814,-0.97369385
1601045009177,1523,0.10986328,-0.26934814,-0.97369385
1601045009177,1524,0.110839844,-0.2666626,-0.96954346
1601045009177,1525,0.10644531,-0.269104,-0.9734497
1601045009179,1526,0.10839844,-0.2695923,-0.9741821
1601045009179,1527,0.10839844,-0.2695923,-0.9741821
1601045009180,1528,0.10864258,-0.26763916,-0.97320557
1601045009180,1529,0.110839844,-0.2666626,-0.96954346
1601045009180,1530,0.110839844,-0.2666626,-0.96954346
1601045009180,1531,0.10986328,-0.26763916,-0.97320557
1601045009182,1532,0.10864258,-0.26593018,-0.9702759
1601045009182,1533,0.10986328,-0.26763916,-0.97320557
1601045009182,1534,0.10986328,-0.26763916,-0.97320557
1601045009182,1535,0.10888672,-0.269104,-0.97198486
1601045009184,1536,0.11035156,-0.26568604,-0.9734497
1601045009184,1537,0.10888672,-0.269104,-0.97198486
1601045009184,1538,0.1081543,-0.26470947,-0.97003174
1601045009184,1539,0.111572266,-0.26837158,-0.97369385
1601045009185,1540,0.10888672,-0.269104,-0.97198486
1601045009188,1541,0.109375,-0.26837158,-0.97125244
1601045009188,1542,0.10644531,-0.269104,-0.9734497
1601045009188,1543,0.111572266,-0.26837158,-0.97369385
1601045009189,1544,0.107177734,-0.2642212,-0.9678345
1601045009189,1545,0.111572266,-0.26837158,-0.97369385
1601045009191,1546,0.10888672,-0.26593018,-0.97198486
1601045009191,1547,0.10644531,-0.269104,-0.9734497
1601045009191,1548,0.10644531,-0.269104,-0.9734497
1601045009191,1549,0.107421875,-0.26739502,-0.97442627
1601045009192,1550,0.10864258,-0.26763916,-0.97320557
1601045009193,1551,0.10864258,-0.26763916,-0.97320557
1601045009195,1552,0.10864258,-0.26593018,-0.9702759
1601045009197,1553,0.11035156,-0.26568604,-0.9734497
1601045009197,1554,0.10864258,-0.26593018,-0.9702759
1601045009197,1555,0.1105957,-0.26812744,-0.9714966
1601045009197,1556,0.10864258,-0.26763916,-0.97320557
1601045009200,1557,0.11035156,-0.26568604,-0.9734497
1601045009200,1558,0.107910156,-0.26837158,-0.97125244
1601045009200,1559,0.1081543,-0.26470947,-0.97003174
1601045009200,1560,0.10864258,-0.26593018,-0.9702759
1601045009202,1561,0.1081543,-0.26470947,-0.97003174
1601045009202,1562,0.109375,-0.26837158,-0.97125244
1601045009202,1563,0.11035156,-0.26568604,-0.9734497
1601045009205,1564,0.109375,-0.26837158,-0.97125244
1601045009205,1565,0.107177734,-0.2642212,-0.9678345
1601045009205,1566,0.1081543,-0.26470947,-0.97003174
1601045009205,1567,0.107177734,-0.2642212,-0.9678345
1601045009207,1568,0.10888672,-0.26593018,-0.97198486
1601045009207,1569,0.109375,-0.26837158,-0.97125244
1601045009208,1570,0.10888672,-0.26593018,-0.97198486
1601045009208,1571,0.107421875,-0.26739502,-0.97442627
1601045009208,1572,0.107177734,-0.2642212,-0.9678345
1601045009208,1573,0.107421875,-0.26739502,-0.97442627
1601045009209,1574,0.1105957,-0.26812744,-0.9714966
1601045009211,1575,0.10888672,-0.26593018,-0.97198486
1601045009211,1576,0.107910156,-0.26837158,-0.97125244
1601045009213,1577,0.1105957,-0.26812744,-0.9714966
1601045009213,1578,0.107421875,-0.26739502,-0.97442627
1601045009213,1579,0.107910156,-0.26837158,-0.97125244
1601045009214,1580,0.1105957,-0.26812744,-0.9714966
1601045009215,1581,0.107910156,-0.26837158,-0.97125244
