# Sensor position: Wrist
# Sensor side: Left
# Activity type: Lying down left
# Activity code: 7
# Subject id: s1711507
timestamp,seq,accel_x,accel_y,accel_z
1602692847390,0,0.029296875,0.9645386,-0.06036377
1602692849910,1,0.029296875,0.9645386,-0.06036377
1602692849910,2,0.018066406,0.95648193,-0.07574463
1602692849911,3,0.018066406,0.95648193,-0.07574463
1602692849913,4,0.011474609,0.9660034,-0.09283447
1602692849913,5,0.011474609,0.9660034,-0.09283447
1602692849914,6,0.03515625,0.9928589,-0.10211182
1602692849915,7,0.03515625,0.9928589,-0.10211182
1602692849917,8,0.064941406,0.9384155,-0.06451416
1602692849918,9,0.080078125,0.93255615,-0.014221191
1602692849916,10,0.064941406,0.9384155,-0.06451416
1602692849919,11,0.060302734,0.9472046,-0.04522705
1602692849920,12,0.080078125,0.93255615,-0.014221191
1602692849922,13,0.060302734,0.9472046,-0.04522705
1602692849921,14,0.034423828,0.9899292,-0.08380127
1602692849923,15,0.034423828,0.9899292,-0.08380127
1602692849924,16,0.03930664,0.9813843,-0.0791626
1602692849925,17,0.03930664,0.9813843,-0.0791626
1602692849926,18,0.067871094,0.92889404,0.016540527
1602692849927,19,0.067871094,0.92889404,0.016540527
1602692849928,20,0.07885742,0.92840576,0.0099487305
1602692849929,21,0.07885742,0.92840576,0.0099487305
1602692849930,22,0.059326172,0.9784546,-0.027648926
1602692849932,23,0.048095703,0.9645386,-0.02178955
1602692849932,24,0.059326172,0.9784546,-0.027648926
1602692849933,25,0.059326172,0.96990967,-0.0064086914
1602692849934,26,0.048095703,0.9645386,-0.02178955
1602692849935,27,0.07080078,0.92230225,0.04510498
1602692849936,28,0.059326172,0.96990967,-0.0064086914
1602692849937,29,0.05883789,0.963562,0.0072631836
1602692849938,30,0.07080078,0.92230225,0.04510498
1602692849939,31,0.0625,0.9664917,4.272461E-4
1602692849940,32,0.05883789,0.963562,0.0072631836
1602692849941,33,0.06567383,0.93963623,0.031677246
1602692849941,34,0.0625,0.9664917,4.272461E-4
1602692849942,35,0.06665039,0.95428467,0.019958496
1602692849943,36,0.06567383,0.93963623,0.031677246
1602692849944,37,0.06298828,0.9586792,0.015563965
1602692849945,38,0.06665039,0.95428467,0.019958496
1602692849946,39,0.05834961,0.9574585,0.016296387
1602692849947,40,0.059326172,0.9574585,0.011413574
1602692849948,41,0.06298828,0.9586792,0.015563965
1602692849949,42,0.057861328,0.95721436,0.007507324
1602692849950,43,0.05834961,0.9574585,0.016296387
1602692849951,44,0.055908203,0.9562378,0.0026245117
1602692849953,45,0.059326172,0.9574585,0.011413574
1602692849952,46,0.051757812,0.963562,-0.005432129
1602692849954,47,0.057861328,0.95721436,0.007507324
1602692849955,48,0.05493164,0.95648193,-0.00592041
1602692849956,49,0.055908203,0.9562378,0.0026245117
1602692849957,50,0.053955078,0.95062256,-0.0095825195
1602692849958,51,0.051757812,0.963562,-0.005432129
1602692849959,52,0.04272461,0.96917725,-0.03277588
1602692849960,53,0.05493164,0.95648193,-0.00592041
1602692849961,54,0.05029297,0.96014404,-0.032043457
1602692849962,55,0.053955078,0.95062256,-0.0095825195
1602692849963,56,0.045654297,0.9586792,-0.031799316
1602692849964,57,0.04272461,0.96917725,-0.03277588
1602692849965,58,0.04345703,0.95965576,-0.032287598
1602692849966,59,0.05029297,0.96014404,-0.032043457
1602692849967,60,0.045410156,0.96014404,-0.03741455
1602692849968,61,0.045654297,0.9586792,-0.031799316
1602692849970,62,0.04345703,0.95965576,-0.032287598
1602692849971,63,0.045410156,0.96014404,-0.03741455
1602692849941,64,0.04345703,0.9586792,-0.03668213
1602692852467,65,0.043701172,0.9603882,-0.038879395
1602692852473,66,0.043701172,0.961853,-0.035217285
1602692852461,67,0.04345703,0.9586792,-0.03668213
1602692852479,68,0.043701172,0.9603882,-0.038879395
1602692852485,69,0.045898438,0.9586792,-0.03717041
1602692852497,70,0.045166016,0.9603882,-0.04083252
1602692852503,71,0.04272461,0.9591675,-0.038146973
1602692852491,72,0.043701172,0.961853,-0.035217285
1602692852509,73,0.041503906,0.9598999,-0.039611816
1602692852521,74,0.045654297,0.9606323,-0.038635254
1602692852515,75,0.045898438,0.9586792,-0.03717041
1602692852533,76,0.045166016,0.9603882,-0.04083252
1602692852539,77,0.04272461,0.9591675,-0.038146973
1602692852527,78,0.040039062,0.96014404,-0.04107666
1602692852545,79,0.041503906,0.9598999,-0.039611816
1602692852551,80,0.041992188,0.9598999,-0.0413208
1602692852558,81,0.045654297,0.9606323,-0.038635254
1602692852570,82,0.040039062,0.96014404,-0.04107666
1602692852564,83,0.044921875,0.9555054,-0.0413208
1602692852576,84,0.041992188,0.9598999,-0.0413208
1602692852582,85,0.03955078,0.96087646,-0.046691895
1602692852588,86,0.044921875,0.9555054,-0.0413208
1602692852594,87,0.04248047,0.9598999,-0.042053223
1602692852606,88,0.03955078,0.96087646,-0.046691895
1602692852606,89,0.039794922,0.96209717,-0.049621582
1602692852612,90,0.04248047,0.9598999,-0.042053223
1602692852618,91,0.03955078,0.95892334,-0.047180176
1602692852624,92,0.039794922,0.96209717,-0.049621582
1602692852630,93,0.037597656,0.9616089,-0.045959473
1602692852636,94,0.03955078,0.95892334,-0.047180176
1602692852642,95,0.041748047,0.95721436,-0.047424316
1602692852648,96,0.037597656,0.9616089,-0.045959473
1602692852655,97,0.041503906,0.9611206,-0.05279541
1602692852667,98,0.03857422,0.9603882,-0.046447754
1602692852661,99,0.041748047,0.95721436,-0.047424316
1602692852673,100,0.03955078,0.9574585,-0.046203613
1602692852685,101,0.040527344,0.963562,-0.05279541
1602692852679,102,0.041503906,0.9611206,-0.05279541
1602692852691,103,0.04248047,0.95843506,-0.059631348
1602692852697,104,0.03857422,0.9603882,-0.046447754
1602692852703,105,0.03955078,0.9574585,-0.046203613
1602692852709,106,0.03881836,0.9579468,-0.049865723
1602692852715,107,0.040527344,0.963562,-0.05279541
1602692852721,108,0.040771484,0.9598999,-0.054504395
1602692852727,109,0.04248047,0.95843506,-0.059631348
1602692852733,110,0.040771484,0.96014404,-0.054992676
1602692852745,111,0.041259766,0.95843506,-0.05206299
1602692852739,112,0.03881836,0.9579468,-0.049865723
1602692852758,113,0.040771484,0.9598999,-0.054504395
1602692852752,114,0.041503906,0.9557495,-0.05255127
1602692852770,115,0.036376953,0.9647827,-0.054016113
1602692852764,116,0.040771484,0.96014404,-0.054992676
1602692852776,117,0.036132812,0.96258545,-0.066711426
1602692852788,118,0.040771484,0.9574585,-0.05621338
1602692852782,119,0.041259766,0.95843506,-0.05206299
1602692852794,120,0.037597656,0.96087646,-0.06329346
1602692852800,121,0.041503906,0.9557495,-0.05255127
1602692852812,122,0.036376953,0.9647827,-0.054016113
1602692852818,123,0.036132812,0.96258545,-0.066711426
1602692852806,124,0.037597656,0.9606323,-0.061828613
1602692852824,125,0.040771484,0.9574585,-0.05621338
1602692852836,126,0.037597656,0.96087646,-0.06329346
1602692852842,127,0.037597656,0.9606323,-0.061828613
1602692852655,128,0.038085938,0.95770264,-0.059387207
1602692855175,129,0.038085938,0.95770264,-0.059387207
1602692855164,130,0.036132812,0.9616089,-0.06500244
1602692855170,131,0.036132812,0.9616089,-0.06500244
1602692855159,132,0.037109375,0.95965576,-0.05987549
1602692855153,133,0.037109375,0.95965576,-0.05987549
1602692855142,134,0.040771484,0.9579468,-0.06451416
1602692855137,135,0.036132812,0.96209717,-0.06060791
1602692855148,136,0.040771484,0.9579468,-0.06451416
1602692855126,137,0.036132812,0.96209717,-0.06060791
1602692855131,138,0.040527344,0.95770264,-0.05596924
1602692855115,139,0.040527344,0.95770264,-0.05596924
1602692855109,140,0.040527344,0.96087646,-0.06036377
1602692855115,141,0.040527344,0.96087646,-0.06036377
1602692855104,142,0.03955078,0.95843506,-0.061584473
1602692855093,143,0.040527344,0.95843506,-0.057434082
1602692855098,144,0.03955078,0.95843506,-0.061584473
1602692855087,145,0.03930664,0.95892334,-0.057678223
1602692855081,146,0.040527344,0.95843506,-0.057434082
1602692855076,147,0.03930664,0.96136475,-0.05670166
1602692855070,148,0.03930664,0.95892334,-0.057678223
1602692855065,149,0.036132812,0.96307373,-0.05987549
1602692855059,150,0.03930664,0.96136475,-0.05670166
1602692855054,151,0.039794922,0.9623413,-0.059631348
1602692855048,152,0.036132812,0.96307373,-0.05987549
1602692855043,153,0.044433594,0.9567261,-0.05303955
1602692855037,154,0.039794922,0.9623413,-0.059631348
1602692855026,155,0.044433594,0.9567261,-0.05303955
1602692855032,156,0.03955078,0.961853,-0.05987549
1602692855021,157,0.03955078,0.961853,-0.05987549
1602692855015,158,0.040527344,0.95721436,-0.06109619
1602692855010,159,0.040527344,0.95721436,-0.06109619
1602692855004,160,0.0390625,0.96307373,-0.06060791
1602692854998,161,0.0390625,0.96307373,-0.06060791
1602692854987,162,0.044921875,0.9569702,-0.058166504
1602692854982,163,0.036621094,0.9603882,-0.059387207
1602692854976,164,0.040283203,0.9586792,-0.06304932
1602692854971,165,0.041748047,0.95599365,-0.059631348
1602692854987,166,0.044921875,0.9569702,-0.058166504
1602692854965,167,0.040771484,0.9581909,-0.057922363
1602692854960,168,0.036621094,0.9603882,-0.059387207
1602692854954,169,0.0390625,0.9594116,-0.06036377
1602692854949,170,0.040283203,0.9586792,-0.06304932
1602692854943,171,0.038330078,0.96087646,-0.061340332
1602692854938,172,0.041748047,0.95599365,-0.059631348
1602692854932,173,0.043701172,0.9557495,-0.057678223
1602692854927,174,0.040771484,0.9581909,-0.057922363
1602692854921,175,0.03881836,0.9611206,-0.059631348
1602692854910,176,0.04296875,0.96136475,-0.062072754
1602692854916,177,0.0390625,0.9594116,-0.06036377
1602692854899,178,0.038330078,0.96087646,-0.061340332
1602692854893,179,0.043701172,0.9557495,-0.057678223
1602692854904,180,0.041748047,0.95770264,-0.05303955
1602692854888,181,0.03881836,0.9611206,-0.059631348
1602692854877,182,0.04296875,0.96136475,-0.062072754
1602692854877,183,0.040283203,0.965271,-0.06036377
1602692854871,184,0.041748047,0.95770264,-0.05303955
1602692854866,185,0.041748047,0.9574585,-0.054748535
1602692854860,186,0.040283203,0.965271,-0.06036377
1602692854855,187,0.03955078,0.9623413,-0.059387207
1602692854849,188,0.041748047,0.9574585,-0.054748535
1602692854844,189,0.044677734,0.9545288,-0.055725098
1602692854838,190,0.03955078,0.9623413,-0.059387207
1602692854827,191,0.044677734,0.9545288,-0.055725098
1602692857518,192,0.03857422,0.96307373,-0.058410645
1602692854998,193,0.03857422,0.96307373,-0.058410645
1602692857524,194,0.04248047,0.95843506,-0.055480957
1602692857531,195,0.04248047,0.95843506,-0.055480957
1602692857537,196,0.04321289,0.9550171,-0.05230713
1602692857544,197,0.04321289,0.9550171,-0.05230713
1602692857550,198,0.04345703,0.9586792,-0.051818848
1602692857557,199,0.04345703,0.9586792,-0.051818848
1602692857564,200,0.041992188,0.9623413,-0.05328369
1602692857577,201,0.045166016,0.9574585,-0.057434082
1602692857570,202,0.041992188,0.9623413,-0.05328369
1602692857590,203,0.048583984,0.9581909,-0.051818848
1602692857590,204,0.045166016,0.9574585,-0.057434082
1602692857597,205,0.044921875,0.96014404,-0.049865723
1602692857603,206,0.048583984,0.9581909,-0.051818848
1602692857610,207,0.048583984,0.9574585,-0.047668457
1602692857616,208,0.044921875,0.96014404,-0.049865723
1602692857623,209,0.04711914,0.95770264,-0.044006348
1602692857630,210,0.048583984,0.9574585,-0.047668457
1602692857636,211,0.045898438,0.9545288,-0.04498291
1602692857643,212,0.04711914,0.95770264,-0.044006348
1602692857656,213,0.045410156,0.963562,-0.05621338
1602692857656,214,0.045898438,0.9545288,-0.04498291
1602692857669,215,0.041992188,0.9591675,-0.054992676
1602692857669,216,0.045410156,0.963562,-0.05621338
1602692857676,217,0.04272461,0.96136475,-0.058410645
1602692857682,218,0.041992188,0.9591675,-0.054992676
1602692857696,219,0.04272461,0.96136475,-0.058410645
1602692857689,220,0.0390625,0.96209717,-0.050842285
1602692857702,221,0.0390625,0.96209717,-0.050842285
1602692857709,222,0.045654297,0.9581909,-0.05255127
1602692857715,223,0.045654297,0.9581909,-0.05255127
1602692857722,224,0.04248047,0.9591675,-0.055236816
1602692857729,225,0.04248047,0.9591675,-0.055236816
1602692857735,226,0.040283203,0.9581909,-0.051818848
1602692857748,227,0.041748047,0.95965576,-0.049865723
1602692857742,228,0.040283203,0.9581909,-0.051818848
1602692857755,229,0.042236328,0.96307373,-0.058654785
1602692857761,230,0.041748047,0.95965576,-0.049865723
1602692857768,231,0.041992188,0.95721436,-0.05230713
1602692857775,232,0.042236328,0.96307373,-0.058654785
1602692857781,233,0.041992188,0.9633179,-0.05645752
1602692857788,234,0.041992188,0.95721436,-0.05230713
1602692857794,235,0.043945312,0.95892334,-0.04888916
1602692857801,236,0.041992188,0.9633179,-0.05645752
1602692857808,237,0.041748047,0.96258545,-0.057922363
1602692857814,238,0.043945312,0.95892334,-0.04888916
1602692857821,239,0.04345703,0.9579468,-0.0569458
1602692857827,240,0.041748047,0.96258545,-0.057922363
1602692857834,241,0.04296875,0.96136475,-0.05303955
1602692857841,242,0.04345703,0.9579468,-0.0569458
1602692857847,243,0.042236328,0.9606323,-0.057434082
1602692857854,244,0.04296875,0.96136475,-0.05303955
1602692857867,245,0.042236328,0.9606323,-0.057434082
1602692857874,246,0.041992188,0.9611206,-0.054260254
1602692857860,247,0.041992188,0.9611206,-0.054260254
1602692857880,248,0.043701172,0.9581909,-0.053771973
1602692857887,249,0.043701172,0.9581909,-0.053771973
1602692857893,250,0.03930664,0.95892334,-0.051574707
1602692857900,251,0.03930664,0.95892334,-0.051574707
1602692857913,252,0.048339844,0.9598999,-0.050842285
1602692857907,253,0.048339844,0.9598999,-0.050842285
1602692857926,254,0.046142578,0.95892334,-0.04864502
1602692857920,255,0.046142578,0.95892334,-0.04864502
1602692860249,256,0.040771484,0.96087646,-0.050598145
1602692857729,257,0.040771484,0.96087646,-0.050598145
1602692860249,258,0.04272461,0.95965576,-0.050109863
1602692860249,259,0.04272461,0.95965576,-0.050109863
1602692860249,260,0.04321289,0.963562,-0.050598145
1602692860250,261,0.04321289,0.963562,-0.050598145
1602692860250,262,0.045898438,0.95892334,-0.04937744
1602692860250,263,0.04272461,0.95892334,-0.050109863
1602692860250,264,0.045898438,0.95892334,-0.04937744
1602692860251,265,0.046875,0.9616089,-0.055236816
1602692860251,266,0.04272461,0.95892334,-0.050109863
1602692860251,267,0.045166016,0.9594116,-0.050354004
1602692860252,268,0.049072266,0.9579468,-0.046936035
1602692860251,269,0.046875,0.9616089,-0.055236816
1602692860252,270,0.044433594,0.9606323,-0.05303955
1602692860252,271,0.045166016,0.9594116,-0.050354004
1602692860252,272,0.045898438,0.9579468,-0.051574707
1602692860253,273,0.049072266,0.9579468,-0.046936035
1602692860253,274,0.044433594,0.9606323,-0.05303955
1602692860253,275,0.045166016,0.95770264,-0.049621582
1602692860253,276,0.045898438,0.9579468,-0.051574707
1602692860254,277,0.045166016,0.95770264,-0.049621582
1602692860254,278,0.047607422,0.949646,-0.051574707
1602692860254,279,0.047607422,0.949646,-0.051574707
1602692860254,280,0.04272461,0.96307373,-0.055236816
1602692860255,281,0.04272461,0.96307373,-0.055236816
1602692860255,282,0.040039062,0.961853,-0.06109619
1602692860255,283,0.040039062,0.961853,-0.06109619
1602692860256,284,0.040527344,0.96136475,-0.06060791
1602692860255,285,0.040527344,0.96136475,-0.06060791
1602692860256,286,0.041503906,0.95770264,-0.053771973
1602692860256,287,0.041503906,0.95770264,-0.053771973
1602692860256,288,0.043945312,0.95892334,-0.055480957
1602692860257,289,0.043701172,0.9581909,-0.054260254
1602692860257,290,0.043945312,0.95892334,-0.055480957
1602692860257,291,0.042236328,0.9579468,-0.054016113
1602692860257,292,0.043701172,0.9581909,-0.054260254
1602692860258,293,0.042236328,0.9579468,-0.054016113
1602692860258,294,0.041748047,0.96380615,-0.054748535
1602692860258,295,0.04272461,0.9594116,-0.054992676
1602692860259,296,0.044677734,0.9603882,-0.054504395
1602692860258,297,0.041748047,0.96380615,-0.054748535
1602692860259,298,0.044677734,0.9606323,-0.04888916
1602692860259,299,0.04272461,0.9594116,-0.054992676
1602692860259,300,0.04711914,0.9581909,-0.049621582
1602692860260,301,0.044677734,0.9603882,-0.054504395
1602692860260,302,0.045410156,0.95843506,-0.051086426
1602692860260,303,0.046142578,0.9557495,-0.0491333
1602692860260,304,0.044677734,0.9606323,-0.04888916
1602692860261,305,0.048339844,0.95599365,-0.051330566
1602692860261,306,0.04711914,0.9581909,-0.049621582
1602692860261,307,0.045410156,0.95843506,-0.051086426
1602692860261,308,0.044189453,0.95770264,-0.049865723
1602692860262,309,0.046142578,0.9557495,-0.0491333
1602692860262,310,0.048339844,0.95599365,-0.051330566
1602692860262,311,0.045166016,0.95770264,-0.04888916
1602692860262,312,0.044189453,0.95770264,-0.049865723
1602692860263,313,0.044921875,0.96014404,-0.04864502
1602692860263,314,0.045166016,0.95770264,-0.04888916
1602692860263,315,0.04345703,0.96136475,-0.053771973
1602692860263,316,0.044921875,0.96014404,-0.04864502
1602692860264,317,0.043701172,0.95599365,-0.049865723
1602692860264,318,0.04345703,0.96136475,-0.053771973
1602692860264,319,0.043701172,0.95599365,-0.049865723
1602692860257,320,0.041748047,0.9611206,-0.05645752
1602692862777,321,0.041748047,0.9611206,-0.05645752
1602692862777,322,0.044921875,0.9586792,-0.05328369
1602692862778,323,0.044921875,0.9586792,-0.05328369
1602692862779,324,0.040283203,0.9594116,-0.05303955
1602692862780,325,0.046142578,0.9591675,-0.054504395
1602692862779,326,0.040283203,0.9594116,-0.05303955
1602692862781,327,0.04272461,0.95892334,-0.055236816
1602692862781,328,0.046142578,0.9591675,-0.054504395
1602692862783,329,0.04272461,0.95892334,-0.055236816
1602692862783,330,0.041992188,0.9606323,-0.055725098
1602692862782,331,0.041992188,0.9606323,-0.055725098
1602692862784,332,0.04248047,0.9594116,-0.054504395
1602692862785,333,0.04248047,0.9594116,-0.054504395
1602692862785,334,0.041992188,0.96258545,-0.058410645
1602692862786,335,0.041992188,0.96258545,-0.058410645
1602692862787,336,0.045410156,0.9581909,-0.05670166
1602692862788,337,0.045410156,0.9581909,-0.05670166
1602692862789,338,0.04345703,0.9603882,-0.055480957
1602692862789,339,0.04345703,0.9603882,-0.055480957
1602692862790,340,0.041259766,0.95721436,-0.053771973
1602692862790,341,0.041259766,0.95721436,-0.053771973
1602692862791,342,0.04321289,0.95843506,-0.05596924
1602692862792,343,0.041503906,0.9606323,-0.054748535
1602692862792,344,0.04321289,0.95843506,-0.05596924
1602692862793,345,0.040771484,0.95843506,-0.053771973
1602692862794,346,0.041503906,0.9606323,-0.054748535
1602692862795,347,0.040771484,0.95843506,-0.053771973
1602692862794,348,0.041748047,0.96136475,-0.057922363
1602692862796,349,0.041748047,0.96136475,-0.057922363
1602692862796,350,0.041259766,0.9581909,-0.054992676
1602692862797,351,0.041259766,0.9581909,-0.054992676
1602692862798,352,0.045166016,0.9569702,-0.054992676
1602692862799,353,0.045166016,0.9569702,-0.054992676
1602692862799,354,0.041015625,0.9616089,-0.054260254
1602692862801,355,0.044433594,0.96136475,-0.055725098
1602692862800,356,0.041015625,0.9616089,-0.054260254
1602692862801,357,0.043945312,0.9594116,-0.054016113
1602692862803,358,0.03857422,0.96258545,-0.05670166
1602692862802,359,0.044433594,0.96136475,-0.055725098
1602692862803,360,0.04272461,0.9579468,-0.054992676
1602692862804,361,0.043945312,0.9594116,-0.054016113
1602692862805,362,0.04296875,0.96014404,-0.054748535
1602692862805,363,0.03857422,0.96258545,-0.05670166
1602692862806,364,0.04272461,0.9606323,-0.055480957
1602692862807,365,0.04272461,0.9579468,-0.054992676
1602692862807,366,0.040771484,0.9569702,-0.055725098
1602692862808,367,0.04296875,0.96014404,-0.054748535
1602692862810,368,0.04272461,0.9606323,-0.055480957
1602692862810,369,0.040771484,0.9569702,-0.055725098
1602692862809,370,0.04296875,0.96014404,-0.055725098
1602692862811,371,0.04296875,0.96014404,-0.055725098
1602692862812,372,0.044433594,0.9579468,-0.05328369
1602692862812,373,0.044433594,0.9579468,-0.05328369
1602692862814,374,0.040527344,0.961853,-0.05718994
1602692862814,375,0.041259766,0.9603882,-0.058410645
1602692862813,376,0.040527344,0.961853,-0.05718994
1602692862815,377,0.040039062,0.9606323,-0.059143066
1602692862816,378,0.041259766,0.9603882,-0.058410645
1602692862816,379,0.040039062,0.95892334,-0.058654785
1602692862817,380,0.040039062,0.9606323,-0.059143066
1602692862818,381,0.040039062,0.95892334,-0.058654785
1602692862818,382,0.041503906,0.9598999,-0.06109619
1602692862819,383,0.041503906,0.9598999,-0.06109619
1602692862799,384,0.03881836,0.9598999,-0.054504395
1602692865319,385,0.03881836,0.9598999,-0.054504395
1602692865319,386,0.04248047,0.96014404,-0.059143066
1602692865320,387,0.041503906,0.9574585,-0.055480957
1602692865319,388,0.04248047,0.96014404,-0.059143066
1602692865320,389,0.03930664,0.9603882,-0.058166504
1602692865320,390,0.041503906,0.9574585,-0.055480957
1602692865321,391,0.041748047,0.96136475,-0.058166504
1602692865321,392,0.03930664,0.9603882,-0.058166504
1602692865321,393,0.040283203,0.9611206,-0.058898926
1602692865322,394,0.041748047,0.96136475,-0.058166504
1602692865322,395,0.040527344,0.9594116,-0.05645752
1602692865322,396,0.040283203,0.9611206,-0.058898926
1602692865323,397,0.04248047,0.9591675,-0.055236816
1602692865323,398,0.040527344,0.9594116,-0.05645752
1602692865323,399,0.038085938,0.95965576,-0.057434082
1602692865324,400,0.04248047,0.9591675,-0.055236816
1602692865324,401,0.042236328,0.9591675,-0.057922363
1602692865325,402,0.042236328,0.95892334,-0.054748535
1602692865324,403,0.038085938,0.95965576,-0.057434082
1602692865325,404,0.038085938,0.96014404,-0.058410645
1602692865325,405,0.042236328,0.9591675,-0.057922363
1602692865326,406,0.042236328,0.95892334,-0.054748535
1602692865326,407,0.041259766,0.95892334,-0.05670166
1602692865327,408,0.041748047,0.9579468,-0.057434082
1602692865326,409,0.038085938,0.96014404,-0.058410645
1602692865327,410,0.03955078,0.9611206,-0.061340332
1602692865328,411,0.042236328,0.9616089,-0.06011963
1602692865327,412,0.041259766,0.95892334,-0.05670166
1602692865328,413,0.041748047,0.9579468,-0.057434082
1602692865329,414,0.03955078,0.9611206,-0.061340332
1602692865328,415,0.037597656,0.9611206,-0.058410645
1602692865329,416,0.042236328,0.9616089,-0.06011963
1602692865330,417,0.044189453,0.95843506,-0.06085205
1602692865330,418,0.037597656,0.9611206,-0.058410645
1602692865330,419,0.043701172,0.9598999,-0.06109619
1602692865331,420,0.044189453,0.95843506,-0.06085205
1602692865331,421,0.038330078,0.96087646,-0.059387207
1602692865331,422,0.043701172,0.9598999,-0.06109619
1602692865332,423,0.041748047,0.9557495,-0.059631348
1602692865332,424,0.038330078,0.96087646,-0.059387207
1602692865332,425,0.041748047,0.96014404,-0.06304932
1602692865333,426,0.03930664,0.9598999,-0.061584473
1602692865333,427,0.041259766,0.9598999,-0.061340332
1602692865334,428,0.0390625,0.9598999,-0.06304932
1602692865333,429,0.041748047,0.9557495,-0.059631348
1602692865334,430,0.041259766,0.95648193,-0.06036377
1602692865334,431,0.041748047,0.96014404,-0.06304932
1602692865335,432,0.040283203,0.9594116,-0.05987549
1602692865335,433,0.03930664,0.9598999,-0.061584473
1602692865335,434,0.040527344,0.95843506,-0.05718994
1602692865336,435,0.041259766,0.9598999,-0.061340332
1602692865336,436,0.040771484,0.9603882,-0.066223145
1602692865337,437,0.039794922,0.9586792,-0.059143066
1602692865337,438,0.037597656,0.96258545,-0.061828613
1602692865337,439,0.041015625,0.9557495,-0.05718994
1602692865337,440,0.0390625,0.9598999,-0.06304932
1602692865338,441,0.041259766,0.95648193,-0.06036377
1602692865338,442,0.040283203,0.9594116,-0.05987549
1602692865339,443,0.040527344,0.95843506,-0.05718994
1602692865339,444,0.040771484,0.9603882,-0.066223145
1602692865339,445,0.039794922,0.9586792,-0.059143066
1602692865340,446,0.037597656,0.96258545,-0.061828613
1602692865340,447,0.041015625,0.9557495,-0.05718994
1602692865330,448,0.038085938,0.961853,-0.06060791
1602692867850,449,0.038085938,0.961853,-0.06060791
1602692867850,450,0.040283203,0.9567261,-0.06060791
1602692867850,451,0.040283203,0.9567261,-0.06060791
1602692867851,452,0.04272461,0.96087646,-0.05987549
1602692867851,453,0.04272461,0.96087646,-0.05987549
1602692867852,454,0.037109375,0.9616089,-0.058166504
1602692867853,455,0.037109375,0.9616089,-0.058166504
1602692867852,456,0.041992188,0.9581909,-0.06304932
1602692867853,457,0.041992188,0.9581909,-0.06304932
1602692867854,458,0.041503906,0.9594116,-0.06060791
1602692867855,459,0.041259766,0.96209717,-0.06011963
1602692867854,460,0.041503906,0.9594116,-0.06060791
1602692867855,461,0.041748047,0.95892334,-0.055725098
1602692867856,462,0.041259766,0.96209717,-0.06011963
1602692867856,463,0.037597656,0.96209717,-0.06011963
1602692867857,464,0.041748047,0.95892334,-0.055725098
1602692867857,465,0.04296875,0.95892334,-0.061340332
1602692867858,466,0.040039062,0.9591675,-0.06060791
1602692867857,467,0.037597656,0.96209717,-0.06011963
1602692867858,468,0.036621094,0.95965576,-0.057922363
1602692867859,469,0.04296875,0.95892334,-0.061340332
1602692867859,470,0.040527344,0.9603882,-0.062561035
1602692867860,471,0.040039062,0.9591675,-0.06060791
1602692867860,472,0.040527344,0.9586792,-0.062316895
1602692867861,473,0.0390625,0.96014404,-0.062072754
1602692867861,474,0.036621094,0.95965576,-0.057922363
1602692867862,475,0.041259766,0.9594116,-0.0569458
1602692867862,476,0.040527344,0.9603882,-0.062561035
1602692867863,477,0.040527344,0.9586792,-0.062316895
1602692867864,478,0.0390625,0.96014404,-0.062072754
1602692867863,479,0.036132812,0.95843506,-0.058166504
1602692867865,480,0.040771484,0.961853,-0.06085205
1602692867865,481,0.041259766,0.9594116,-0.0569458
1602692867865,482,0.036132812,0.95843506,-0.058166504
1602692867865,483,0.039794922,0.95770264,-0.058166504
1602692867866,484,0.040771484,0.961853,-0.06085205
1602692867866,485,0.03564453,0.96014404,-0.06109619
1602692867867,486,0.041259766,0.9606323,-0.059631348
1602692867868,487,0.040771484,0.9598999,-0.0569458
1602692867867,488,0.039794922,0.95770264,-0.058166504
1602692867868,489,0.040039062,0.9616089,-0.061340332
1602692867869,490,0.03564453,0.96014404,-0.06109619
1602692867869,491,0.03857422,0.9574585,-0.06011963
1602692867870,492,0.041259766,0.9606323,-0.059631348
1602692867871,493,0.037841797,0.9603882,-0.057678223
1602692867871,494,0.040771484,0.9598999,-0.0569458
1602692867872,495,0.040039062,0.9616089,-0.061340332
1602692867871,496,0.042236328,0.9594116,-0.05670166
1602692867872,497,0.03857422,0.9574585,-0.06011963
1602692867872,498,0.041015625,0.9606323,-0.05987549
1602692867873,499,0.037841797,0.9603882,-0.057678223
1602692867873,500,0.03881836,0.9594116,-0.05670166
1602692867874,501,0.042236328,0.9594116,-0.05670166
1602692867874,502,0.0390625,0.9603882,-0.05987549
1602692867875,503,0.041015625,0.9606323,-0.05987549
1602692867876,504,0.03881836,0.9594116,-0.05670166
1602692867876,505,0.0390625,0.9603882,-0.05987549
1602692867875,506,0.0390625,0.95892334,-0.059143066
1602692867877,507,0.0390625,0.95892334,-0.059143066
1602692867877,508,0.040771484,0.96209717,-0.059387207
1602692867878,509,0.040771484,0.96209717,-0.059387207
1602692867878,510,0.038085938,0.95892334,-0.05718994
1602692867879,511,0.038085938,0.95892334,-0.05718994
1602692867865,512,0.03955078,0.95843506,-0.059387207
1602692870385,513,0.03955078,0.95843506,-0.059387207
1602692870385,514,0.04248047,0.96014404,-0.058898926
1602692870386,515,0.04248047,0.96014404,-0.058898926
1602692870387,516,0.03955078,0.95965576,-0.05987549
1602692870388,517,0.03955078,0.95965576,-0.05987549
1602692870387,518,0.039794922,0.95526123,-0.0569458
1602692870389,519,0.039794922,0.95526123,-0.0569458
1602692870390,520,0.040771484,0.9623413,-0.058410645
1602692870390,521,0.040771484,0.9623413,-0.058410645
1602692870391,522,0.043945312,0.95965576,-0.05718994
1602692870392,523,0.043945312,0.95965576,-0.05718994
1602692870392,524,0.045654297,0.9557495,-0.053771973
1602692870393,525,0.045654297,0.9557495,-0.053771973
1602692870394,526,0.040527344,0.95965576,-0.05255127
1602692870395,527,0.040527344,0.95965576,-0.05255127
1602692870396,528,0.041992188,0.95965576,-0.057678223
1602692870395,529,0.041992188,0.95965576,-0.057678223
1602692870397,530,0.041259766,0.9567261,-0.05255127
1602692870397,531,0.041259766,0.9567261,-0.05255127
1602692870398,532,0.03881836,0.96551514,-0.05670166
1602692870399,533,0.03881836,0.96551514,-0.05670166
1602692870400,534,0.041748047,0.95477295,-0.05230713
1602692870400,535,0.041748047,0.95477295,-0.05230713
1602692870401,536,0.03955078,0.963562,-0.05670166
1602692870402,537,0.03955078,0.963562,-0.05670166
1602692870402,538,0.041259766,0.95965576,-0.051330566
1602692870404,539,0.042236328,0.9603882,-0.049621582
1602692870403,540,0.041259766,0.95965576,-0.051330566
1602692870405,541,0.037841797,0.9591675,-0.047912598
1602692870405,542,0.042236328,0.9603882,-0.049621582
1602692870406,543,0.040283203,0.9598999,-0.054016113
1602692870407,544,0.037841797,0.9591675,-0.047912598
1602692870408,545,0.040527344,0.9598999,-0.051330566
1602692870408,546,0.040283203,0.9598999,-0.054016113
1602692870409,547,0.03955078,0.95721436,-0.04864502
1602692870410,548,0.040527344,0.9598999,-0.051330566
1602692870411,549,0.03955078,0.95721436,-0.04864502
1602692870411,550,0.041015625,0.95892334,-0.05645752
1602692870412,551,0.041015625,0.95892334,-0.05645752
1602692870413,552,0.03930664,0.9606323,-0.054260254
1602692870413,553,0.03930664,0.9606323,-0.054260254
1602692870414,554,0.03857422,0.9606323,-0.05645752
1602692870415,555,0.03857422,0.9606323,-0.05645752
1602692870415,556,0.040283203,0.95770264,-0.051818848
1602692870417,557,0.041748047,0.9594116,-0.051818848
1602692870416,558,0.040283203,0.95770264,-0.051818848
1602692870418,559,0.041503906,0.9616089,-0.054748535
1602692870418,560,0.041748047,0.9594116,-0.051818848
1602692870419,561,0.042236328,0.95965576,-0.05255127
1602692870420,562,0.041503906,0.9616089,-0.054748535
1602692870420,563,0.041748047,0.9586792,-0.051086426
1602692870421,564,0.042236328,0.95965576,-0.05255127
1602692870423,565,0.041748047,0.9586792,-0.051086426
1602692870422,566,0.043701172,0.95892334,-0.05303955
1602692870423,567,0.043701172,0.95892334,-0.05303955
1602692870424,568,0.04272461,0.9581909,-0.04888916
1602692870425,569,0.04272461,0.9581909,-0.04888916
1602692870425,570,0.043945312,0.9598999,-0.051086426
1602692870426,571,0.043945312,0.9598999,-0.051086426
1602692870427,572,0.037109375,0.96087646,-0.0491333
1602692870428,573,0.037109375,0.96087646,-0.0491333
1602692870428,574,0.04272461,0.96014404,-0.051818848
1602692870429,575,0.04272461,0.96014404,-0.051818848
1602692872928,576,0.04248047,0.9594116,-0.049621582
1602692872928,577,0.041259766,0.9586792,-0.05230713
1602692872928,578,0.041748047,0.9603882,-0.051574707
1602692870408,579,0.04248047,0.9594116,-0.049621582
1602692872928,580,0.04248047,0.95721436,-0.049865723
1602692872928,581,0.04248047,0.9616089,-0.051574707
1602692872928,582,0.041259766,0.9586792,-0.05230713
1602692872928,583,0.043701172,0.9591675,-0.050354004
1602692872929,584,0.041748047,0.9603882,-0.051574707
1602692872929,585,0.036865234,0.9603882,-0.0491333
1602692872929,586,0.04248047,0.95721436,-0.049865723
1602692872929,587,0.043945312,0.9581909,-0.054504395
1602692872929,588,0.04248047,0.9616089,-0.051574707
1602692872929,589,0.03955078,0.9591675,-0.055725098
1602692872930,590,0.043701172,0.9591675,-0.050354004
1602692872930,591,0.038330078,0.95843506,-0.053771973
1602692872930,592,0.036865234,0.9603882,-0.0491333
1602692872930,593,0.041259766,0.95892334,-0.054260254
1602692872930,594,0.043945312,0.9581909,-0.054504395
1602692872930,595,0.040283203,0.9591675,-0.053771973
1602692872930,596,0.03955078,0.9591675,-0.055725098
1602692872931,597,0.03881836,0.9628296,-0.058166504
1602692872931,598,0.038330078,0.95843506,-0.053771973
1602692872931,599,0.042236328,0.9557495,-0.055725098
1602692872931,600,0.041259766,0.95892334,-0.054260254
1602692872931,601,0.036865234,0.96258545,-0.05279541
1602692872931,602,0.040283203,0.9591675,-0.053771973
1602692872932,603,0.04248047,0.96209717,-0.05279541
1602692872932,604,0.03881836,0.9628296,-0.058166504
1602692872932,605,0.044677734,0.9574585,-0.05279541
1602692872932,606,0.042236328,0.9557495,-0.055725098
1602692872932,607,0.03540039,0.9660034,-0.051574707
1602692872932,608,0.036865234,0.96258545,-0.05279541
1602692872933,609,0.036865234,0.95965576,-0.045715332
1602692872933,610,0.04248047,0.96209717,-0.05279541
1602692872933,611,0.041992188,0.95843506,-0.050842285
1602692872933,612,0.041992188,0.9606323,-0.050354004
1602692872933,613,0.044677734,0.9574585,-0.05279541
1602692872933,614,0.04321289,0.96014404,-0.04937744
1602692872933,615,0.03540039,0.9660034,-0.051574707
1602692872934,616,0.04272461,0.9611206,-0.050354004
1602692872934,617,0.036865234,0.95965576,-0.045715332
1602692872934,618,0.041992188,0.95843506,-0.050842285
1602692872934,619,0.041015625,0.9567261,-0.050354004
1602692872934,620,0.043945312,0.9581909,-0.047668457
1602692872934,621,0.041992188,0.9606323,-0.050354004
1602692872935,622,0.041992188,0.96087646,-0.049865723
1602692872935,623,0.04321289,0.96014404,-0.04937744
1602692872935,624,0.041015625,0.9581909,-0.046447754
1602692872935,625,0.043945312,0.9603882,-0.054016113
1602692872935,626,0.04272461,0.9611206,-0.050354004
1602692872935,627,0.044189453,0.9567261,-0.04888916
1602692872935,628,0.041015625,0.9567261,-0.050354004
1602692872936,629,0.04296875,0.963562,-0.054748535
1602692872936,630,0.043945312,0.9581909,-0.047668457
1602692872936,631,0.04248047,0.9574585,-0.047180176
1602692872936,632,0.041992188,0.96087646,-0.049865723
1602692872936,633,0.036865234,0.9633179,-0.05206299
1602692872936,634,0.041015625,0.9581909,-0.046447754
1602692872937,635,0.043945312,0.9603882,-0.054016113
1602692872937,636,0.044189453,0.9567261,-0.04888916
1602692872937,637,0.04296875,0.963562,-0.054748535
1602692872937,638,0.04248047,0.9574585,-0.047180176
1602692872937,639,0.036865234,0.9633179,-0.05206299
1602692872933,640,0.044433594,0.9594116,-0.04840088
1602692875453,641,0.044433594,0.9594116,-0.04840088
1602692875459,642,0.044921875,0.961853,-0.042053223
1602692875466,643,0.044921875,0.961853,-0.042053223
1602692875473,644,0.04272461,0.9528198,-0.030334473
1602692875480,645,0.04272461,0.9528198,-0.030334473
1602692875494,646,0.043701172,0.95892334,-0.03765869
1602692875487,647,0.043701172,0.95892334,-0.03765869
1602692875508,648,0.041748047,0.963562,-0.043273926
1602692875501,649,0.041748047,0.963562,-0.043273926
1602692875515,650,0.041992188,0.9591675,-0.039123535
1602692875522,651,0.041992188,0.9591675,-0.039123535
1602692875535,652,0.04345703,0.95965576,-0.042297363
1602692875528,653,0.04345703,0.95965576,-0.042297363
1602692875542,654,0.04272461,0.9574585,-0.039123535
1602692875549,655,0.04272461,0.9574585,-0.039123535
1602692875556,656,0.045898438,0.96014404,-0.04522705
1602692875563,657,0.045898438,0.96014404,-0.04522705
1602692875570,658,0.04711914,0.9545288,-0.0413208
1602692875577,659,0.04711914,0.9545288,-0.0413208
1602692875584,660,0.0390625,0.96502686,-0.04425049
1602692875591,661,0.0390625,0.96502686,-0.04425049
1602692875598,662,0.037841797,0.9594116,-0.038635254
1602692875604,663,0.037841797,0.9594116,-0.038635254
1602692875611,664,0.047607422,0.95892334,-0.040100098
1602692875625,665,0.043701172,0.96087646,-0.040100098
1602692875618,666,0.047607422,0.95892334,-0.040100098
1602692875632,667,0.041992188,0.9567261,-0.04058838
1602692875639,668,0.043701172,0.96087646,-0.040100098
1602692875646,669,0.041015625,0.9645386,-0.046691895
1602692875660,670,0.040771484,0.9598999,-0.043518066
1602692875660,671,0.041992188,0.9567261,-0.04058838
1602692875667,672,0.04321289,0.9598999,-0.045715332
1602692875674,673,0.041015625,0.9645386,-0.046691895
1602692875680,674,0.041992188,0.95599365,-0.042053223
1602692875687,675,0.040771484,0.9598999,-0.043518066
1602692875694,676,0.041259766,0.9611206,-0.043762207
1602692875701,677,0.04321289,0.9598999,-0.045715332
1602692875708,678,0.041748047,0.95965576,-0.038635254
1602692875722,679,0.040527344,0.96014404,-0.04425049
1602692875715,680,0.041992188,0.95599365,-0.042053223
1602692875729,681,0.041259766,0.95965576,-0.04156494
1602692875736,682,0.041259766,0.9611206,-0.043762207
1602692875749,683,0.041748047,0.95965576,-0.038635254
1602692875743,684,0.041992188,0.96136475,-0.042541504
1602692875756,685,0.040527344,0.96014404,-0.04425049
1602692875770,686,0.041259766,0.95965576,-0.04156494
1602692875763,687,0.044677734,0.9579468,-0.04107666
1602692875777,688,0.041992188,0.96136475,-0.042541504
1602692875784,689,0.04345703,0.9611206,-0.043762207
1602692875791,690,0.044677734,0.9579468,-0.04107666
1602692875798,691,0.040039062,0.9616089,-0.045715332
1602692875805,692,0.04345703,0.9611206,-0.043762207
1602692875812,693,0.04321289,0.9616089,-0.04449463
1602692875819,694,0.040039062,0.9616089,-0.045715332
1602692875825,695,0.04296875,0.95892334,-0.044006348
1602692875839,696,0.044433594,0.9598999,-0.04498291
1602692875832,697,0.04321289,0.9616089,-0.04449463
1602692875853,698,0.04296875,0.95892334,-0.044006348
1602692875846,699,0.040527344,0.95965576,-0.046936035
1602692875867,700,0.04638672,0.9594116,-0.043273926
1602692875860,701,0.044433594,0.9598999,-0.04498291
1602692875881,702,0.040527344,0.95965576,-0.046936035
1602692875888,703,0.04638672,0.9594116,-0.043273926
1602692875674,704,0.043701172,0.9598999,-0.043762207
1602692878194,705,0.043701172,0.9598999,-0.043762207
1602692878194,706,0.041748047,0.9606323,-0.04449463
1602692878194,707,0.04272461,0.9594116,-0.046691895
1602692878195,708,0.041748047,0.9606323,-0.04449463
1602692878195,709,0.041259766,0.95965576,-0.04522705
1602692878195,710,0.041992188,0.9611206,-0.043518066
1602692878196,711,0.04272461,0.9594116,-0.046691895
1602692878196,712,0.041259766,0.95965576,-0.04522705
1602692878196,713,0.043945312,0.95843506,-0.043762207
1602692878197,714,0.041992188,0.9611206,-0.043518066
1602692878197,715,0.043945312,0.95843506,-0.043762207
1602692878197,716,0.03930664,0.9616089,-0.043518066
1602692878198,717,0.03930664,0.9616089,-0.043518066
1602692878198,718,0.045410156,0.961853,-0.045959473
1602692878199,719,0.045410156,0.961853,-0.045959473
1602692878199,720,0.045166016,0.95648193,-0.04058838
1602692878199,721,0.045166016,0.95648193,-0.04058838
1602692878199,722,0.0390625,0.96087646,-0.041809082
1602692878200,723,0.0390625,0.96087646,-0.041809082
1602692878200,724,0.043701172,0.9591675,-0.043029785
1602692878200,725,0.043701172,0.9591675,-0.043029785
1602692878201,726,0.044433594,0.9603882,-0.04522705
1602692878201,727,0.041503906,0.9603882,-0.042541504
1602692878202,728,0.043701172,0.9594116,-0.042053223
1602692878202,729,0.03930664,0.96136475,-0.044006348
1602692878201,730,0.044433594,0.9603882,-0.04522705
1602692878202,731,0.044921875,0.95965576,-0.046203613
1602692878203,732,0.041503906,0.9603882,-0.042541504
1602692878203,733,0.045654297,0.96014404,-0.04156494
1602692878203,734,0.043701172,0.9594116,-0.042053223
1602692878204,735,0.041992188,0.9594116,-0.04156494
1602692878204,736,0.03930664,0.96136475,-0.044006348
1602692878205,737,0.04296875,0.9603882,-0.04888916
1602692878205,738,0.044921875,0.95965576,-0.046203613
1602692878205,739,0.04272461,0.96136475,-0.04815674
1602692878206,740,0.045654297,0.96014404,-0.04156494
1602692878206,741,0.03857422,0.96136475,-0.046936035
1602692878206,742,0.041992188,0.9594116,-0.04156494
1602692878207,743,0.043945312,0.94989014,-0.04473877
1602692878207,744,0.04296875,0.9603882,-0.04888916
1602692878207,745,0.037353516,0.9503784,-0.051086426
1602692878208,746,0.04272461,0.96136475,-0.04815674
1602692878208,747,0.030517578,0.9779663,-0.09918213
1602692878208,748,0.03857422,0.96136475,-0.046936035
1602692878209,749,0.030273438,0.9598999,-0.09991455
1602692878209,750,0.043945312,0.94989014,-0.04473877
1602692878209,751,0.026367188,0.95965576,-0.09429932
1602692878210,752,0.037353516,0.9503784,-0.051086426
1602692878210,753,0.026123047,0.9581909,-0.09893799
1602692878210,754,0.030517578,0.9779663,-0.09918213
1602692878211,755,0.028320312,0.95843506,-0.093322754
1602692878211,756,0.030273438,0.9598999,-0.09991455
1602692878211,757,0.028076172,0.96014404,-0.08843994
1602692878212,758,0.026367188,0.95965576,-0.09429932
1602692878212,759,0.029052734,0.9591675,-0.09136963
1602692878212,760,0.026123047,0.9581909,-0.09893799
1602692878213,761,0.025390625,0.95965576,-0.08453369
1602692878213,762,0.028320312,0.95843506,-0.093322754
1602692878213,763,0.029052734,0.9616089,-0.09283447
1602692878214,764,0.028076172,0.96014404,-0.08843994
1602692878214,765,0.029052734,0.9591675,-0.09136963
1602692878215,766,0.025390625,0.95965576,-0.08453369
1602692878215,767,0.029052734,0.9616089,-0.09283447
