"# PDIoT walking data"
"# Start time: 20190923T154428"
"# Group: H"
"# Subject: tom"
"# Activity type: Descending stairs"
"# Sensor position: Wrist"
"# Side of body: Left"
"# Sensor mounting: Body"
"# Number of steps: 100"
"# Notes: "
""
"timestamp","seq","accel_x","accel_y","accel_z","gyro_x","gyro_y","gyro_z"
"1569249868433","0","-0.9140625","-0.041992188","0.484375","2.375","10.84375","-11.25"
"1569249868525","1","-0.89453125","0.016601562","0.4716797","24.03125","6.6875","-15.40625"
"1569249868614","2","-0.90722656","-0.03515625","0.4794922","-6.375","7.96875","-11.96875"
"1569249868734","3","-0.9345703","0.015625","0.47558594","8.15625","5.65625","-4.15625"
"1569249868823","4","-0.9013672","0.0146484375","0.47851562","-7.9375","-0.6875","6.5625"
"1569249868944","5","-0.89160156","0.025390625","0.45117188","-7.40625","1.03125","5.65625"
"1569249869034","6","-0.9169922","0.0048828125","0.4423828","-6.84375","5.84375","8.03125"
"1569249869124","7","-0.9082031","-0.0126953125","0.4609375","-11.125","6.40625","12.375"
"1569249869244","8","-0.8701172","-0.03125","0.41503906","0.59375","-2.15625","11.03125"
"1569249869334","9","-0.87597656","-0.001953125","0.40722656","-11.0","11.75","2.375"
"1569249869424","10","-0.9550781","0.036132812","0.4189453","-13.6875","6.15625","10.46875"
"1569249869544","11","-0.88964844","0.03515625","0.38867188","-2.46875","11.21875","3.03125"
"1569249869633","12","-0.984375","-0.0068359375","0.3935547","-8.0625","20.5625","-11.625"
"1569249869723","13","-0.9355469","0.09082031","0.3876953","19.03125","16.84375","-18.5625"
"1569249869848","14","-0.6894531","0.10449219","0.36523438","24.46875","-7.875","-17.40625"
"1569249869934","15","-0.6435547","0.08496094","0.33691406","31.78125","-27.71875","-14.65625"
"1569249870024","16","-1.3652344","-0.041992188","0.4453125","4.5","-35.96875","-17.59375"
"1569249870143","17","-1.5087891","0.01171875","0.5761719","-3.1875","3.84375","-8.375"
"1569249870233","18","-0.8798828","-0.0146484375","0.5292969","10.46875","25.1875","-1.25"
"1569249870323","19","-0.40234375","0.10058594","0.37597656","2.375","-7.46875","26.34375"
"1569249870534","20","-0.67871094","-0.052734375","0.36328125","-49.40625","-8.125","38.1875"
"1569249870564","21","-1.4179688","-0.0146484375","0.47753906","-47.5","18.84375","24.71875"
"1569249870623","22","-1.6181641","-0.01953125","0.37402344","18.28125","-30.46875","16.40625"
"1569249870834","23","-0.6875","-0.0078125","0.31152344","2.375","4.1875","-7.59375"
"1569249870863","24","-0.3095703","0.1015625","0.35253906","-13.4375","-1.84375","-13.9375"
"1569249870923","25","-1.5439453","-0.037109375","0.5048828","-11.71875","-56.46875","14.28125"
"1569249871073","26","-0.9785156","0.005859375","0.6923828","43.6875","9.8125","-8.3125"
"1569249871133","27","-0.97265625","-0.051757812","0.48046875","31.65625","53.5625","-30.46875"
"1569249871224","28","-0.35546875","0.16308594","0.45996094","6.21875","24.15625","-2.21875"
"1569249871344","29","-0.77734375","0.0625","0.4248047","-19.71875","-21.875","44.78125"
"1569249871433","30","-1.5898438","-0.119140625","0.5908203","11.75","-13.6875","21.46875"
"1569249871523","31","-1.2402344","0.040039062","0.38964844","13.09375","-22.21875","22.375"
"1569249871644","32","-0.7607422","-0.04296875","0.390625","14.3125","41.3125","-27.90625"
"1569249871733","33","-0.53027344","0.15722656","0.3798828","-30.59375","25.75","-22.21875"
"1569249871824","34","-0.5957031","0.016601562","0.2939453","-7.46875","-34.75","-2.75"
"1569249871944","35","-1.4882812","-0.10253906","0.51171875","-17.78125","-58.78125","27.875"
"1569249872033","36","-1.2089844","0.16308594","0.6582031","32.9375","-4.03125","12.625"
"1569249872123","37","-1.0380859","-0.099609375","0.48535156","15.0625","67.6875","-40.71875"
"1569249872243","38","-0.33007812","0.18261719","0.4248047","6.5625","29.59375","-0.9375"
"1569249872333","39","-0.6953125","0.0859375","0.42382812","1.6875","-7.9375","31.84375"
"1569249872423","40","-1.6513672","-0.034179688","0.55371094","14.03125","-31.25","24.34375"
"1569249872546","41","-1.3964844","0.020507812","0.45898438","-15.6875","-21.8125","32.15625"
"1569249872634","42","-0.56347656","0.029296875","0.35742188","34.71875","1.3125","-3.6875"
"1569249872723","43","-0.5527344","0.045898438","0.31640625","-29.9375","-0.375","-7.875"
"1569249872844","44","-0.67871094","0.055664062","0.34375","8.09375","-15.6875","3.90625"
"1569249872934","45","-1.1914062","-0.32421875","0.6015625","-21.0625","-5.5625","-20.65625"
"1569249873024","46","-1.3564453","-0.018554688","0.6455078","48.875","33.4375","-52.03125"
"1569249873151","47","-0.72265625","0.048828125","0.54003906","62.84375","14.75","-14.0"
"1569249873235","48","-0.4140625","-0.013671875","0.42871094","69.25","-0.9375","-23.15625"
"1569249873324","49","-0.66796875","-0.045898438","0.47753906","38.6875","-9.15625","-1.65625"
"1569249873443","50","-1.6962891","-0.016601562","0.64746094","51.75","2.5","-14.25"
"1569249873534","51","-1.2626953","0.091796875","0.49609375","84.625","-40.59375","5.53125"
"1569249873624","52","-0.9667969","-0.11621094","0.34375","51.0","-15.28125","-10.4375"
"1569249873744","53","-0.7607422","0.052734375","0.38867188","106.5","-14.53125","-51.78125"
"1569249873834","54","-0.41210938","0.05859375","0.36035156","55.71875","-36.40625","-29.9375"
"1569249873924","55","-0.49609375","0.22949219","0.5078125","27.5","-15.875","-39.75"
"1569249874047","56","-0.9033203","0.27539062","0.7265625","46.4375","15.96875","-70.5"
"1569249874134","57","-0.88183594","0.15722656","0.70410156","102.40625","-8.1875","-75.875"
"1569249874224","58","-1.8583984","0.08984375","0.62890625","39.0","-27.0625","-37.78125"
"1569249874343","59","-0.95214844","0.19042969","0.5361328","21.78125","8.84375","3.90625"
"1569249874434","60","-0.7832031","0.03515625","0.4921875","2.65625","54.375","-27.40625"
"1569249874524","61","-0.42578125","0.11328125","0.4404297","-38.90625","36.96875","-10.40625"
"1569249874643","62","-0.9248047","0.080078125","0.47070312","-7.71875","-21.6875","29.34375"
"1569249874733","63","-1.5058594","-0.020507812","0.47265625","50.71875","-49.46875","34.59375"
"1569249874824","64","-0.8466797","-0.11425781","0.41210938","-7.28125","-24.1875","25.3125"
"1569249874944","65","-0.29589844","0.087890625","0.27539062","20.75","-42.75","10.46875"
"1569249875034","66","-0.4658203","-0.025390625","0.27929688","34.71875","-15.875","-22.15625"
"1569249875123","67","-1.4414062","0.028320312","0.8623047","39.46875","33.3125","-87.46875"
"1569249875244","68","-1.2294922","0.2734375","0.7832031","49.59375","9.9375","-43.15625"
"1569249875333","69","-0.44726562","0.2265625","0.5644531","34.53125","1.03125","13.03125"
"1569249875424","70","-0.43554688","0.115234375","0.52246094","-15.8125","-8.25","29.78125"
"1569249875543","71","-0.7363281","0.00390625","0.6064453","50.09375","-21.75","2.4375"
"1569249875634","72","-2.0","-0.057617188","0.6113281","38.6875","-24.75","-33.34375"
"1569249875723","73","-1.3476562","0.27929688","0.35058594","82.03125","-35.40625","-14.90625"
"1569249875843","74","-0.9189453","0.038085938","0.33496094","65.15625","25.5","-69.03125"
"1569249875933","75","-0.84375","0.3076172","0.40625","77.125","4.125","-74.21875"
"1569249876023","76","-0.6142578","0.1953125","0.3466797","84.9375","-37.375","-41.6875"
"1569249876144","77","-0.46972656","0.26171875","0.3828125","42.65625","-26.75","-35.125"
"1569249876236","78","-0.6464844","0.20800781","0.46484375","42.40625","6.6875","-68.0"
"1569249876323","79","-1.7978516","0.12109375","0.6875","29.21875","3.21875","-89.5"
"1569249876443","80","-1.4404297","0.041015625","0.64160156","-13.375","-4.34375","12.9375"
"1569249876533","81","-0.6933594","0.099609375","0.40820312","70.53125","3.03125","-0.3125"
"1569249876623","82","-0.39453125","0.14355469","0.31640625","-10.75","2.59375","7.25"
"1569249876744","83","-0.2939453","0.0126953125","0.35058594","1.5","6.9375","18.125"
"1569249876837","84","-1.2216797","0.052734375","0.5517578","-38.96875","-12.71875","43.375"
"1569249876923","85","-1.6425781","0.12011719","0.4794922","91.46875","-20.875","-0.875"
"1569249877047","86","-0.87890625","-0.05078125","0.35546875","-47.25","20.375","14.375"
"1569249877134","87","-0.25683594","0.048828125","0.38085938","20.4375","18.53125","-38.65625"
"1569249877224","88","-0.7167969","0.08203125","0.29101562","-31.09375","-21.375","-14.40625"
"1569249877343","89","-1.5117188","0.01171875","0.51171875","-9.78125","-38.34375","17.375"
"1569249877434","90","-1.2167969","0.024414062","0.6660156","7.375","41.4375","-27.25"
"1569249877524","91","-0.7734375","-0.0390625","0.48242188","-17.78125","27.6875","-25.28125"
"1569249877643","92","-0.34765625","0.14453125","0.40722656","24.53125","-6.25","3.09375"
"1569249877734","93","-0.83496094","-0.09667969","0.42578125","-21.875","7.0625","40.8125"
"1569249877824","94","-1.84375","-0.028320312","0.60058594","10.1875","-17.34375","1.625"
"1569249877944","95","-0.83496094","0.0546875","0.39257812","6.03125","-23.5625","14.5"
"1569249878034","96","-0.45996094","0.049804688","0.29003906","5.53125","5.59375","-10.875"
"1569249878124","97","-0.68359375","0.057617188","0.32714844","-20.53125","0.59375","-24.90625"
"1569249878243","98","-1.1396484","0.10253906","0.56347656","14.3125","-25.21875","12.5"
"1569249878364","99","-1.2705078","-0.043945312","0.671875","31.28125","7.5625","-12.78125"
"1569249878423","100","-1.0830078","-0.04296875","0.60058594","-51.59375","60.09375","-37.1875"
"1569249878544","101","-0.27148438","0.12792969","0.37597656","16.40625","10.1875","-6.25"
"1569249878634","102","-0.72558594","0.040039062","0.4345703","-54.46875","-1.59375","24.59375"
"1569249878725","103","-1.5703125","-0.046875","0.49121094","52.96875","-23.40625","41.25"
"1569249878844","104","-0.9814453","-0.07910156","0.38867188","-36.03125","-3.6875","34.59375"
"1569249878933","105","-0.5439453","0.001953125","0.359375","15.84375","8.34375","-7.59375"
"1569249879054","106","-0.56933594","0.078125","0.3046875","9.875","-1.34375","-21.3125"
"1569249879144","107","-0.81347656","0.029296875","0.3515625","11.53125","-33.46875","-14.0"
"1569249879234","108","-1.1630859","-0.20214844","0.5332031","-24.0625","13.53125","-33.78125"
"1569249879324","109","-1.1933594","0.0078125","0.60253906","14.9375","56.625","-63.125"
"1569249879444","110","-0.47753906","0.12890625","0.47558594","43.6875","37.03125","-31.21875"
"1569249879534","111","-0.53515625","0.13671875","0.38867188","23.84375","-1.90625","24.875"
"1569249879624","112","-1.0771484","0.09082031","0.4765625","47.15625","-25.15625","48.03125"
"1569249879745","113","-1.6132812","-0.056640625","0.47558594","62.125","-31.09375","41.375"
"1569249879834","114","-0.92285156","0.1171875","0.32421875","18.96875","-27.40625","46.6875"
"1569249879923","115","-0.6113281","0.10253906","0.36523438","9.875","-1.25","8.71875"
"1569249880044","116","-0.62597656","0.14648438","0.38476562","25.875","-14.65625","-23.875"
"1569249880133","117","-0.5761719","0.2841797","0.359375","77.125","-2.625","-38.46875"
"1569249880224","118","-1.9326172","0.029296875","0.6123047","64.5625","-9.78125","-65.03125"
"1569249880343","119","-1.5839844","0.22167969","0.6357422","150.25","-29.125","-58.71875"
"1569249880433","120","-0.75683594","0.059570312","0.36328125","69.6875","-19.375","-46.40625"
"1569249880554","121","-0.41308594","0.16113281","0.3388672","38.3125","-9.125","-34.9375"
"1569249880643","122","-0.69140625","0.12011719","0.41503906","30.5","10.84375","-32.0625"
"1569249880733","123","-0.8378906","0.18554688","0.47460938","50.875","34.96875","-32.1875"
"1569249880826","124","-1.1875","0.17089844","0.46484375","11.28125","55.46875","-44.75"
"1569249880946","125","-0.9472656","0.20117188","0.3798828","-60.875","-11.0625","34.78125"
"1569249881034","126","-0.99902344","0.0703125","0.1953125","38.6875","-29.9375","51.875"
"1569249881125","127","-0.7167969","0.01953125","0.22753906","-8.125","-35.34375","60.96875"
"1569249881274","128","-0.6738281","-0.091796875","0.22558594","-6.0","-48.65625","28.125"
"1569249881334","129","-0.65722656","-0.05078125","0.3642578","48.3125","-50.1875","-32.78125"
"1569249881424","130","-1.5283203","0.2919922","0.5605469","158.1875","11.71875","-131.59375"
"1569249881544","131","-0.93847656","0.4873047","0.37109375","0.96875","53.4375","-58.90625"
"1569249881634","132","-0.6777344","0.32128906","0.39941406","19.5625","-2.03125","-8.5"
"1569249881755","133","-0.70996094","0.42285156","0.27539062","-18.3125","-18.6875","60.28125"
"1569249881844","134","-1.7617188","0.18457031","0.26171875","-114.59375","3.34375","54.25"
"1569249881935","135","-1.0136719","0.30859375","0.23632812","-16.9375","6.75","56.5625"
"1569249882055","136","-0.75878906","0.13183594","0.29003906","-57.15625","23.53125","31.96875"
"1569249882145","137","-0.5722656","0.29882812","0.34765625","-12.65625","-16.0625","30.9375"
"1569249882233","138","-0.6230469","0.25585938","0.37890625","16.84375","-24.375","13.15625"
"1569249882355","139","-1.1796875","0.29101562","0.58496094","34.03125","-21.0625","-20.34375"
"1569249882476","140","-0.875","0.23339844","0.53808594","-34.625","-9.40625","-1.0"
"1569249882535","141","-0.54296875","0.07128906","0.3623047","43.75","-17.03125","-5.625"
"1569249882655","142","-0.9189453","0.025390625","0.37890625","-13.5","-1.84375","-11.4375"
"1569249882744","143","-0.890625","-0.048828125","0.32617188","67.3125","-9.34375","-17.09375"
"1569249882834","144","-1.4462891","0.11035156","0.28320312","62.71875","-10.21875","-49.28125"
"1569249882954","145","-1.3466797","0.32617188","0.2421875","111.375","-4.84375","-72.90625"
"1569249883046","146","-0.98828125","0.22753906","0.2685547","60.15625","-6.25","-41.75"
"1569249883134","147","-0.7685547","0.18945312","0.44726562","54.25","-15.8125","-39.875"
"1569249883373","148","-0.6201172","0.33203125","0.40820312","87.625","-45.5","-14.1875"
"1569249883403","149","-0.7207031","0.1484375","0.3876953","68.96875","-20.09375","-41.21875"
"1569249883434","150","-0.9667969","0.072265625","0.48046875","53.5625","14.375","-50.5625"
"1569249883647","151","-1.2412109","0.16015625","0.3876953","72.3125","11.15625","-44.8125"
"1569249883674","152","-1.0693359","0.060546875","0.2890625","43.8125","3.09375","-17.53125"
"1569249883733","153","-0.5644531","0.036132812","0.2919922","28.0","29.53125","-3.96875"
"1569249883853","154","-0.36132812","0.06542969","0.28515625","10.46875","27.875","-21.8125"
"1569249883943","155","-0.6542969","0.056640625","0.3173828","-46.40625","10.3125","-11.625"
"1569249884033","156","-1.8496094","-0.13183594","0.35253906","-26.25","-0.5625","-17.09375"
"1569249884153","157","-1.2636719","0.11425781","0.24023438","30.375","-24.4375","46.375"
"1569249884246","158","-0.39746094","0.045898438","0.3203125","24.46875","13.28125","-4.21875"
"1569249884337","159","-0.6621094","0.041015625","0.21777344","-21.1875","-12.28125","-6.90625"
"1569249884453","160","-1.1181641","0.028320312","0.16796875","7.96875","-25.40625","-11.0625"
"1569249884543","161","-1.5214844","0.025390625","0.41308594","64.1875","14.5","-60.5625"
"1569249884634","162","-0.96875","0.0390625","0.43066406","-5.75","51.375","-26.5"
"1569249884753","163","-0.4375","0.20117188","0.37109375","6.40625","-6.375","3.59375"
"1569249884843","164","-0.67578125","0.09082031","0.30371094","-14.125","-27.96875","40.4375"
"1569249884933","165","-1.8095703","-0.09277344","0.2607422","-54.75","-41.75","30.0625"
"1569249885054","166","-1.1816406","0.052734375","0.2578125","8.84375","-15.625","43.5625"
"1569249885144","167","-0.60839844","-0.005859375","0.24511719","37.59375","6.6875","2.0"
"1569249885233","168","-0.4345703","0.025390625","0.2763672","-33.59375","-8.0625","5.78125"
"1569249885354","169","-0.64160156","0.043945312","0.23535156","28.25","-26.5625","-2.03125"
"1569249885443","170","-1.3769531","-0.064453125","0.43554688","-28.65625","69.0625","-60.75"
"1569249885534","171","-1.3330078","0.13964844","0.51171875","-1.53125","49.4375","-38.96875"
"1569249885654","172","-0.6142578","0.056640625","0.38867188","32.34375","4.125","13.71875"
"1569249885745","173","-0.4453125","0.12109375","0.3095703","-8.0","-14.84375","38.25"
"1569249885835","174","-0.8671875","-0.020507812","0.34570312","-18.375","-10.5625","36.78125"
"1569249885954","175","-1.6777344","-0.07324219","0.3046875","22.3125","-33.03125","39.09375"
"1569249886074","176","-0.9638672","0.044921875","0.23046875","31.46875","-21.1875","24.75"
"1569249886134","177","-0.546875","-0.037109375","0.25878906","19.53125","33.84375","-52.09375"
"1569249886254","178","-0.62597656","0.11816406","0.28515625","27.28125","30.5625","-64.40625"
"1569249886343","179","-0.90527344","0.07910156","0.123046875","31.59375","-33.34375","-24.0"
"1569249886438","180","-1.4882812","-9.765625E-4","0.3720703","-6.25","19.75","-24.375"
"1569249886554","181","-1.2773438","0.12207031","0.5048828","22.4375","46.5","-22.34375"
"1569249886644","182","-0.6953125","-0.044921875","0.2998047","34.21875","4.0","19.9375"
"1569249886734","183","-0.4296875","0.20996094","0.28320312","-7.34375","5.0","25.5625"
"1569249886854","184","-0.75878906","0.07910156","0.3486328","-25.09375","7.5625","43.75"
"1569249886944","185","-1.7148438","0.19921875","0.39648438","-24.78125","-0.25","35.8125"
"1569249887033","186","-1.3417969","0.2265625","0.30078125","53.4375","-27.125","53.4375"
"1569249887154","187","-0.7089844","0.033203125","0.36621094","73.96875","-19.4375","18.0"
"1569249887244","188","-0.57128906","0.20507812","0.33691406","-60.75","-8.125","-11.375"
"1569249887334","189","-0.7373047","0.040039062","0.24023438","86.09375","-63.375","-21.875"
"1569249887483","190","-1.9853516","-0.08691406","0.40722656","62.125","-45.90625","-49.21875"
"1569249887544","191","-1.5390625","0.32910156","0.49023438","183.59375","6.875","-79.1875"
"1569249887635","192","-0.7421875","0.047851562","0.3251953","69.125","-13.9375","-49.5625"
"1569249887753","193","-0.4501953","0.18554688","0.22070312","48.09375","-27.53125","-40.59375"
"1569249887843","194","-0.75097656","0.111328125","0.2607422","59.6875","5.78125","-51.21875"
"1569249887933","195","-1.0058594","0.23339844","0.3642578","90.375","31.90625","-44.8125"
"1569249888053","196","-0.9941406","0.28320312","0.38378906","69.25","39.59375","-42.0625"
"1569249888144","197","-1.0703125","0.21386719","0.28808594","-36.8125","-0.6875","16.21875"
"1569249888235","198","-0.9892578","0.08496094","0.18066406","16.21875","-27.125","67.5"
"1569249888353","199","-0.7558594","0.009765625","0.20800781","-26.0625","-29.375","61.25"
"1569249888444","200","-0.7314453","0.020507812","0.2421875","24.65625","-18.3125","38.5"
"1569249888533","201","-0.6376953","-0.05078125","0.25195312","42.53125","-48.0","-16.1875"
"1569249888655","202","-1.3115234","0.0625","0.3076172","6.9375","17.375","-107.9375"
"1569249888744","203","-1.28125","0.25","0.453125","40.8125","70.96875","-80.15625"
"1569249888835","204","-0.4970703","0.13183594","0.41601562","15.1875","2.5","-26.125"
"1569249888954","205","-0.5390625","0.33496094","0.25585938","34.90625","7.5","-12.84375"
"1569249889044","206","-0.765625","0.0859375","0.30664062","-18.15625","0.03125","10.375"
"1569249889135","207","-1.7558594","0.017578125","0.22167969","-12.90625","-28.09375","44.0"
"1569249889254","208","-1.0527344","0.14648438","0.21582031","-5.25","-27.0625","92.28125"
"1569249889344","209","-0.4658203","-0.028320312","0.18261719","-6.125","0.28125","14.875"
"1569249889435","210","-0.46679688","0.038085938","0.23925781","-11.78125","-3.5625","-27.34375"
"1569249889555","211","-0.8388672","0.3095703","0.14355469","37.71875","-41.59375","5.21875"
"1569249889646","212","-1.7822266","0.30664062","0.4873047","15.3125","1.21875","-16.375"
"1569249889765","213","-0.9824219","0.296875","0.48046875","-60.625","-0.8125","29.53125"
"1569249889854","214","-0.5078125","0.068359375","0.38671875","34.03125","-4.09375","30.125"
"1569249889945","215","-0.44628906","-9.765625E-4","0.3125","15.65625","-8.25","-6.4375"
"1569249890034","216","-1.0117188","0.049804688","0.36523438","7.25","20.90625","-35.96875"
"1569249890154","217","-1.9335938","0.087890625","0.4716797","38.375","0.03125","1.4375"
"1569249890245","218","-1.4404297","0.06347656","0.21582031","95.25","-30.53125","-10.34375"
"1569249890334","219","-0.9921875","0.119140625","0.044921875","82.875","-48.0","-7.78125"
"1569249890455","220","-0.7753906","0.10449219","0.12988281","95.5625","-18.03125","-33.78125"
"1569249890544","221","-0.66503906","0.17382812","0.140625","92.15625","-18.625","-61.59375"
"1569249890635","222","-0.5371094","0.3359375","0.24316406","86.03125","-11.71875","-73.8125"
"1569249890755","223","-0.90625","0.28710938","0.26464844","77.0625","21.78125","-91.1875"
"1569249890845","224","-1.015625","0.119140625","0.4111328","37.03125","8.90625","-36.9375"
"1569249890935","225","-1.3740234","0.13476562","0.44726562","43.5","2.5","-27.25"
"1569249891055","226","-0.9345703","0.017578125","0.30664062","16.03125","-5.625","22.09375"
"1569249891145","227","-0.8105469","0.018554688","0.20605469","48.09375","23.125","13.03125"
"1569249891235","228","-0.60839844","-0.10253906","0.2421875","-35.21875","11.09375","3.03125"
"1569249891354","229","-0.67285156","0.068359375","0.2763672","-35.0625","-5.5","12.5"
"1569249891443","230","-1.7236328","9.765625E-4","0.41015625","-45.90625","-31.09375","24.71875"
"1569249891564","231","-1.1914062","-0.026367188","0.15234375","68.34375","-22.28125","34.84375"
"1569249891654","232","-0.6201172","-0.11230469","0.21777344","-54.28125","19.6875","-9.53125"
"1569249891744","233","-0.74609375","0.17382812","0.23925781","-15.6875","1.9375","-15.21875"
"1569249891833","234","-0.8183594","0.04296875","0.19628906","44.96875","-33.09375","12.625"
"1569249891953","235","-1.3955078","-0.036132812","0.31347656","-40.84375","18.1875","-47.3125"
"1569249892043","236","-1.1992188","0.10644531","0.4482422","9.6875","80.84375","-38.53125"
"1569249892133","237","-0.69140625","0.061523438","0.42285156","14.15625","-6.65625","-9.34375"
"1569249892254","238","-0.67089844","0.12402344","0.2578125","-17.09375","-17.96875","30.1875"
"1569249892345","239","-0.73535156","0.05859375","0.3330078","-17.65625","-16.25","41.375"
"1569249892433","240","-1.5947266","-0.028320312","0.24121094","-18.875","-5.75","17.375"
"1569249892553","241","-1.2011719","0.13085938","0.15527344","20.6875","-27.0","29.59375"
"1569249892643","242","-0.5488281","-0.015625","0.22558594","16.9375","6.09375","-0.8125"
"1569249892733","243","-0.61035156","0.13574219","0.25097656","-53.71875","-0.6875","-14.96875"
"1569249892853","244","-0.8359375","-0.11230469","0.24316406","19.46875","-26.0625","-36.8125"
"1569249892944","245","-1.3212891","0.09375","0.3125","4.25","23.71875","-61.53125"
"1569249893063","246","-1.1054688","0.13964844","0.39941406","19.15625","39.28125","-7.28125"
"1569249893153","247","-0.60058594","0.07519531","0.3486328","11.8125","1.5625","20.5625"
"1569249893243","248","-0.44921875","0.16894531","0.25976562","-18.3125","-13.1875","30.8125"
"1569249893334","249","-1.3251953","-9.765625E-4","0.35253906","-23.8125","-16.625","40.21875"
"1569249893454","250","-1.3935547","0.051757812","0.2578125","67.78125","-31.5625","41.375"
"1569249893543","251","-0.8876953","-0.041992188","0.22753906","-24.96875","-7.15625","8.46875"
"1569249893634","252","-0.55859375","0.11328125","0.2578125","7.375","9.9375","-25.46875"
"1569249893753","253","-0.7705078","0.08984375","0.2421875","15.65625","-17.84375","-14.125"
"1569249893844","254","-1.1015625","0.05859375","0.25","31.1875","-29.3125","-8.5625"
"1569249893933","255","-1.3798828","-0.033203125","0.44335938","26.59375","51.25","-73.3125"
"1569249894054","256","-1.0507812","0.16992188","0.4482422","30.25","39.15625","-44.625"
"1569249894143","257","-0.4970703","0.19238281","0.3798828","21.90625","5.90625","4.1875"
"1569249894234","258","-0.8222656","0.07910156","0.34375","-0.875","-14.34375","37.40625"
"1569249894353","259","-1.2392578","0.05078125","0.43554688","32.28125","-50.625","68.09375"
"1569249894443","260","-1.3876953","-0.08496094","0.2705078","77.0625","-63.1875","47.40625"
"1569249894563","261","-0.82128906","0.25585938","0.22558594","14.3125","-23.03125","39.59375"
"1569249894653","262","-0.5800781","0.25683594","0.39257812","40.6875","11.53125","-6.3125"
"1569249894744","263","-0.51953125","0.4169922","0.30859375","54.96875","-17.65625","-4.90625"
"1569249894864","264","-0.5234375","0.21289062","0.35253906","60.96875","13.59375","-3.3125"
"1569249894953","265","-1.6845703","0.55371094","0.49609375","178.375","-26.4375","-63.3125"
"1569249895043","266","-1.125","0.09765625","0.4296875","0.40625","-27.3125","-10.625"
"1569249895163","267","-0.609375","0.21289062","0.26660156","100.875","-31.15625","6.03125"
"1569249895253","268","-0.6464844","0.06738281","0.22753906","31.0625","-30.28125","-18.5625"
"1569249895343","269","-0.85253906","0.34765625","0.2919922","84.75","-7.03125","-67.53125"
"1569249895464","270","-1.2958984","0.2919922","0.30859375","79.75","16.09375","-68.625"
"1569249895555","271","-0.9140625","0.34570312","0.23242188","6.03125","18.125","-52.03125"
"1569249895644","272","-1.1767578","0.22753906","0.036132812","3.03125","-14.84375","15.0625"
"1569249895765","273","-0.765625","0.20019531","0.13183594","42.59375","-14.53125","38.125"
"1569249895854","274","-0.51953125","0.043945312","0.1953125","-5.6875","-24.0625","23.25"
"1569249895945","275","-0.6435547","0.045898438","0.16796875","49.59375","-47.5","12.625"
"1569249896064","276","-1.7119141","0.12792969","0.20703125","39.78125","-33.78125","-37.3125"
"1569249896154","277","-1.375","0.3232422","0.421875","79.625","56.1875","-111.90625"
"1569249896244","278","-0.8496094","0.23535156","0.36328125","-20.53125","28.90625","-62.34375"
"1569249896454","279","-0.5859375","0.41601562","0.21972656","6.625","-12.40625","-17.84375"
"1569249896485","280","-0.9765625","0.20605469","0.19042969","-39.25","21.71875","11.71875"
"1569249896544","281","-1.8144531","0.17773438","0.22460938","-13.9375","-13.03125","97.8125"
"1569249896664","282","-1.5146484","0.14746094","0.10449219","-6.375","-25.59375","65.84375"
"1569249896754","283","-0.7998047","0.061523438","0.111328125","-104.625","1.09375","27.28125"
"1569249896873","284","-0.6464844","0.07519531","0.25195312","-33.84375","38.5","-22.90625"
"1569249896964","285","-0.78222656","0.171875","0.1953125","16.15625","-16.96875","-25.03125"
"1569249897084","286","-1.1601562","0.32128906","0.41210938","56.75","-32.59375","10.71875"
"1569249897173","287","-1.8378906","0.38476562","0.39648438","36.90625","-14.78125","12.375"
"1569249897263","288","-1.0087891","0.41992188","0.42773438","70.65625","-34.8125","59.75"
"1569249897353","289","-0.45898438","0.013671875","0.42871094","16.46875","-43.90625","32.15625"
"1569249897443","290","-0.66796875","-0.16210938","0.50097656","-48.53125","-46.53125","-82.15625"
"1569249897564","291","-0.94140625","0.0703125","0.43359375","28.5","14.3125","-43.40625"
"1569249897653","292","-1.4648438","0.03515625","0.24609375","-10.4375","24.40625","-38.40625"
"1569249897743","293","-1.0498047","0.18359375","0.234375","126.28125","-2.03125","-27.3125"
"1569249897864","294","-0.86621094","-0.044921875","0.20117188","50.03125","-6.59375","-19.96875"
"1569249897954","295","-0.7236328","0.19238281","0.23925781","68.71875","-12.03125","-31.8125"
"1569249898045","296","-0.453125","0.14941406","0.43359375","58.21875","0.34375","-57.5"
"1569249898165","297","-0.96972656","0.22167969","0.47753906","69.5","2.1875","-62.15625"
"1569249898253","298","-0.81152344","0.10058594","0.50683594","92.75","-22.65625","-33.21875"
"1569249898343","299","-1.1591797","0.02734375","0.41601562","41.84375","-19.78125","-7.78125"
"1569249898464","300","-1.0712891","-0.04296875","0.35351562","24.03125","-12.03125","3.46875"
"1569249898554","301","-0.70410156","0.059570312","0.38476562","16.28125","31.28125","-22.96875"
"1569249898643","302","-0.63671875","0.11035156","0.45703125","-53.90625","41.375","-31.5"
"1569249898764","303","-0.7060547","0.21972656","0.3203125","-13.3125","-16.0625","20.8125"
"1569249898884","304","-1.5214844","-0.032226562","0.40527344","-0.25","-27.90625","64.375"
"1569249898944","305","-1.2900391","0.017578125","0.3125","14.09375","-20.40625","43.9375"
"1569249899064","306","-0.7734375","0.01171875","0.26367188","19.28125","-7.15625","7.5"
"1569249899154","307","-0.52441406","-0.06640625","0.34179688","-17.15625","55.78125","-68.125"
"1569249899243","308","-0.78222656","0.2421875","0.28515625","21.34375","-3.5","-63.5"
"1569249899393","309","-1.3525391","0.083984375","0.34472656","1.375","-13.8125","-12.46875"
"1569249899453","310","-1.1982422","0.14355469","0.3779297","31.71875","10.0625","-5.03125"
"1569249899544","311","-0.8730469","-0.0234375","0.37304688","-34.25","11.34375","18.53125"
"1569249899664","312","-0.65527344","0.17285156","0.31152344","-31.625","-5.5","43.8125"
"1569249899755","313","-0.6640625","0.0703125","0.27246094","-0.625","-20.09375","48.09375"
"1569249899844","314","-1.4931641","-0.038085938","0.3232422","-9.59375","-7.53125","25.3125"
"1569249899964","315","-1.3662109","0.099609375","0.26660156","54.96875","-5.5625","10.46875"
"1569249900055","316","-0.96875","-0.01953125","0.24804688","1.625","-4.53125","1.875"
"1569249900143","317","-0.62890625","0.15917969","0.2685547","47.84375","11.9375","-51.46875"
"1569249900263","318","-0.69433594","0.16699219","0.24316406","-3.96875","12.5625","-57.625"
"1569249900353","319","-0.8417969","0.17382812","0.18066406","56.875","-22.71875","-23.28125"
"1569249900443","320","-1.5488281","-0.026367188","0.38476562","-17.15625","17.4375","-12.96875"
"1569249900563","321","-1.0742188","0.13378906","0.44921875","-0.0625","0.0","30.5"
"1569249900653","322","-0.5957031","0.0126953125","0.2529297","23.125","-5.4375","48.03125"
"1569249900743","323","-0.5107422","0.037109375","0.16699219","-32.4375","-27.59375","60.78125"
"1569249900864","324","-1.2861328","-0.08203125","0.3232422","-47.8125","-22.125","56.5"
"1569249900953","325","-1.5527344","0.056640625","0.123046875","135.59375","10.46875","-41.03125"
"1569249901043","326","-1.0908203","0.20703125","0.23828125","-81.3125","27.5","-42.375"
"1569249901164","327","-0.5878906","0.08300781","0.30859375","8.59375","25.5","-54.59375"
"1569249901253","328","-0.8330078","0.1640625","0.25878906","-10.09375","-33.65625","-16.0"
"1569249901343","329","-0.8886719","0.08203125","0.21484375","44.34375","-68.0625","34.96875"
"1569249901464","330","-1.2285156","-0.029296875","0.35742188","16.90625","1.6875","-2.8125"
"1569249901554","331","-0.96972656","-0.036132812","0.37890625","-38.21875","40.03125","-20.65625"
"1569249901644","332","-0.56640625","0.17871094","0.31152344","27.75","11.03125","-1.125"
"1569249901765","333","-0.85546875","0.08300781","0.359375","-10.6875","0.15625","40.75"
"1569249901856","334","-1.2832031","0.021484375","0.38476562","9.75","-39.3125","66.28125"
"1569249901944","335","-1.4267578","-0.026367188","0.33496094","30.4375","-30.59375","5.34375"
"1569249902064","336","-0.86328125","0.24316406","0.27734375","50.875","-21.5","13.96875"
"1569249902154","337","-0.6064453","0.14160156","0.26660156","73.15625","-3.875","-29.25"
"1569249902246","338","-0.5751953","0.123046875","0.12792969","86.71875","-22.15625","-45.1875"
"1569249902364","339","-1.8720703","0.036132812","0.3232422","95.625","-10.4375","-35.71875"
"1569249902454","340","-1.5791016","0.22558594","0.7060547","132.6875","1.3125","-24.625"
"1569249902544","341","-0.7207031","-0.10546875","0.4404297","46.96875","-47.375","-6.96875"
"1569249902664","342","-0.42382812","0.1953125","0.23632812","87.03125","-23.75","10.71875"
"1569249902754","343","-0.65234375","0.02734375","0.35839844","51.375","21.53125","-22.40625"
"1569249902843","344","-1.1738281","0.14160156","0.39746094","76.34375","33.0","-51.90625"
"1569249902964","345","-0.86328125","0.55566406","0.31640625","115.53125","-10.875","-76.125"
"1569249903054","346","-1.0703125","0.21972656","0.16699219","-67.75","8.78125","33.90625"
"1569249903147","347","-0.95996094","0.080078125","0.020507812","20.625","-16.5","42.28125"
"1569249903265","348","-0.63964844","0.16503906","0.09765625","-44.3125","-10.625","45.21875"
"1569249903353","349","-0.7783203","0.064453125","0.15625","-17.78125","-21.1875","35.03125"
"1569249903449","350","-0.61035156","-0.040039062","0.3642578","12.3125","-21.5625","-21.25"
"1569249903563","351","-1.4541016","0.111328125","0.27246094","89.15625","25.6875","-118.0"
"1569249903653","352","-1.2109375","0.27539062","0.29492188","40.6875","16.21875","-27.25"
"1569249903743","353","-0.2685547","0.06542969","0.24316406","48.5625","0.0","11.71875"
"1569249903863","354","-0.4814453","0.25390625","0.1796875","-24.90625","2.0","1.4375"
"1569249903954","355","-2.0","0.10546875","0.14550781","-25.15625","10.65625","0.0"
"1569249904043","356","-1.3056641","0.08886719","0.11816406","60.78125","-17.28125","73.71875"
"1569249904164","357","-0.7236328","9.765625E-4","0.16699219","-27.84375","13.21875","-0.5"
"1569249904253","358","-0.9501953","0.10546875","-0.0107421875","34.78125","-37.0","-3.375"
"1569249904343","359","-0.17480469","0.11230469","0.21972656","84.9375","-10.875","-8.1875"
"1569249904465","360","-1.2832031","0.16796875","0.36328125","73.71875","-7.40625","-93.9375"
"1569249904555","361","-1.0908203","0.59472656","0.51660156","122.65625","70.0","-77.03125"
"1569249904643","362","-0.4501953","0.06640625","0.24609375","-52.875","-4.21875","10.1875"
"1569249904764","363","-0.9873047","0.6279297","0.29296875","144.625","65.90625","-3.625"
"1569249904853","364","-0.8808594","0.34570312","0.24707031","31.40625","-10.625","51.25"
"1569249904943","365","-1.8271484","0.10546875","0.2734375","9.75","-18.6875","17.3125"
"1569249905066","366","-1.2685547","-0.046875","-0.06542969","-84.90625","-56.78125","75.375"
"1569249905153","367","-0.7363281","-0.0625","0.14941406","-19.71875","-38.21875","34.15625"
"1569249905243","368","-0.55859375","0.10449219","0.19824219","80.125","-17.71875","-3.875"
"1569249905364","369","-0.5605469","0.09765625","0.21191406","45.28125","-49.5","-14.0"
"1569249905453","370","-0.7402344","0.17773438","0.22167969","38.625","-28.59375","-64.78125"
"1569249905573","371","-1.6972656","0.15136719","0.1953125","67.5625","-18.15625","-107.3125"
"1569249905663","372","-1.5410156","0.16308594","0.25097656","58.53125","46.96875","-43.15625"
"1569249905754","373","-0.7763672","0.115234375","0.25683594","20.3125","1.8125","-25.09375"
"1569249905843","374","-0.5703125","0.2607422","0.20605469","5.0625","18.78125","-44.28125"
"1569249905963","375","-0.6152344","0.115234375","0.27246094","-16.6875","4.5","4.3125"
"1569249906053","376","-1.0751953","0.08984375","0.25","-42.1875","1.28125","12.5"
"1569249906143","377","-1.8730469","0.20898438","-0.07324219","69.8125","2.4375","71.46875"
"1569249906263","378","-0.9003906","0.020507812","0.06347656","4.125","-53.0","67.6875"
"1569249906353","379","-0.43554688","0.10546875","0.18261719","-47.3125","7.0625","-1.40625"
"1569249906443","380","-0.65234375","0.037109375","0.15039062","-88.46875","-23.4375","-16.5"
"1569249906563","381","-1.5341797","0.15136719","0.3935547","-53.53125","-85.84375","-22.96875"
"1569249906654","382","-1.5058594","0.30566406","0.5263672","59.3125","41.1875","-25.59375"
"1569249906744","383","-0.76953125","0.14648438","0.5029297","-28.28125","23.375","14.625"
"1569249906863","384","-0.3544922","0.13476562","0.31347656","13.0","-14.40625","19.09375"
"1569249906953","385","-0.828125","0.032226562","0.30664062","-87.1875","20.625","22.875"
"1569249907073","386","-1.6044922","0.01953125","0.31445312","30.6875","31.28125","-13.75"
"1569249907164","387","-1.1689453","0.14257812","0.25097656","-56.21875","15.625","3.53125"
"1569249907254","388","-0.65527344","0.06347656","0.23339844","45.03125","0.90625","-15.9375"
"1569249907374","389","-0.54003906","0.06933594","0.21972656","8.21875","10.46875","-20.65625"
"1569249907463","390","-0.71875","0.1171875","0.15722656","-3.75","-34.0625","-18.375"
"1569249907554","391","-1.5029297","0.01171875","0.30371094","4.0","28.90625","-43.65625"
"1569249907673","392","-1.1259766","0.099609375","0.4296875","9.9375","28.1875","-11.1875"
"1569249907763","393","-0.6845703","0.0087890625","0.3232422","20.84375","10.25","-5.3125"
"1569249907853","394","-0.6484375","0.15136719","0.22363281","-29.8125","-10.75","31.46875"
"1569249908004","395","-0.68652344","0.09082031","0.29101562","-10.875","35.15625","21.28125"
"1569249908093","396","-1.6630859","0.0390625","0.12207031","-46.46875","0.0","-15.28125"
"1569249908154","397","-0.94140625","0.24023438","0.1328125","4.25","3.65625","33.375"
"1569249908273","398","-0.64160156","-0.00390625","0.16210938","-25.03125","-0.0625","10.375"
"1569249908363","399","-0.5908203","0.10546875","0.19433594","28.65625","-9.125","2.5625"
"1569249908453","400","-0.81640625","0.047851562","0.10253906","32.34375","-52.1875","3.59375"
"1569249908574","401","-1.1074219","0.0107421875","0.28515625","27.21875","12.25","-53.59375"
"1569249908663","402","-1.1699219","0.41210938","0.4033203","80.25","72.6875","-69.90625"
"1569249908753","403","-0.7001953","0.14648438","0.2578125","4.3125","-7.875","12.375"
"1569249908873","404","-0.7246094","0.28515625","0.2109375","-23.34375","9.1875","36.25"
"1569249908963","405","-0.91503906","0.35058594","0.22070312","-19.1875","-5.9375","55.34375"
"1569249909056","406","-1.6884766","0.25683594","0.21484375","-23.5","-19.1875","30.875"
"1569249909173","407","-1.1923828","0.27246094","0.21679688","-26.1875","-9.28125","64.0625"
"1569249909263","408","-0.7675781","0.2919922","0.30859375","-6.5","2.125","20.375"
"1569249909353","409","-0.6542969","0.40234375","0.45214844","-8.5","-18.3125","42.09375"
"1569249909474","410","-0.5878906","-0.26757812","0.19824219","27.5","-95.0","36.71875"
"1569249909564","411","-2.0","0.059570312","-0.07714844","12.1875","-35.0","-103.40625"
"1569249909655","412","-1.7744141","-0.115234375","0.095703125","106.375","-12.34375","-116.21875"
"1569249909775","413","-0.87402344","0.1328125","0.11816406","165.8125","10.1875","-124.21875"
"1569249909863","414","-0.69628906","0.3671875","0.0029296875","140.4375","35.9375","-123.96875"
"1569249909954","415","-0.93847656","0.24609375","-0.017578125","112.15625","57.28125","-37.25"
"1569249910074","416","-0.8642578","0.39160156","0.2109375","105.5","32.21875","-42.0625"
"1569249910164","417","-0.9580078","0.40625","0.31933594","78.28125","15.5","-37.84375"
"1569249910284","418","-1.8222656","0.32910156","0.23046875","7.75","-25.59375","27.21875"
"1569249910373","419","-1.3583984","0.14355469","0.029296875","-39.75","-81.75","173.15625"
"1569249910464","420","-0.83691406","0.016601562","0.0107421875","-108.84375","-39.9375","139.09375"
"1569249910555","421","-0.85546875","0.034179688","0.037109375","-17.59375","-15.625","75.1875"
"1569249910675","422","-0.76660156","0.034179688","0.18164062","-39.25","-14.0625","48.4375"
"1569249910765","423","-0.5517578","-0.18066406","0.21972656","-10.75","-42.4375","-27.34375"
"1569249910854","424","-1.3984375","0.25097656","0.33691406","122.46875","25.9375","-175.0"
"1569249910975","425","-1.3730469","0.7080078","0.48046875","96.3125","93.125","-135.6875"
"1569249911065","426","-0.7285156","0.3876953","0.34570312","86.90625","21.03125","-43.96875"
"1569249911154","427","-0.4892578","0.46484375","0.17871094","-6.4375","2.84375","11.03125"
"1569249911277","428","-0.8261719","0.328125","0.14746094","-3.75","30.9375","29.03125"
"1569249911363","429","-1.9960938","0.26464844","0.09667969","-67.8125","-12.28125","106.6875"
"1569249911454","430","-1.3740234","0.22949219","0.12890625","86.03125","-17.03125","71.6875"
"1569249911575","431","-0.59765625","0.3125","0.40722656","-70.375","8.65625","4.25"
"1569249911664","432","-0.42871094","0.38476562","1.1992188","102.03125","-97.1875","33.6875"
"1569249911754","433","-0.16699219","0.68652344","-0.32714844","-139.84375","354.34375","-231.09375"
"1569249911873","434","-0.7314453","-0.22265625","0.58496094","39.0625","-16.3125","-11.25"
"1569249911964","435","-1.2861328","0.03515625","0.29492188","65.0","-111.78125","21.53125"
"1569249912054","436","-1.7744141","0.25976562","0.18261719","172.21875","-20.03125","-140.15625"
"1569249912176","437","-0.8564453","0.36035156","0.31445312","34.40625","12.25","-71.0625"
"1569249912264","438","-0.68359375","0.30566406","0.27148438","71.9375","-30.34375","-36.03125"
"1569249912353","439","-0.8642578","0.24316406","0.3623047","-22.40625","-34.5","5.59375"
"1569249912473","440","-0.8144531","0.15136719","0.52246094","-34.6875","-33.59375","21.09375"
"1569249912564","441","-0.6591797","0.09667969","0.61328125","-17.65625","-12.96875","14.875"
"1569249912653","442","-1.015625","0.11621094","0.6464844","20.0","-20.15625","12.375"
"1569249912773","443","-0.9013672","0.17675781","0.5107422","57.78125","8.15625","-7.28125"
"1569249912863","444","-0.8808594","0.14941406","0.3642578","-61.78125","-7.09375","39.21875"
"1569249912953","445","-1.0019531","0.16210938","0.39257812","14.875","-16.375","19.21875"
"1569249913073","446","-0.7675781","0.16113281","0.3671875","-16.0","5.96875","12.75"
"1569249913163","447","-0.75097656","0.119140625","0.43652344","-48.96875","13.65625","-2.9375"
"1569249913254","448","-0.5732422","-0.017578125","0.4951172","-7.78125","-4.53125","-15.75"
"1569249913374","449","-0.7167969","0.08300781","0.47460938","10.375","6.03125","-46.46875"
"1569249913464","450","-0.9111328","0.18359375","0.60058594","28.5","-27.34375","-46.53125"
"1569249913554","451","-1.5351562","0.25585938","0.8144531","0.46875","-1.71875","-20.875"
"1569249913674","452","-0.5390625","0.06640625","0.66308594","-36.40625","-41.28125","57.34375"
"1569249913765","453","-0.45898438","0.009765625","0.45117188","-20.15625","-35.59375","40.8125"
"1569249913855","454","-0.51660156","0.09082031","0.453125","-43.28125","-35.84375","63.875"
"1569249913974","455","-0.6035156","-0.055664062","0.6035156","-26.9375","-15.46875","54.0625"
"1569249914063","456","-1.7304688","0.11621094","0.8359375","-5.625","148.90625","-76.0625"
"1569249914156","457","-0.96484375","0.18945312","0.4345703","86.46875","78.28125","-48.34375"
"1569249914273","458","-0.6328125","0.020507812","0.40039062","-15.46875","58.21875","-21.1875"
"1569249914364","459","-0.55566406","0.17578125","0.37890625","8.59375","25.875","-52.25"
"1569249914454","460","-0.921875","0.08300781","0.23632812","26.03125","-60.375","-11.5625"
"1569249914574","461","-1.3759766","-0.09667969","0.36816406","8.09375","-18.25","-2.9375"
"1569249914665","462","-1.1494141","0.083984375","0.5673828","-29.9375","56.1875","3.59375"
"1569249914753","463","-0.7216797","-0.072265625","0.44628906","0.78125","-26.3125","19.6875"
"1569249914873","464","-0.421875","0.078125","0.3671875","-39.375","-63.0625","75.3125"
"1569249914965","465","-0.7216797","-0.055664062","0.49316406","-46.28125","-60.625","75.84375"
"1569249915053","466","-1.4931641","0.06640625","0.7705078","-8.25","-55.625","31.71875"
"1569249915174","467","-0.80859375","0.21679688","0.54589844","23.46875","5.40625","-4.40625"
"1569249915264","468","-0.5761719","0.0546875","0.47070312","-13.1875","34.59375","-6.84375"
"1569249915354","469","-0.4248047","0.05859375","0.44628906","32.09375","68.46875","-40.40625"
"1569249915474","470","-0.9501953","-0.09375","0.37304688","-9.96875","-6.1875","-20.09375"
"1569249915565","471","-1.1337891","-0.053710938","0.7294922","17.375","-70.09375","-8.5625"
"1569249915654","472","-1.0458984","0.12792969","0.7421875","-4.15625","-0.8125","21.96875"
"1569249915773","473","-0.3955078","-0.047851562","0.49414062","33.96875","-4.46875","9.8125"
"1569249915863","474","-0.26660156","0.17089844","0.2998047","-20.09375","4.75","17.0625"
"1569249915953","475","-0.9511719","-0.022460938","0.5839844","-30.09375","-60.8125","59.25"
"1569249916074","476","-1.3945312","0.17773438","0.78125","63.46875","-15.6875","-11.5"
"1569249916164","477","-0.8535156","0.12402344","0.58496094","20.4375","28.78125","-9.0"
"1569249916254","478","-0.5439453","0.01171875","0.4609375","49.3125","76.9375","-37.3125"
"1569249916373","479","-0.58691406","0.1640625","0.48242188","-2.53125","-4.53125","-18.625"
"1569249916464","480","-0.82128906","0.061523438","0.7050781","-61.0","-56.09375","-5.5"
"1569249916554","481","-1.2666016","-0.005859375","0.87109375","27.75","1.5","-21.1875"
"1569249916674","482","-0.73828125","0.048828125","0.6855469","8.90625","29.40625","9.5"
"1569249916764","483","-0.4267578","0.038085938","0.5234375","61.25","-6.71875","-5.6875"
"1569249916854","484","-0.6582031","0.01171875","0.5966797","2.125","-6.96875","32.9375"
"1569249916973","485","-0.8876953","-0.052734375","0.6894531","31.96875","-53.3125","17.625"
"1569249917064","486","-1.2148438","0.12890625","0.83496094","62.71875","-37.25","-35.59375"
"1569249917153","487","-0.69628906","0.26367188","0.72753906","24.8125","-29.8125","-1.125"
"1569249917274","488","-0.40722656","0.29003906","0.6074219","28.90625","-14.3125","-30.03125"
"1569249917363","489","-0.32714844","0.09472656","0.5966797","8.53125","-18.625","-7.53125"
"1569249917454","490","-0.51660156","0.022460938","0.67871094","62.125","-40.90625","-60.375"
"1569249917574","491","-1.46875","0.2529297","1.0185547","77.375","-37.3125","-90.40625"
"1569249917664","492","-0.91503906","0.17578125","0.74609375","22.03125","-6.53125","-57.03125"
"1569249917754","493","-0.49609375","0.11621094","0.4404297","82.625","-34.8125","-90.09375"
"1569249917873","494","-0.453125","0.203125","0.3984375","45.03125","9.03125","-70.15625"
"1569249917964","495","-0.7685547","0.20507812","0.67089844","14.875","48.6875","-59.15625"
"1569249918085","496","-1.2949219","0.23925781","0.8095703","52.90625","41.65625","-44.21875"
"1569249918174","497","-0.7705078","0.31347656","0.6689453","37.65625","-2.8125","-18.9375"
"1569249918264","498","-0.99121094","0.20117188","0.5488281","4.75","-23.875","16.28125"
"1569249918354","499","-0.66015625","0.1640625","0.43945312","30.6875","-50.1875","42.65625"
"1569249918474","500","-0.4375","0.07421875","0.375","11.75","-44.375","38.8125"
"1569249918564","501","-0.6171875","-0.072265625","0.421875","9.09375","-43.90625","-19.1875"
"1569249918654","502","-1.3730469","0.17480469","0.7714844","-4.34375","5.84375","-64.40625"
"1569249918774","503","-1.421875","0.44921875","0.9921875","17.875","88.78125","-87.46875"
"1569249918864","504","-0.5517578","0.16796875","0.671875","-6.4375","15.625","-5.09375"
"1569249918954","505","-0.19921875","0.20214844","0.3984375","0.15625","-12.34375","-1.25"
"1569249919074","506","-0.62402344","0.16113281","0.5527344","-43.71875","-16.3125","24.9375"
"1569249919164","507","-1.3056641","0.28710938","0.8066406","4.5625","0.65625","28.78125"
"1569249919254","508","-1.4755859","0.23632812","0.69628906","21.46875","-22.15625","-0.5"
"1569249919404","509","-0.64160156","0.11425781","0.46191406","6.625","-22.78125","34.65625"
"1569249919463","510","-0.4921875","0.10253906","0.42382812","7.90625","19.9375","-5.15625"
"1569249919584","511","-0.63671875","0.083984375","0.5214844","17.0","-1.53125","-54.03125"
"1569249919675","512","-0.94433594","0.23242188","0.7001953","4.625","-19.5","-9.34375"
"1569249919765","513","-1.1259766","0.19335938","0.92089844","15.71875","14.75","-40.0625"
"1569249919854","514","-0.85839844","0.12988281","0.8486328","1.5","2.1875","11.03125"
"1569249919977","515","-0.52734375","0.078125","0.5332031","43.625","-39.4375","27.5"
"1569249920064","516","-0.4501953","-9.765625E-4","0.4873047","49.59375","-25.09375","11.40625"
"1569249920184","517","-0.6376953","0.022460938","0.69140625","10.375","25.25","-17.53125"
"1569249920273","518","-0.62890625","0.15234375","0.5878906","69.5","-41.53125","-46.34375"
"1569249920363","519","-1.4697266","0.18847656","0.9941406","24.21875","-9.78125","-8.375"
"1569249920486","520","-1.1123047","0.13378906","0.6484375","-27.125","13.53125","10.1875"
"1569249920576","521","-0.7001953","0.10546875","0.53515625","55.03125","15.84375","-85.21875"
"1569249920664","522","-0.5449219","0.27929688","0.359375","-0.6875","-6.84375","-44.75"
"1569249920783","523","-0.8339844","0.16113281","0.29589844","41.84375","8.21875","-59.28125"
"1569249920873","524","-0.6357422","0.125","0.44140625","96.1875","-40.0","-84.1875"
"1569249920964","525","-1.2197266","0.2734375","0.71972656","117.65625","1.875","-125.3125"
"1569249921083","526","-1.234375","0.3388672","0.6640625","194.9375","46.5","-127.09375"
"1569249921173","527","-0.66308594","0.056640625","0.6425781","51.0625","13.59375","-47.75"
"1569249921263","528","-0.4716797","0.24902344","0.43359375","30.25","13.96875","-19.78125"
"1569249921383","529","-0.37304688","0.15917969","0.3486328","-28.40625","4.8125","4.75"
"1569249921473","530","-0.8017578","0.0859375","0.50878906","-45.0625","-6.0","42.28125"
"1569249921564","531","-1.765625","-0.032226562","0.73339844","0.65625","-57.6875","54.90625"
"1569249921683","532","-0.73339844","0.072265625","0.4873047","-6.0","-33.53125","59.3125"
"1569249921774","533","-0.5019531","0.05859375","0.44140625","-16.9375","50.59375","-4.40625"
"1569249921868","534","-0.52246094","0.04296875","0.4375","-46.53125","50.59375","-14.40625"
"1569249921984","535","-0.9042969","-0.05078125","0.48828125","-5.8125","-102.0","44.28125"
"1569249922074","536","-0.76660156","0.0859375","0.88671875","-11.71875","8.15625","-7.40625"
"1569249922164","537","-0.67578125","0.21191406","0.65234375","49.71875","62.375","-64.90625"
"1569249922283","538","-0.32910156","0.049804688","0.4560547","-5.09375","35.03125","-13.875"
"1569249922374","539","-0.41503906","0.17675781","0.43164062","-26.6875","29.78125","13.71875"
"1569249922464","540","-1.6533203","-0.37109375","0.66015625","-61.0","50.9375","-89.625"
"1569249922584","541","-1.2333984","-0.024414062","0.51171875","18.96875","-5.6875","-0.3125"
"1569249922674","542","-0.83496094","0.0087890625","0.38085938","-1.46875","-28.21875","24.34375"
"1569249922764","543","-0.390625","-0.018554688","0.35839844","9.03125","5.90625","-8.25"
"1569249922883","544","-0.6015625","0.047851562","0.2529297","-28.28125","-41.21875","-9.40625"
"1569249922974","545","-1.6523438","-0.020507812","0.7265625","-13.875","-0.625","-11.84375"
"1569249923063","546","-1.3691406","0.12109375","0.70214844","19.53125","42.46875","-34.9375"
"1569249923184","547","-0.7060547","-0.049804688","0.61621094","49.96875","22.6875","-4.96875"
"1569249923274","548","-0.31835938","0.09082031","0.39453125","-8.0","-5.625","10.46875"
"1569249923364","549","-0.484375","0.11621094","0.38964844","-22.28125","-20.78125","21.65625"
"1569249923485","550","-1.9931641","0.08203125","0.6357422","-53.0625","-20.71875","24.59375"
"1569249923575","551","-1.1005859","0.017578125","0.46191406","44.125","-28.09375","39.0"
"1569249923664","552","-0.6015625","-0.091796875","0.4111328","3.15625","-20.28125","18.78125"
"1569249923784","553","-0.8496094","0.16210938","0.44921875","0.71875","25.6875","-33.59375"
"1569249923874","554","-0.9707031","0.115234375","0.41601562","13.84375","2.5625","-15.46875"
"1569249923967","555","-0.80566406","0.040039062","0.41992188","5.90625","11.40625","-1.34375"
"1569249924083","556","-0.9423828","0.103515625","0.43945312","9.25","13.28125","-20.03125"
"1569249924173","557","-0.6904297","0.049804688","0.4736328","23.125","-12.28125","-7.34375"
"1569249924264","558","-0.69140625","-0.0146484375","0.47753906","-38.90625","1.9375","-11.1875"
"1569249924384","559","-0.6044922","0.16796875","0.4453125","51.3125","8.59375","-54.6875"
"1569249924475","560","-1.5117188","0.041015625","0.66015625","-38.46875","-4.78125","12.9375"
"1569249924565","561","-1.3388672","0.045898438","0.6699219","14.75","5.65625","30.0"
