"# PDIoT walking data"
"# Start time: 20190923T181123"
"# Group: C"
"# Subject: s1513009"
"# Activity type: Descending stairs"
"# Sensor position: Lower Leg"
"# Side of body: Right"
"# Sensor mounting: Body"
"# Number of steps: 100"
"# Notes: "
""
"timestamp","seq","accel_x","accel_y","accel_z","gyro_x","gyro_y","gyro_z"
"1569258683012","0","-0.95214844","0.28320312","0.16796875","-18.15625","1.6875","6.25"
"1569258683132","1","-0.9472656","0.2841797","0.20605469","-14.6875","7.65625","-9.0"
"1569258683221","2","-0.9785156","0.40429688","0.29003906","-20.125","21.34375","-62.90625"
"1569258683311","3","-1.2773438","0.51171875","0.16699219","-67.375","44.03125","-76.46875"
"1569258683432","4","-0.3046875","0.65234375","0.14257812","-57.28125","-9.375","53.4375"
"1569258683522","5","-0.9814453","0.119140625","0.16992188","90.71875","-75.8125","152.65625"
"1569258683612","6","-1.0195312","-0.18261719","0.14746094","21.4375","-39.03125","80.78125"
"1569258683732","7","-0.6816406","-0.15234375","-0.09082031","28.21875","-11.3125","-66.875"
"1569258683824","8","-1.03125","-0.099609375","0.12402344","30.40625","-0.75","-145.0625"
"1569258683913","9","-2.0","1.1542969","-0.703125","78.5625","-22.96875","-94.46875"
"1569258684033","10","-1.40625","-0.3095703","0.26171875","-29.03125","0.03125","-0.40625"
"1569258684125","11","-0.9794922","0.12207031","0.09667969","-16.15625","14.875","-2.375"
"1569258684216","12","-0.96875","0.07324219","0.16015625","-55.21875","24.40625","-75.1875"
"1569258684336","13","-1.0761719","-0.12011719","0.038085938","-0.09375","18.53125","-114.90625"
"1569258684426","14","-2.0","0.66308594","0.0","-33.0","32.875","-141.34375"
"1569258684546","15","1.5986328","-1.2490234","0.18066406","-11.75","-7.65625","-18.0"
"1569258684637","16","-0.5371094","0.30566406","-0.001953125","-102.40625","-49.15625","319.90625"
"1569258684726","17","-2.0","-2.0","0.12890625","165.4375","-197.96875","239.9375"
"1569258684817","18","-1.2558594","-1.2978516","-0.3203125","-44.34375","6.03125","-49.59375"
"1569258684936","19","-1.4921875","2.0","0.4873047","192.78125","-37.5","-86.90625"
"1569258685026","20","-1.1201172","-1.3378906","0.32226562","-16.21875","10.90625","-76.46875"
"1569258685114","21","-0.90527344","-0.01171875","0.087890625","6.96875","19.5","-2.59375"
"1569258685235","22","-0.9326172","9.765625E-4","0.10058594","14.0","21.40625","-51.0625"
"1569258685326","23","-1.0117188","-0.13085938","0.06738281","-32.8125","40.9375","-94.65625"
"1569258685415","24","-2.0","0.6777344","0.0078125","-39.21875","77.25","-166.96875"
"1569258685536","25","0.7324219","-1.2421875","0.6669922","8.9375","-35.65625","21.3125"
"1569258685624","26","-0.46777344","0.3779297","-0.15527344","-34.71875","-122.8125","276.25"
"1569258685717","27","-2.0","-1.1972656","-0.25683594","231.28125","-166.9375","246.125"
"1569258685807","28","-1.1689453","-1.4101562","0.076171875","-132.4375","2.34375","-35.0625"
"1569258685927","29","-1.65625","1.34375","0.31347656","169.6875","-42.375","-138.09375"
"1569258686017","30","-2.0","1.9111328","-0.23632812","35.0625","-12.53125","-6.625"
"1569258686226","31","-1.0078125","0.0048828125","0.12792969","-38.125","21.03125","-1.625"
"1569258686229","32","-0.8251953","-0.06933594","0.13671875","-9.5","27.3125","-68.53125"
"1569258686317","33","-0.9921875","-0.29296875","0.020507812","-38.375","33.125","-112.53125"
"1569258686407","34","-2.0","-0.005859375","-0.22949219","-26.96875","49.71875","-113.875"
"1569258686526","35","-0.27148438","-0.4482422","0.19628906","16.875","76.9375","-52.15625"
"1569258686617","36","-0.36621094","0.49609375","-0.2705078","-104.03125","-79.5625","267.59375"
"1569258686706","37","-1.5117188","-0.34179688","-0.17578125","136.25","-167.4375","297.625"
"1569258686826","38","-1.1552734","-0.59277344","0.63183594","60.8125","-14.4375","90.84375"
"1569258686917","39","-2.0","-1.7480469","2.0","-111.96875","27.8125","-215.0"
"1569258687032","40","-2.0","1.9580078","1.3974609","43.46875","-54.03125","-83.0625"
"1569258687126","41","-1.3505859","0.0078125","0.20410156","-47.84375","16.09375","14.125"
"1569258687213","42","-0.9091797","-0.14453125","0.0087890625","-18.09375","22.5","-13.78125"
"1569258687301","43","-0.86328125","0.07714844","0.18164062","-18.78125","43.9375","-90.625"
"1569258687421","44","-1.1181641","-0.2734375","0.07519531","-17.5625","36.90625","-102.09375"
"1569258687511","45","-1.9951172","0.48535156","0.040039062","-86.21875","116.0625","-188.65625"
"1569258687601","46","0.8613281","0.6816406","0.3359375","80.28125","-36.03125","106.40625"
"1569258687751","47","-1.0869141","0.15820312","0.25195312","6.96875","-117.4375","293.90625"
"1569258687812","48","-2.0","-0.48632812","-0.31152344","238.78125","-191.3125","214.625"
"1569258687901","49","-0.9140625","-0.5595703","-0.34277344","-143.84375","73.09375","-36.0625"
"1569258688051","50","-1.6855469","0.97753906","-0.6777344","-9.9375","-23.875","-180.84375"
"1569258688112","51","-0.9814453","-0.057617188","0.18359375","-0.78125","17.75","-13.96875"
"1569258688202","52","-1.0048828","0.099609375","0.13574219","-0.53125","30.0625","12.53125"
"1569258688323","53","-0.8144531","-0.22558594","0.13476562","14.65625","22.0625","-12.375"
"1569258688412","54","-1.1826172","0.32421875","-0.10058594","20.21875","29.6875","-31.46875"
"1569258688501","55","-1.7548828","1.4140625","0.4423828","-44.28125","97.28125","-115.15625"
"1569258688621","56","-1.5976562","0.072265625","0.84765625","137.84375","59.5625","-81.71875"
"1569258688713","57","-0.52246094","0.07519531","0.2578125","86.375","-21.4375","149.90625"
"1569258688804","58","-0.9736328","-0.038085938","0.3095703","293.125","-112.4375","251.90625"
"1569258688924","59","-2.0","-0.8564453","0.56347656","20.78125","-49.65625","257.78125"
"1569258689014","60","-1.328125","-1.4394531","-0.28710938","-10.65625","-15.65625","-62.96875"
"1569258689104","61","-0.3203125","0.53515625","-0.2783203","60.09375","17.875","-123.46875"
"1569258689225","62","-1.0966797","-0.083984375","0.018554688","0.4375","18.40625","-55.875"
"1569258689315","63","-0.94140625","0.2421875","0.13476562","-15.46875","5.09375","-22.3125"
"1569258689405","64","-0.97753906","0.115234375","0.13574219","5.75","13.40625","-83.21875"
"1569258689525","65","-0.9785156","0.013671875","0.10449219","-23.71875","34.71875","-119.3125"
"1569258689613","66","-0.9482422","-0.3798828","-0.040039062","-5.03125","42.28125","-115.875"
"1569258689705","67","-2.0","0.16503906","0.05078125","-39.84375","119.53125","-166.59375"
"1569258689827","68","0.5253906","0.75","0.3310547","-16.6875","-43.125","100.59375"
"1569258689917","69","-1.1435547","0.13867188","0.2841797","131.625","-149.0","311.0625"
"1569258690005","70","-1.6943359","-1.1855469","0.2890625","143.15625","-56.53125","155.09375"
"1569258690125","71","-0.9824219","-0.28027344","-0.4169922","-45.9375","42.59375","-118.09375"
"1569258690215","72","-1.7539062","0.08105469","-2.0","-118.25","58.375","-159.09375"
"1569258690305","73","-1.2001953","-0.21191406","0.091796875","-41.84375","11.8125","3.0"
"1569258690426","74","-0.9560547","0.09863281","0.09375","-8.28125","24.625","-8.28125"
"1569258690517","75","-0.9609375","0.09667969","0.029296875","-1.5625","42.15625","-96.28125"
"1569258690606","76","-1.3574219","-0.076171875","0.0","-41.90625","70.53125","-119.0625"
"1569258690726","77","-1.8876953","0.5205078","-0.0107421875","-43.96875","128.28125","-161.0625"
"1569258690817","78","0.0068359375","-0.36816406","-0.08105469","90.53125","-10.53125","120.0625"
"1569258690906","79","-1.2373047","0.2578125","0.2685547","41.90625","-101.09375","321.4375"
"1569258691026","80","-1.7900391","-0.07910156","0.22363281","260.15625","-185.625","247.09375"
"1569258691117","81","-1.0507812","-0.60058594","-0.32714844","-256.09375","69.25","-72.5625"
"1569258691206","82","-0.8388672","2.0","1.2792969","255.03125","-45.5625","-138.84375"
"1569258691327","83","-1.5048828","0.030273438","-0.03125","36.09375","61.3125","-61.4375"
"1569258691416","84","-0.9316406","0.123046875","0.11816406","-18.46875","30.9375","37.0625"
"1569258691507","85","-0.71972656","-0.33203125","0.032226562","-0.03125","14.875","4.15625"
"1569258691626","86","-1.0800781","0.12011719","0.16992188","16.6875","16.9375","-40.4375"
"1569258691717","87","-1.6083984","0.9091797","0.20703125","-11.15625","63.28125","-112.15625"
"1569258691806","88","-1.8974609","-1.7451172","-0.27929688","-125.46875","178.9375","-191.8125"
"1569258691926","89","-0.16503906","0.296875","0.4404297","119.28125","-16.75","141.25"
"1569258692017","90","-0.94921875","0.032226562","0.49804688","188.5625","-117.625","276.15625"
"1569258692107","91","-2.0","-1.1318359","0.2939453","105.1875","-101.28125","213.21875"
"1569258692227","92","-1.1650391","-0.4716797","-0.09082031","50.9375","-25.46875","-98.4375"
"1569258692347","93","0.041992188","-0.5410156","-0.6142578","53.96875","56.125","-134.625"
"1569258692407","94","-0.8779297","-0.10839844","0.23046875","-35.3125","16.6875","-45.6875"
"1569258692556","95","-0.95410156","0.17480469","0.1171875","-20.78125","21.03125","-28.59375"
"1569258692616","96","-0.97558594","0.06640625","0.09863281","-6.25","18.40625","-91.59375"
"1569258692705","97","-0.97265625","-0.18261719","0.19140625","-45.8125","44.59375","-124.3125"
"1569258692824","98","-1.7236328","-0.18652344","-0.08886719","-37.75","52.59375","-106.71875"
"1569258692916","99","-0.0859375","0.39941406","0.8720703","32.6875","72.78125","-113.03125"
"1569258693003","100","-0.0390625","0.74121094","-0.11035156","44.875","-95.71875","224.375"
"1569258693126","101","-1.7597656","-0.4482422","-0.14941406","172.625","-160.1875","283.84375"
"1569258693217","102","-1.1933594","-0.3154297","0.25878906","-29.46875","-6.4375","98.21875"
"1569258693306","103","-0.79003906","-0.3564453","0.49121094","-9.5","15.0","-177.15625"
"1569258693397","104","-0.33398438","-0.50097656","-0.15722656","-41.59375","120.09375","-178.375"
"1569258693517","105","-1.0234375","0.01171875","0.16894531","-2.34375","20.71875","-3.8125"
"1569258693606","106","-0.9375","-0.04296875","0.140625","-27.03125","13.96875","-37.53125"
"1569258693698","107","-1.0195312","-0.1171875","0.17675781","-30.4375","26.65625","-108.4375"
"1569258693816","108","-2.0","-0.09863281","0.032226562","-27.375","41.59375","-111.8125"
"1569258693937","109","-0.8925781","0.19042969","0.20605469","-46.375","68.40625","-116.0625"
"1569258693997","110","-0.13378906","0.31347656","-0.032226562","5.15625","-90.09375","197.71875"
"1569258694117","111","-1.4892578","0.3046875","0.064453125","28.71875","-137.40625","308.375"
"1569258694205","112","-1.2666016","-1.2929688","0.24511719","107.75","-43.53125","77.40625"
"1569258694297","113","-2.0","-1.6796875","-1.5097656","-126.0","40.5625","-139.3125"
"1569258694446","114","-2.0","2.0","-0.37890625","55.75","32.75","-61.875"
"1569258694506","115","-1.4023438","-0.048828125","0.16992188","-15.96875","0.71875","7.59375"
"1569258694627","116","-0.97558594","-0.049804688","0.08886719","-10.65625","18.84375","-21.90625"
"1569258694717","117","-0.99121094","-0.06347656","0.14257812","-28.0","38.96875","-112.46875"
"1569258694806","118","-1.9091797","0.022460938","-0.203125","-82.0","78.09375","-169.59375"
"1569258694897","119","0.2919922","-1.9091797","-0.23144531","-38.1875","85.78125","-141.21875"
"1569258695017","120","-0.4609375","0.024414062","-0.10546875","-50.03125","-97.625","262.59375"
"1569258695106","121","-1.8583984","-1.0927734","0.087890625","89.625","-172.1875","276.8125"
"1569258695197","122","-0.84472656","-1.4072266","0.12597656","145.09375","-51.28125","39.875"
"1569258695317","123","-1.2783203","2.0","0.93066406","155.40625","-12.46875","-134.875"
"1569258695407","124","-0.48242188","-1.2939453","0.16015625","-53.75","21.71875","-79.09375"
"1569258695496","125","-0.8535156","0.0029296875","0.13378906","16.3125","21.78125","13.4375"
"1569258695617","126","-0.9316406","0.1953125","0.20703125","27.125","16.34375","-24.28125"
"1569258695707","127","-0.9707031","0.08984375","0.048828125","-20.25","39.21875","-99.21875"
"1569258695796","128","-1.2460938","-0.16601562","0.0048828125","-39.90625","66.8125","-104.71875"
"1569258695947","129","-1.2871094","0.6123047","0.021484375","38.96875","107.40625","-151.03125"
"1569258696006","130","0.061523438","0.76660156","0.39257812","69.84375","-83.21875","199.0625"
"1569258696097","131","-1.7099609","0.2763672","0.09765625","-57.34375","-143.8125","314.34375"
"1569258696217","132","-1.3046875","-0.6845703","0.080078125","106.40625","-43.78125","131.90625"
"1569258696306","133","-1.5927734","-1.0507812","0.08691406","-139.0625","61.75","-148.53125"
"1569258696397","134","-2.0","1.1484375","0.10839844","67.59375","24.28125","-134.75"
"1569258696517","135","-1.2226562","-0.41015625","0.18457031","-42.40625","0.71875","-1.625"
"1569258696606","136","-0.93359375","0.047851562","0.12109375","-10.59375","19.8125","20.46875"
"1569258696697","137","-0.93847656","-0.047851562","0.020507812","-20.3125","35.1875","-49.65625"
"1569258696816","138","-0.9277344","-0.12207031","0.13476562","-9.25","54.78125","-83.34375"
"1569258696907","139","-1.9931641","0.20410156","-0.032226562","-40.5625","112.59375","-112.71875"
"1569258696997","140","-0.119140625","-0.10058594","1.2294922","159.03125","150.375","-62.53125"
"1569258697117","141","-0.4482422","0.30566406","0.39453125","48.1875","-10.09375","255.09375"
"1569258697207","142","-1.5439453","0.032226562","0.60058594","207.78125","-186.3125","369.53125"
"1569258697297","143","-2.0","-1.3291016","1.0136719","106.28125","-79.3125","240.6875"
"1569258697416","144","-1.3623047","-0.31933594","-1.0087891","-0.15625","51.0625","-143.71875"
"1569258697506","145","-0.4736328","0.20019531","0.37695312","36.9375","6.75","-152.875"
"1569258697597","146","-1.0634766","0.09765625","-0.0126953125","68.0625","12.78125","-38.96875"
"1569258697716","147","-1.0761719","0.34277344","0.08203125","14.1875","10.125","-10.0"
"1569258697807","148","-0.890625","-0.0126953125","0.13574219","1.5625","14.8125","-33.6875"
"1569258697897","149","-1.2792969","0.3642578","0.10546875","6.84375","38.5","-88.375"
"1569258698014","150","-1.7587891","1.703125","0.9980469","-58.8125","137.90625","-150.5625"
"1569258698106","151","0.0048828125","0.38476562","0.17871094","20.53125","-1.5","20.03125"
"1569258698227","152","-0.5","-0.028320312","0.17675781","97.875","-103.53125","232.0625"
"1569258698318","153","-1.5625","-0.8222656","-0.09667969","123.0625","-127.34375","216.4375"
"1569258698407","154","-0.95214844","-0.6533203","0.15234375","48.5","-32.125","8.5625"
"1569258698497","155","-0.68066406","-0.022460938","-0.18066406","-88.96875","2.1875","-63.34375"
"1569258698617","156","-1.6777344","-0.36035156","-0.038085938","-39.09375","-9.96875","-137.90625"
"1569258698706","157","-1.0253906","-0.5390625","0.109375","-59.5625","22.0","7.03125"
"1569258698797","158","-0.8378906","0.115234375","0.0703125","-3.6875","18.09375","24.4375"
"1569258698917","159","-0.94433594","-0.051757812","0.1796875","-15.0","39.46875","-87.9375"
"1569258699006","160","-1.2666016","0.0068359375","0.1015625","-21.78125","55.46875","-112.59375"
"1569258699097","161","-2.0","0.5576172","0.20800781","-62.1875","122.78125","-203.71875"
"1569258699217","162","0.24609375","0.14355469","-0.029296875","35.375","-6.375","119.84375"
"1569258699306","163","-0.7402344","0.17578125","0.021484375","78.5625","-110.6875","274.1875"
"1569258699397","164","-2.0","-1.4921875","0.09765625","214.625","-140.65625","160.46875"
"1569258699517","165","-1.0019531","-0.5498047","-0.15039062","-106.125","-0.03125","-52.09375"
"1569258699606","166","-1.6113281","-0.14550781","0.01953125","106.15625","-49.71875","-152.875"
"1569258699697","167","-0.94628906","-0.5058594","0.14941406","-55.6875","23.59375","-19.5625"
"1569258699817","168","-1.0546875","0.14648438","0.053710938","-21.8125","26.15625","-2.4375"
"1569258699907","169","-0.79003906","-0.21875","0.07910156","-18.46875","29.6875","-64.25"
"1569258699997","170","-1.1054688","-0.2705078","0.053710938","-20.0625","40.375","-90.5625"
"1569258700117","171","-2.0","0.5097656","0.17382812","-24.40625","94.59375","-179.125"
"1569258700206","172","0.9921875","-2.0","-0.515625","67.71875","-32.96875","64.40625"
"1569258700297","173","-1.5439453","-0.13476562","0.8388672","61.5","-64.15625","355.0625"
"1569258700417","174","-2.0","0.390625","0.70214844","267.0","-175.4375","329.5625"
"1569258700507","175","-1.3115234","-1.4648438","-0.33789062","4.71875","-37.8125","10.03125"
"1569258700596","176","-1.0234375","0.51953125","-0.88964844","-12.1875","4.5625","-73.34375"
"1569258700717","177","-1.0527344","-0.17578125","0.35351562","48.0625","-26.15625","-132.25"
"1569258700807","178","-0.953125","0.29785156","0.0546875","41.65625","2.71875","-29.34375"
"1569258700897","179","-0.91015625","0.07714844","0.091796875","-29.21875","5.71875","-22.875"
"1569258700987","180","-0.9873047","0.13964844","0.12109375","4.28125","11.03125","-63.6875"
"1569258701106","181","-1.2285156","0.24414062","0.17480469","-2.78125","31.90625","-85.0"
"1569258701197","182","-0.8955078","-0.025390625","0.24707031","-68.65625","146.71875","-130.71875"
"1569258701287","183","-0.07128906","0.46777344","0.33203125","48.3125","-9.96875","84.375"
"1569258701407","184","-0.9326172","0.09375","0.25878906","108.96875","-74.3125","204.84375"
"1569258701496","185","-1.4853516","-0.57714844","0.3798828","126.96875","-89.0625","186.0"
"1569258701617","186","-1.0087891","-0.76953125","-0.022460938","-98.96875","-10.34375","79.1875"
"1569258701707","187","-0.9736328","0.020507812","-0.22753906","-5.96875","16.9375","-73.09375"
"1569258701796","188","-1.4267578","-0.047851562","-0.1484375","-15.53125","33.71875","-88.25"
"1569258701886","189","-2.0","2.0","-0.47070312","78.75","-13.9375","-64.125"
"1569258702006","190","-1.3085938","0.08886719","0.24121094","-40.1875","16.46875","10.5625"
"1569258702097","191","-0.9472656","0.09082031","0.14746094","-2.96875","16.9375","-11.6875"
"1569258702186","192","-0.9013672","0.05859375","0.0859375","-15.1875","36.0","-101.46875"
"1569258702307","193","-0.8798828","-0.24023438","-0.05859375","-21.03125","45.875","-111.8125"
"1569258702397","194","-2.0","0.73535156","0.27148438","-50.5","95.0625","-211.15625"
"1569258702486","195","1.5332031","0.5078125","-0.43359375","40.25","4.1875","70.09375"
"1569258702607","196","-0.35839844","0.34960938","0.013671875","25.0625","-92.3125","301.71875"
"1569258702698","197","-2.0","-1.1240234","-0.28808594","163.65625","-162.25","259.59375"
"1569258702785","198","-1.2275391","-0.8964844","-0.29492188","1.0625","-12.71875","-56.75"
"1569258702907","199","-1.1630859","1.3886719","0.12792969","121.84375","-26.9375","-130.96875"
"1569258702997","200","-0.90722656","-0.59277344","0.22851562","-83.15625","7.90625","-34.46875"
"1569258703086","201","-0.86035156","0.022460938","0.20800781","-13.59375","25.0625","0.625"
"1569258703235","202","-0.97753906","-0.045898438","0.08105469","-19.4375","34.21875","-79.6875"
"1569258703297","203","-0.97265625","-0.3203125","0.091796875","-13.59375","39.09375","-106.625"
"1569258703387","204","-2.0","0.16113281","0.020507812","-47.71875","96.46875","-177.28125"
"1569258703507","205","1.4882812","-0.15332031","0.30664062","3.625","-18.28125","39.6875"
"1569258703597","206","-0.42773438","0.1328125","-0.06640625","50.3125","-104.8125","233.34375"
"1569258703686","207","-1.875","-0.8457031","-0.1953125","126.0","-135.15625","244.15625"
"1569258703806","208","-1.1259766","-0.70996094","-0.24414062","-62.65625","-15.9375","14.4375"
"1569258703896","209","-0.9970703","2.0","-0.39746094","135.15625","-17.78125","-22.75"
"1569258704017","210","0.49414062","-1.0205078","-0.06640625","-142.3125","73.03125","-102.875"
"1569258704111","211","-0.796875","-0.0234375","0.20605469","-3.53125","24.28125","19.3125"
"1569258704197","212","-0.9111328","0.24121094","0.24414062","-8.46875","19.3125","-53.03125"
"1569258704287","213","-0.88378906","-0.44140625","0.07421875","-44.59375","35.625","-124.5625"
"1569258704406","214","-2.0","0.14160156","0.016601562","-23.71875","61.5625","-151.28125"
"1569258704497","215","-0.33789062","-0.77734375","0.44628906","25.46875","59.90625","-63.59375"
"1569258704587","216","-0.3623047","0.5644531","-0.09667969","-46.1875","-107.4375","266.8125"
"1569258704707","217","-2.0","-1.1708984","-0.091796875","78.4375","-181.40625","256.625"
"1569258704797","218","-1.4423828","-1.609375","-0.14648438","25.28125","-12.03125","13.4375"
"1569258704886","219","-1.4628906","-0.7783203","0.8642578","-56.625","1.5625","-93.4375"
"1569258705006","220","-2.0","2.0","0.5","53.5625","-42.5","-45.6875"
"1569258705097","221","-1.3417969","-0.037109375","0.2548828","-22.0625","0.71875","15.09375"
"1569258705187","222","-0.8300781","-0.19335938","0.026367188","-12.6875","25.25","-34.40625"
"1569258705307","223","-1.0332031","-0.068359375","-0.09375","-29.40625","33.65625","-95.875"
"1569258705397","224","-1.3046875","-0.24609375","0.046875","-55.46875","51.5625","-138.21875"
"1569258705487","225","-1.125","0.45703125","0.19335938","-46.5625","86.53125","-116.0625"
"1569258705607","226","-0.0546875","0.35253906","0.10449219","25.21875","-98.84375","212.53125"
"1569258705694","227","-1.7734375","0.32128906","0.41503906","32.6875","-160.46875","323.5"
"1569258705817","228","-1.3632812","-1.4111328","-0.11816406","30.84375","-18.40625","84.84375"
"1569258705906","229","-1.4931641","-1.6152344","-0.44726562","-125.90625","52.09375","-159.71875"
"1569258705997","230","-2.0","1.7890625","0.44433594","85.21875","-15.09375","-79.3125"
"1569258706086","231","-1.203125","-0.11816406","0.20605469","-30.1875","0.96875","18.15625"
"1569258706207","232","-1.0166016","0.043945312","0.07324219","8.125","7.71875","32.4375"
"1569258706297","233","-0.9707031","0.13867188","0.20117188","6.0","16.28125","-15.4375"
"1569258706386","234","-1.0830078","0.099609375","0.20703125","-6.375","52.03125","-77.375"
"1569258706507","235","-1.9980469","1.5625","0.56640625","-5.15625","104.34375","-136.875"
"1569258706597","236","-1.140625","-0.6640625","-0.2529297","320.03125","67.375","-64.1875"
"1569258706686","237","-0.44921875","0.10058594","0.4560547","98.28125","13.53125","172.8125"
"1569258706806","238","-1.1474609","0.33203125","0.5732422","106.53125","-67.46875","277.65625"
"1569258706896","239","-1.8203125","-0.21777344","0.33007812","142.28125","-105.5","244.53125"
"1569258706987","240","-1.4082031","-1.0947266","-0.11328125","-3.40625","-2.09375","-83.59375"
"1569258707107","241","-1.8125","-0.98339844","-0.37695312","-18.09375","5.96875","-189.4375"
"1569258707197","242","-1.0683594","0.2705078","0.2421875","-75.59375","10.71875","-38.6875"
"1569258707287","243","-0.96875","0.26464844","0.11816406","11.25","1.03125","-29.40625"
"1569258707406","244","-0.95410156","0.25390625","0.11230469","6.1875","7.4375","-48.1875"
"1569258707497","245","-1.0078125","0.06738281","0.06542969","5.15625","22.75","-63.9375"
"1569258707586","246","-1.1953125","0.15039062","-0.091796875","-4.375","38.3125","-67.0"
"1569258707707","247","-1.8798828","1.0351562","0.27246094","-5.09375","87.0","-126.6875"
"1569258707797","248","-1.7568359","-0.77734375","0.052734375","7.03125","76.6875","-130.84375"
"1569258707886","249","-0.25878906","0.05078125","0.11621094","42.875","-26.5","110.0625"
"1569258708006","250","-0.81933594","-0.27441406","0.09472656","207.25","-132.46875","249.34375"
"1569258708097","251","-1.6738281","-0.91503906","0.50683594","140.03125","-80.71875","223.96875"
"1569258708187","252","-1.0693359","-0.4560547","0.05078125","-84.6875","-31.6875","63.6875"
"1569258708304","253","-1.0126953","-0.07519531","-0.14257812","-36.46875","2.84375","-99.53125"
"1569258708391","254","-1.1376953","2.0","-0.016601562","136.375","40.3125","-95.8125"
"1569258708482","255","-0.10058594","-0.8769531","0.23144531","-118.09375","74.8125","-133.15625"
"1569258708601","256","-0.93066406","0.0126953125","0.19140625","7.46875","28.53125","8.0"
"1569258708693","257","-0.98046875","0.14746094","0.2783203","-14.1875","23.0625","-54.53125"
"1569258708782","258","-0.9472656","-0.123046875","0.11230469","-30.0","70.53125","-154.46875"
"1569258708902","259","-2.0","0.20507812","0.25","-0.78125","70.40625","-138.84375"
"1569258708992","260","-0.19726562","-0.26464844","0.5830078","52.9375","92.5","-57.84375"
"1569258709082","261","-0.15917969","0.5546875","0.09472656","13.21875","-88.78125","274.5"
"1569258709172","262","-2.0","-0.6689453","0.046875","99.3125","-175.3125","277.1875"
"1569258709293","263","-1.5498047","-1.4873047","-0.080078125","-74.125","4.6875","-5.84375"
"1569258709383","264","-1.4833984","0.41992188","-0.32421875","23.34375","16.9375","-143.65625"
"1569258709473","265","-1.0039062","-0.24511719","-0.09863281","13.875","59.5625","-76.28125"
"1569258709622","266","-0.9902344","-0.0068359375","-0.026367188","2.09375","35.75","3.5"
"1569258709682","267","-0.890625","-0.12695312","0.0703125","-17.0625","45.5625","-70.40625"
"1569258709772","268","-1.1630859","-0.07128906","0.07714844","-23.0","89.8125","-125.40625"
"1569258709892","269","-2.0","1.8867188","0.61328125","60.875","161.84375","-165.5"
"1569258709983","270","-0.5839844","1.1738281","0.53125","165.0625","-40.25","204.96875"
"1569258710103","271","-1.5498047","-0.051757812","0.62890625","171.40625","-129.78125","338.40625"
"1569258710192","272","-2.0","-0.40625","0.08886719","113.71875","-108.125","291.34375"
"1569258710282","273","-1.3603516","-0.7783203","-0.076171875","-19.4375","11.6875","-83.125"
"1569258710373","274","-0.28320312","0.052734375","-0.20507812","109.75","-19.1875","-166.65625"
"1569258710497","275","-1.0498047","-0.0625","0.123046875","0.21875","18.71875","-34.96875"
"1569258710584","276","-0.9404297","0.1015625","0.087890625","-1.3125","7.375","-11.46875"
"1569258710704","277","-0.9472656","0.16992188","0.15039062","10.59375","8.40625","-35.4375"
"1569258710793","278","-1.0996094","0.24316406","0.18359375","-2.0","32.9375","-65.28125"
"1569258710886","279","-1.7734375","1.1582031","0.1875","-39.65625","92.625","-156.84375"
"1569258710976","280","-1.3652344","-1.2851562","0.060546875","6.125","59.71875","-168.5"
"1569258711096","281","-0.1640625","0.08886719","0.08886719","37.3125","-42.875","147.125"
"1569258711186","282","-0.95214844","0.0546875","0.08886719","114.46875","-110.125","266.75"
"1569258711276","283","-1.7822266","-1.3154297","0.42773438","229.03125","-107.6875","176.28125"
"1569258711393","284","-1.03125","-0.7626953","0.22070312","-190.40625","38.125","-64.5"
"1569258711482","285","-1.5771484","-0.28125","0.03515625","21.6875","5.59375","-98.25"
"1569258711573","286","-2.0","0.36035156","-1.2011719","-72.96875","22.0625","-105.28125"
"1569258711691","287","-1.2861328","0.0078125","0.10058594","-34.65625","-1.1875","-5.28125"
"1569258711782","288","-0.9736328","-9.765625E-4","0.18554688","-7.90625","10.84375","-9.625"
"1569258711901","289","-0.9736328","-0.08300781","0.078125","-11.21875","28.1875","-69.625"
"1569258711991","290","-1.1181641","-0.18652344","0.13085938","-27.75","42.40625","-86.40625"
"1569258712081","291","-2.0","0.4482422","-0.11035156","-88.90625","93.84375","-142.125"
"1569258712171","292","0.33984375","-0.70996094","0.7089844","75.78125","31.46875","-63.9375"
"1569258712291","293","-0.45214844","0.5214844","0.11621094","-20.78125","-125.75","252.21875"
"1569258712381","294","-2.0","-1.0869141","-0.3251953","74.65625","-186.125","215.84375"
"1569258712471","295","-1.2978516","-1.2470703","-0.40820312","73.375","-16.3125","-46.375"
"1569258712591","296","-0.62597656","1.71875","0.49804688","113.96875","-26.5625","-142.0"
"1569258712681","297","-0.18554688","-0.9658203","0.55859375","-98.65625","16.53125","-60.65625"
"1569258712771","298","-0.8496094","0.21191406","0.12988281","-13.84375","35.9375","36.21875"
"1569258712891","299","-0.9121094","0.22753906","0.30664062","-49.21875","45.75","-87.25"
"1569258712985","300","-1.2783203","-0.087890625","0.2265625","-21.875","34.84375","-159.09375"
"1569258713071","301","-1.7714844","0.33007812","0.125","-60.40625","96.09375","-158.0625"
"1569258713191","302","0.8730469","0.9472656","0.7207031","-93.4375","-78.4375","133.3125"
"1569258713281","303","-1.3164062","0.609375","-0.07519531","2.9375","-204.5","323.8125"
"1569258713371","304","-1.6591797","-1.2753906","0.36328125","184.78125","-47.8125","157.71875"
"1569258713491","305","-1.4384766","2.0","0.6308594","38.09375","87.3125","18.375"
"1569258713611","306","-0.97558594","0.15527344","0.29589844","-14.0","119.53125","-210.96875"
"1569258713671","307","-1.3105469","-0.08496094","0.390625","17.28125","27.6875","-37.625"
"1569258713791","308","-0.92578125","-0.25","0.23925781","-125.65625","50.40625","-97.40625"
"1569258713881","309","-1.5292969","0.59472656","0.5966797","-104.53125","43.8125","-105.03125"
"1569258713971","310","-0.3017578","-0.78515625","0.5283203","165.96875","-170.3125","162.25"
"1569258714091","311","-2.0","0.1171875","0.09472656","116.59375","-132.96875","319.46875"
"1569258714181","312","-0.8183594","-1.2197266","-0.76171875","-119.46875","2.34375","20.15625"
"1569258714272","313","-0.93652344","1.0253906","-0.09375","143.28125","44.21875","-95.75"
"1569258714392","314","-0.8339844","0.10546875","-0.24609375","93.46875","97.34375","-143.96875"
"1569258714482","315","-1.2138672","-0.0087890625","0.22167969","3.1875","20.0625","38.53125"
"1569258714571","316","-0.95703125","0.12890625","0.037109375","6.96875","9.0","-6.875"
"1569258714694","317","-1.1396484","-0.059570312","0.076171875","-16.15625","55.59375","-124.1875"
"1569258714784","318","-1.1542969","0.1484375","0.11328125","-22.4375","82.5625","-125.40625"
"1569258714874","319","-2.0","1.1279297","0.4970703","0.8125","134.0","-161.0625"
"1569258714993","320","-0.06640625","0.16503906","0.5439453","140.53125","-57.40625","176.59375"
"1569258715083","321","-1.4873047","0.3828125","0.40625","98.09375","-127.21875","304.15625"
"1569258715173","322","-2.0","-0.8808594","0.0068359375","90.15625","-106.40625","209.125"
"1569258715294","323","-1.1669922","-0.8564453","-0.12890625","-17.5","48.125","-174.46875"
"1569258715383","324","-1.1757812","1.2490234","-0.1171875","59.90625","-55.375","-200.25"
"1569258715474","325","-1.0039062","-0.09667969","0.33203125","-25.6875","41.59375","-30.4375"
"1569258715594","326","-0.75878906","0.016601562","0.20800781","-25.0","21.09375","17.59375"
"1569258715685","327","-0.81933594","-0.07910156","0.052734375","-16.59375","13.65625","-28.59375"
"1569258715777","328","-1.5673828","0.6982422","0.12207031","-1.625","48.625","-97.28125"
"1569258715893","329","-1.4482422","0.16601562","0.80859375","-41.78125","128.46875","-173.9375"
"1569258715983","330","-0.13085938","0.296875","0.4091797","85.40625","20.3125","12.03125"
"1569258716073","331","-0.671875","-0.09082031","0.234375","94.0625","-66.25","254.40625"
"1569258716165","332","-1.9228516","-0.21191406","0.5253906","200.53125","-155.78125","315.9375"
"1569258716285","333","-1.5039062","-1.828125","0.11230469","85.15625","-58.4375","29.25"
"1569258716375","334","-1.6982422","2.0","-0.46777344","-73.9375","33.90625","-43.875"
"1569258716466","335","-1.2070312","-0.31835938","-0.115234375","-87.1875","-19.90625","-74.3125"
"1569258716584","336","-0.97265625","0.13085938","0.15820312","-17.90625","14.375","-10.25"
"1569258716676","337","-0.88183594","0.3798828","0.27929688","-4.375","6.875","-81.9375"
"1569258716767","338","-1.0458984","-0.040039062","0.20410156","-32.8125","27.5625","-127.1875"
"1569258716886","339","-1.7539062","0.20019531","-0.17285156","-47.78125","64.8125","-127.25"
"1569258716977","340","-0.86328125","0.90527344","0.41210938","17.65625","113.625","-123.28125"
"1569258717095","341","0.23046875","0.546875","0.08691406","163.34375","-56.71875","244.90625"
"1569258717187","342","-2.0","-0.21582031","0.0029296875","101.59375","-126.0","314.53125"
"1569258717277","343","-0.96875","0.12402344","0.53515625","148.15625","-40.4375","71.125"
"1569258717366","344","-2.0","-2.0","0.75878906","-88.71875","22.0625","-216.28125"
"1569258717486","345","-2.0","2.0","-0.078125","150.59375","21.46875","-24.53125"
"1569258717576","346","-1.2363281","-0.32910156","0.15039062","-31.28125","1.5","-15.0"
"1569258717667","347","-0.9707031","-0.07324219","0.0","-8.28125","12.625","0.625"
"1569258717786","348","-0.80566406","-0.053710938","-0.14648438","-27.03125","21.9375","-69.75"
"1569258717876","349","-0.9951172","-0.2939453","0.038085938","-66.625","33.1875","-104.15625"
"1569258717966","350","-2.0","0.70703125","-0.08203125","-54.96875","94.8125","-219.59375"
"1569258718084","351","0.38476562","-0.9892578","-0.01171875","-0.21875","-62.40625","113.53125"
"1569258718177","352","-0.9482422","0.20703125","-0.0390625","-26.03125","-102.4375","308.5625"
"1569258718267","353","-2.0","-0.21777344","-0.36523438","62.46875","-127.15625","328.4375"
"1569258718385","354","-1.0976562","-1.2978516","-0.6533203","-70.09375","18.09375","-23.65625"
"1569258718474","355","-0.6171875","2.0","1.96875","228.1875","-46.90625","-158.125"
"1569258718565","356","-1.1621094","-0.2734375","0.11425781","4.65625","11.5","-24.625"
"1569258718687","357","-0.9902344","0.07714844","0.046875","-9.6875","22.5625","27.53125"
"1569258718777","358","-0.86035156","-0.07324219","0.115234375","19.3125","14.75","-28.90625"
"1569258718867","359","-1.2265625","0.18261719","0.038085938","10.28125","29.53125","-50.21875"
"1569258718987","360","-1.8447266","1.2138672","0.38671875","-6.8125","82.125","-129.0"
"1569258719074","361","-1.9570312","-0.734375","0.5957031","-0.03125","58.4375","-125.59375"
"1569258719163","362","-0.4609375","0.0048828125","0.24804688","59.21875","-28.90625","138.5"
"1569258719283","363","-0.9423828","-0.13769531","0.26757812","251.96875","-142.46875","259.90625"
"1569258719374","364","-2.0","-0.5439453","0.6513672","145.46875","-97.25","280.34375"
"1569258719466","365","-1.4169922","-1.1767578","-0.16992188","-30.8125","2.65625","-93.78125"
"1569258719584","366","-1.3564453","-0.2939453","-0.20117188","57.875","-20.65625","-137.3125"
"1569258719674","367","-1.0869141","-0.11035156","0.123046875","-10.09375","-1.375","-77.375"
"1569258719765","368","-0.98828125","0.18554688","0.043945312","-5.15625","-3.9375","-10.90625"
"1569258719887","369","-0.8925781","0.32421875","0.22460938","-8.9375","6.9375","-53.5"
"1569258719975","370","-0.9550781","-0.0146484375","0.12890625","-35.375","23.34375","-118.5625"
"1569258720093","371","-1.0693359","-0.23730469","0.06347656","-45.09375","38.125","-103.625"
"1569258720183","372","-2.0","0.21875","-0.22167969","-64.75","69.0625","-180.59375"
"1569258720273","373","1.5869141","0.5292969","-0.2734375","34.625","-4.71875","-24.03125"
"1569258720366","374","-0.6328125","0.1796875","-0.0087890625","12.21875","-85.59375","286.09375"
"1569258720486","375","-2.0","-1.9521484","-0.12597656","135.46875","-133.4375","205.875"
"1569258720577","376","-0.9238281","-1.0488281","-0.12011719","-136.5","29.59375","-69.5"
"1569258720666","377","-1.1748047","-0.3232422","-0.1953125","4.0625","15.96875","-122.28125"
"1569258720783","378","-0.99609375","-0.171875","0.028320312","-22.8125","17.96875","17.59375"
"1569258720874","379","-1.0009766","0.09082031","0.091796875","-12.375","15.40625","-16.875"
"1569258720964","380","-1.0068359","0.0087890625","0.21386719","-34.21875","31.09375","-102.75"
"1569258721084","381","-1.140625","-0.45507812","0.18261719","-32.5625","25.25","-112.96875"
"1569258721174","382","-1.6513672","0.3408203","0.1328125","-110.6875","89.03125","-184.625"
"1569258721263","383","0.059570312","-0.09472656","-0.3046875","-30.875","-69.53125","146.3125"
"1569258721383","384","-1.0224609","0.41796875","-0.03125","73.21875","-166.09375","295.25"
"1569258721473","385","-2.0","-1.9091797","0.5253906","311.65625","-97.25","137.65625"
"1569258721563","386","-1.1298828","-0.8564453","-0.06933594","-202.375","68.71875","-142.6875"
"1569258721684","387","-1.4257812","0.43945312","-0.43164062","-11.75","-0.03125","-82.5625"
"1569258721775","388","-0.59375","-0.61816406","0.44921875","-111.71875","16.28125","-28.5"
"1569258721866","389","-0.890625","0.0703125","0.17382812","0.28125","17.625","-11.09375"
"1569258721984","390","-0.95703125","0.11621094","0.19042969","-12.1875","20.1875","-80.78125"
"1569258722073","391","-0.8457031","-0.40625","-0.23828125","-54.40625","36.90625","-110.15625"
"1569258722164","392","-2.0","0.45703125","0.13867188","-50.40625","63.03125","-147.8125"
"1569258722284","393","-0.12402344","0.08105469","0.1640625","-35.25","36.71875","-36.40625"
"1569258722373","394","-0.23730469","0.49902344","0.0390625","-12.84375","-110.4375","227.6875"
"1569258722463","395","-2.0","-0.51953125","-0.034179688","111.65625","-174.34375","290.4375"
"1569258722583","396","-0.9873047","-0.8720703","0.07519531","33.71875","-1.59375","45.96875"
"1569258722674","397","-2.0","-1.3789062","1.2773438","-7.84375","1.3125","-164.53125"
"1569258722767","398","-2.0","-0.045898438","-0.2626953","-24.09375","5.84375","-72.1875"
"1569258722885","399","-1.1992188","-0.15917969","0.20507812","-31.78125","-0.875","15.46875"
"1569258722977","400","-0.921875","-0.103515625","0.08105469","-6.75","25.6875","-17.8125"
"1569258723067","401","-0.9277344","-0.16992188","-0.0234375","-25.90625","34.40625","-88.53125"
"1569258723186","402","-1.0644531","-0.27148438","0.15332031","-31.21875","41.84375","-83.53125"
"1569258723306","403","-1.7636719","0.7421875","0.20214844","-119.90625","106.71875","-159.15625"
"1569258723366","404","0.68359375","1.2138672","0.4501953","-64.5","-56.25","-66.3125"
"1569258723487","405","-0.9267578","0.58496094","-0.057617188","61.4375","-162.1875","266.0625"
"1569258723577","406","-1.9697266","-1.1132812","0.14941406","176.21875","-78.28125","218.53125"
"1569258723667","407","-1.171875","-0.21289062","-0.16699219","-147.9375","51.4375","-109.90625"
"1569258723757","408","-1.8671875","0.86035156","-0.3388672","22.46875","-8.9375","-106.25"
"1569258723877","409","-1.3652344","0.044921875","0.15917969","-15.90625","45.09375","-50.34375"
"1569258723966","410","-1.0136719","-0.08496094","0.19238281","12.34375","38.625","-35.0"
"1569258724083","411","-1.6162109","0.01171875","0.08300781","-15.59375","46.0625","-48.875"
"1569258724174","412","-2.0","0.91796875","0.18554688","-43.1875","124.625","-143.0"
"1569258724266","413","-0.7734375","0.12011719","1.0712891","19.84375","32.5","55.6875"
"1569258724356","414","-1.2021484","-0.39648438","0.35839844","144.375","-168.71875","254.96875"
"1569258724476","415","-2.0","0.4404297","0.8808594","251.84375","-121.96875","397.71875"
"1569258724564","416","-1.3632812","-2.0","-0.265625","-77.625","-13.625","6.375"
"1569258724654","417","-1.9589844","-0.98339844","0.34375","-67.96875","49.65625","-265.1875"
"1569258724776","418","-1.0859375","0.16601562","0.19824219","-34.46875","-4.53125","-61.375"
"1569258724865","419","-1.0488281","0.04296875","0.055664062","-29.28125","12.96875","-3.46875"
"1569258724957","420","-0.96777344","0.12695312","0.13769531","-9.0625","5.28125","-23.53125"
"1569258725074","421","-1.0078125","0.16113281","0.14160156","1.84375","25.375","-63.40625"
"1569258725164","422","-1.6582031","1.2236328","0.2548828","-45.21875","87.1875","-154.9375"
"1569258725254","423","-1.4609375","-1.4228516","0.12207031","155.46875","71.625","-146.78125"
"1569258725377","424","-0.01171875","0.08496094","0.125","44.46875","29.09375","143.03125"
"1569258725467","425","-0.7871094","-0.3017578","0.40234375","78.4375","-63.375","265.46875"
"1569258725584","426","-1.7880859","-1.2646484","0.5185547","155.125","-121.71875","173.0625"
"1569258725674","427","-0.98046875","-0.8720703","0.048828125","-102.6875","-5.03125","-46.96875"
"1569258725765","428","-0.8466797","-0.047851562","0.2626953","60.03125","40.75","-190.09375"
"1569258725857","429","-0.029296875","-0.8730469","-0.055664062","-126.3125","99.53125","-134.625"
"1569258725977","430","-1.0292969","0.16308594","0.3515625","18.21875","23.65625","1.78125"
"1569258726066","431","-0.8691406","-0.06542969","-0.064453125","-8.53125","31.21875","-34.65625"
"1569258726155","432","-1.1689453","0.0048828125","0.029296875","-38.0","49.90625","-112.46875"
"1569258726276","433","-2.0","0.63964844","0.234375","-52.59375","63.75","-167.8125"
"1569258726366","434","1.9072266","0.0234375","0.10058594","-51.125","-19.0625","-83.84375"
"1569258726454","435","-0.57128906","0.14453125","0.18554688","147.53125","-95.90625","254.15625"
"1569258726578","436","-2.0","-2.0","-0.2607422","9.84375","-100.375","191.65625"
"1569258726667","437","-1.2558594","-0.94433594","-0.36621094","19.5625","10.78125","-104.03125"
"1569258726757","438","-1.7529297","-0.041015625","-2.0","45.90625","4.625","-156.46875"
"1569258726877","439","-0.9765625","-0.21582031","0.19042969","-57.53125","31.15625","-29.09375"
"1569258726967","440","-0.97265625","-0.099609375","0.119140625","-10.0625","30.25","-11.03125"
"1569258727057","441","-1.1298828","0.14550781","0.18554688","-35.625","43.6875","-82.5625"
"1569258727177","442","-2.0","0.45117188","0.078125","-43.0625","84.5625","-112.40625"
"1569258727267","443","0.5878906","-0.65234375","1.0097656","-2.125","134.75","-45.40625"
"1569258727358","444","-0.6425781","0.17382812","0.32910156","51.84375","-17.125","288.03125"
"1569258727477","445","-1.7626953","0.00390625","0.5283203","235.875","-162.0625","348.03125"
"1569258727567","446","-1.7666016","-1.0458984","0.6328125","51.90625","-18.9375","195.28125"
"1569258727657","447","-1.3183594","0.22851562","-1.0244141","-70.90625","85.5625","-104.0"
"1569258727777","448","-0.37402344","-0.25097656","0.5546875","71.25","-15.53125","-140.0625"
"1569258727866","449","-1.0166016","-0.0126953125","0.0029296875","18.875","19.03125","-36.0"
"1569258727956","450","-1.0029297","0.16210938","0.00390625","-0.78125","6.09375","-2.4375"
"1569258728074","451","-0.9003906","9.765625E-4","0.13085938","13.9375","8.34375","-22.375"
"1569258728163","452","-1.0175781","0.16796875","0.01953125","0.375","21.875","-33.90625"
"1569258728256","453","-1.2060547","0.296875","0.16699219","6.5","57.84375","-83.40625"
"1569258728376","454","-1.8007812","1.3583984","0.7480469","34.75","108.375","-151.21875"
"1569258728466","455","-1.2958984","0.19921875","0.37402344","164.4375","46.1875","-64.0625"
"1569258728556","456","-0.34472656","-0.060546875","0.23632812","127.46875","-18.875","164.625"
"1569258728675","457","-0.99316406","-0.026367188","0.27246094","139.0625","-96.28125","302.5"
"1569258728765","458","-1.7714844","-1.4941406","0.123046875","115.0625","-90.59375","190.8125"
"1569258728856","459","-0.9423828","-0.6953125","0.04296875","-76.6875","-7.34375","8.1875"
"1569258728976","460","-0.96484375","-0.48339844","0.013671875","-88.53125","25.90625","-113.3125"
"1569258729066","461","-0.9345703","2.0","0.46191406","124.96875","-14.96875","-130.40625"
"1569258729157","462","-0.55371094","-0.8857422","0.2939453","-78.09375","9.125","-82.25"
"1569258729278","463","-0.9453125","-0.076171875","0.12792969","4.71875","12.1875","11.0625"
"1569258729364","464","-0.9472656","0.15332031","0.24804688","-7.5","8.84375","-37.28125"
"1569258729457","465","-0.93652344","-0.33398438","0.1484375","-49.96875","35.0","-92.75"
"1569258729577","466","-1.390625","-0.20800781","-0.017578125","-37.21875","37.46875","-115.8125"
"1569258729666","467","-1.5810547","0.51660156","0.1640625","-49.0","76.34375","-175.46875"
"1569258729754","468","0.08203125","0.6074219","0.29296875","73.15625","-49.75","164.03125"
"1569258729874","469","-1.4667969","0.7236328","0.22949219","-57.03125","-93.84375","347.1875"
"1569258729967","470","-1.0068359","-1.1210938","0.0078125","261.125","-98.46875","126.375"
"1569258730057","471","-2.0","-2.0","0.29101562","-114.40625","39.96875","-181.125"
"1569258730177","472","-1.7900391","-0.29589844","-2.0","22.53125","-9.71875","-38.375"
"1569258730264","473","-1.1552734","0.0078125","0.19335938","-41.46875","-4.21875","24.625"
"1569258730354","474","-0.84277344","-0.10449219","0.061523438","-5.53125","12.625","-24.21875"
"1569258730477","475","-1.2783203","0.14355469","0.24609375","-31.78125","47.15625","-142.3125"
"1569258730569","476","-2.0","0.375","0.095703125","-109.78125","34.21875","-225.6875"
"1569258730656","477","0.3544922","0.39746094","-0.45703125","-140.59375","-89.875","240.3125"
"1569258730777","478","-1.8066406","0.15039062","0.036132812","141.8125","-96.46875","338.65625"
"1569258730866","479","-1.1191406","-0.86816406","-0.083984375","0.8125","-2.03125","90.46875"
"1569258730957","480","-1.4707031","2.0","1.0537109","118.125","-1.0625","-120.53125"
"1569258731077","481","-0.8232422","-1.3613281","-1.1601562","-2.28125","18.78125","0.3125"
"1569258731166","482","-0.9433594","-0.2529297","0.05859375","-58.75","7.0625","10.53125"
"1569258731256","483","-0.8808594","-0.0625","0.27441406","-12.90625","25.6875","-50.34375"
"1569258731346","484","-1.4619141","-0.083984375","0.087890625","-11.8125","36.34375","-114.125"
"1569258731466","485","-2.0","0.3720703","0.19921875","-55.28125","55.71875","-201.34375"
"1569258731558","486","0.97265625","-0.56933594","0.037109375","7.21875","-29.1875","97.5625"
"1569258731644","487","-0.796875","0.3935547","-0.068359375","7.15625","-110.0","288.96875"
"1569258731764","488","-2.0","-1.2880859","-0.28515625","222.6875","-103.59375","210.96875"
"1569258731854","489","-1.0380859","-0.48632812","0.17773438","-153.3125","51.6875","-88.125"
"1569258731947","490","-1.3232422","0.8701172","0.63964844","82.40625","-31.34375","-101.375"
"1569258732067","491","-1.2431641","-0.16503906","-0.20605469","34.5","45.6875","-79.9375"
"1569258732154","492","-1.0449219","-0.029296875","0.29492188","-6.8125","28.0625","17.65625"
"1569258732244","493","-0.875","-0.041992188","0.12011719","8.8125","22.875","-25.90625"
"1569258732366","494","-1.1699219","0.0546875","0.115234375","-29.46875","53.5625","-97.28125"
"1569258732456","495","-1.5820312","-0.091796875","0.091796875","-42.6875","73.03125","-123.875"
"1569258732573","496","-0.95703125","1.015625","0.4736328","63.3125","158.84375","-81.46875"
"1569258732663","497","-0.19921875","0.5048828","0.63964844","132.09375","-67.15625","254.09375"
"1569258732756","498","-2.0","0.4326172","0.54296875","106.46875","-171.03125","325.8125"
"1569258732845","499","-1.3710938","-0.95996094","0.25390625","70.6875","-70.8125","162.75"
"1569258732966","500","-0.984375","-0.076171875","-0.40039062","-81.8125","57.53125","-99.84375"
"1569258733056","501","-1.4960938","1.5371094","0.040039062","81.9375","-105.1875","-173.125"
"1569258733143","502","-1.0595703","-0.0029296875","0.2607422","-6.9375","65.03125","-33.5625"
"1569258733264","503","-0.8515625","-0.076171875","0.20410156","-6.15625","25.96875","20.15625"
"1569258733354","504","-0.88964844","-0.015625","-0.0703125","5.34375","21.40625","-6.4375"
"1569258733443","505","-1.421875","0.5371094","0.23339844","4.0","54.78125","-97.9375"
"1569258733562","506","-1.0058594","0.3564453","0.7626953","-5.28125","126.6875","-178.5625"
"1569258733654","507","-0.18847656","0.5517578","0.5361328","101.21875","15.84375","-20.96875"
"1569258733744","508","-0.5761719","-0.07910156","0.1640625","83.03125","-81.6875","215.78125"
"1569258733866","509","-1.7275391","-0.12695312","0.3359375","191.5625","-149.375","320.34375"
"1569258733957","510","-1.7568359","-1.8457031","0.22265625","78.4375","-43.90625","77.71875"
"1569258734044","511","-2.0","2.0","0.69433594","72.34375","-5.46875","38.65625"
"1569258734164","512","-1.0732422","0.033203125","0.21289062","6.1875","-23.03125","-62.0"
"1569258734254","513","-0.9765625","0.16503906","0.17285156","17.65625","15.46875","-24.15625"
"1569258734346","514","-0.9716797","0.15625","0.11328125","19.8125","13.84375","-35.625"
"1569258734467","515","-0.9560547","-0.01953125","0.11816406","-16.15625","36.1875","-86.46875"
"1569258734552","516","-0.94140625","-0.33984375","0.14355469","-15.3125","47.21875","-108.125"
"1569258734641","517","-1.4355469","-0.09863281","0.028320312","-7.65625","78.21875","-135.34375"
"1569258734761","518","0.03515625","-1.0927734","0.41992188","6.96875","118.5625","-130.28125"
"1569258734852","519","0.045898438","0.78027344","0.076171875","43.25","-34.875","169.34375"
"1569258734942","520","-1.0996094","0.21679688","0.31445312","137.03125","-104.9375","278.8125"
"1569258735062","521","-2.0","-0.87890625","0.16015625","133.375","-88.59375","201.875"
"1569258735153","522","-1.2158203","-0.40820312","-0.19726562","-92.6875","54.4375","-132.0625"
"1569258735243","523","-1.0800781","0.54785156","0.9765625","162.3125","-42.6875","-88.0625"
"1569258735363","524","-0.025390625","-0.94433594","0.26171875","-103.4375","71.4375","-93.5"
"1569258735452","525","-0.97753906","0.17675781","0.22558594","26.5625","35.375","6.375"
"1569258735546","526","-0.85546875","-0.0146484375","-0.078125","5.15625","33.25","-65.71875"
"1569258735664","527","-0.84277344","-0.2705078","0.16796875","-61.0625","65.46875","-102.65625"
"1569258735756","528","-2.0","0.4248047","0.10253906","-107.53125","172.65625","-155.0"
"1569258735845","529","-0.15625","-0.7050781","0.140625","125.75","31.78125","55.3125"
"1569258735964","530","-0.51953125","0.23828125","0.31347656","80.34375","-112.3125","248.8125"
"1569258736057","531","-1.9199219","0.21972656","0.3408203","97.8125","-204.3125","344.1875"
"1569258736146","532","-1.484375","-1.7011719","-0.8095703","42.1875","-66.96875","89.5"
"1569258736266","533","-1.4111328","2.0","-1.4130859","277.3125","48.6875","-267.0625"
"1569258736356","534","-1.6962891","0.171875","0.4111328","13.5625","-9.53125","-33.78125"
"1569258736446","535","-0.92871094","-0.111328125","0.05078125","-44.21875","32.09375","4.0625"
"1569258736566","536","-0.7871094","-0.20507812","0.19726562","-13.46875","13.34375","-13.65625"
"1569258736656","537","-1.2119141","0.18554688","0.15917969","10.40625","20.125","-75.46875"
"1569258736746","538","-1.6855469","1.9345703","0.8857422","-89.21875","118.8125","-156.0"
"1569258736866","539","-0.4375","0.38964844","0.4501953","4.0625","33.125","-14.1875"
"1569258736986","540","-0.6923828","-0.13671875","0.12597656","47.03125","-88.15625","212.40625"
"1569258737046","541","-1.71875","0.072265625","0.23046875","242.46875","-165.4375","292.375"
"1569258737166","542","-1.3632812","-1.390625","0.17578125","223.34375","-52.875","8.125"
"1569258737257","543","-0.3310547","-0.45117188","-0.15917969","18.09375","5.28125","-203.15625"
"1569258737346","544","-0.89941406","0.08984375","0.14453125","-16.875","-2.46875","-32.875"
"1569258737465","545","-0.95214844","0.13867188","0.14550781","10.8125","5.34375","-27.75"
"1569258737557","546","-1.0","0.015625","0.17675781","-1.125","8.15625","-97.625"
"1569258737646","547","-1.1513672","-0.12597656","0.28320312","-43.8125","39.84375","-117.53125"
"1569258737856","548","-1.5986328","0.16992188","0.23046875","-30.75","80.0","-187.25"
"1569258737856","549","0.9501953","-1.2832031","0.2626953","77.34375","34.28125","-40.21875"
"1569258737944","550","-0.6015625","0.026367188","0.03125","133.375","-33.15625","242.03125"
"1569258738066","551","-1.8457031","-0.7441406","0.4580078","180.5625","-118.5625","269.78125"
"1569258738156","552","-0.91796875","-0.98046875","-0.107421875","9.65625","-12.21875","16.4375"
"1569258738244","553","-1.6669922","1.6679688","1.5849609","84.1875","10.21875","-69.5"
"1569258738366","554","-2.0","1.9599609","0.47851562","108.3125","-33.59375","-26.59375"
"1569258738454","555","-1.1884766","-0.23730469","0.17578125","-14.4375","4.375","5.5"
"1569258738544","556","-0.9160156","-0.12890625","0.095703125","-10.0","22.0","-20.375"
"1569258738666","557","-0.9013672","-0.30273438","0.091796875","-36.0","30.375","-92.75"
"1569258738754","558","-1.4560547","-0.18261719","0.14160156","-32.375","42.34375","-152.375"
"1569258738846","559","-0.54296875","0.2529297","0.46289062","44.15625","93.25","-121.375"
"1569258738935","560","-0.44628906","0.36328125","0.046875","-19.5625","-60.625","296.34375"
"1569258739057","561","-2.0","-1.7148438","-0.19238281","124.34375","-156.15625","261.6875"
"1569258739147","562","-1.0273438","-1.3925781","0.056640625","25.34375","5.21875","72.28125"
"1569258739266","563","-1.4482422","-0.9658203","0.3232422","-71.625","31.40625","-128.09375"
"1569258739357","564","-2.0","0.56347656","0.89160156","78.5","-10.21875","-68.9375"
"1569258739446","565","-1.1542969","-0.24902344","0.22265625","-32.375","-0.21875","-14.25"
"1569258739565","566","-0.9580078","-0.08691406","0.18359375","-21.34375","15.1875","-11.625"
"1569258739656","567","-0.98339844","-0.14941406","0.11816406","-24.40625","21.09375","-74.6875"
"1569258739746","568","-1.0322266","-0.3095703","0.109375","-45.15625","16.40625","-87.3125"
"1569258739837","569","-1.9794922","0.2607422","0.20410156","-94.65625","85.5625","-168.625"
"1569258739957","570","0.48828125","-0.12597656","0.015625","-50.5625","-46.15625","97.75"
"1569258740046","571","-0.921875","0.31835938","-0.024414062","86.375","-136.4375","283.65625"
"1569258740135","572","-1.6464844","-1.3007812","-0.04296875","226.875","-92.78125","175.125"
"1569258740257","573","-1.0566406","-0.203125","0.09765625","-152.03125","43.9375","-93.90625"
"1569258740346","574","-1.1826172","-0.21582031","0.76660156","55.25","-39.28125","-122.25"
"1569258740436","575","-0.9189453","-0.7138672","0.016601562","-51.0625","20.78125","-40.875"
"1569258740556","576","-0.90625","-0.01953125","0.12402344","-4.375","11.34375","-4.625"
"1569258740643","577","-0.9716797","-0.11035156","0.11230469","-35.9375","17.375","-74.8125"
"1569258740736","578","-0.9189453","-0.08105469","0.24804688","-39.34375","37.21875","-83.65625"
"1569258740856","579","-2.0","0.3251953","0.060546875","-92.75","103.96875","-176.125"
"1569258740947","580","0.9091797","0.107421875","0.39160156","27.71875","31.15625","0.75"
"1569258741036","581","-0.32910156","0.41796875","0.111328125","41.59375","-100.90625","257.65625"
"1569258741154","582","-2.0","-1.1523438","0.040039062","65.4375","-159.125","239.71875"
"1569258741246","583","-1.28125","-1.578125","-0.3330078","-14.75","-13.8125","-56.0625"
"1569258741336","584","-0.87890625","0.5126953","0.3642578","66.375","-11.9375","-155.0"
"1569258741457","585","-0.2529297","-0.7480469","-0.01953125","-98.90625","91.53125","-119.1875"
"1569258741547","586","-1.1494141","-0.12207031","0.11816406","22.375","48.9375","-45.21875"
"1569258741636","587","-1.4765625","0.41503906","0.35742188","-50.9375","85.78125","-162.6875"
"1569258741756","588","-0.34765625","-0.44726562","-0.15332031","-118.875","13.15625","-20.4375"
"1569258741844","589","-0.8886719","0.049804688","0.38085938","261.25","-84.1875","274.625"
"1569258741937","590","-2.0","0.3701172","0.6669922","284.5625","-100.65625","333.21875"
"1569258742057","591","-1.3154297","-1.3613281","0.4326172","187.15625","-12.65625","55.0"
"1569258742146","592","-0.5644531","2.0","-0.6425781","65.5","103.96875","-70.71875"
"1569258742237","593","-1.3046875","0.16992188","0.45703125","14.65625","-24.75","-49.78125"
"1569258742357","594","-1.1386719","0.07519531","-0.0087890625","9.53125","12.0625","6.5"
"1569258742442","595","-0.9160156","0.0703125","0.044921875","11.25","2.0625","-17.0625"
