# Sensor position: Chest
# Sensor side: Left
# Activity type: Descending stairs
# Activity code: 13
# Subject id: s1660711
timestamp,seq,accel_x,accel_y,accel_z
1602861125656,0,-0.0769043,-1.0532837,-0.062072754
1602861125656,1,-0.0769043,-1.0532837,-0.062072754
1602861125663,2,-0.061279297,-1.0396118,-0.045959473
1602861125663,3,-0.061279297,-1.0396118,-0.045959473
1602861125665,4,-0.041748047,-1.0488892,-0.008117676
1602861125672,5,-0.041748047,-1.0488892,-0.008117676
1602861125672,6,-0.014160156,-1.0491333,0.06829834
1602861125672,7,-0.014160156,-1.0491333,0.06829834
1602861125673,8,-0.14111328,-1.0918579,0.08099365
1602861125673,9,-0.14111328,-1.0918579,0.08099365
1602861125674,10,-0.18188477,-1.0125122,0.057556152
1602861125674,11,-0.18188477,-1.0125122,0.057556152
1602861125674,12,-0.18823242,-1.0620728,-0.026916504
1602861125676,13,-0.033691406,-1.0413208,0.023864746
1602861125676,14,-0.18823242,-1.0620728,-0.026916504
1602861125678,15,-0.033691406,-1.0413208,0.023864746
1602861125683,16,-0.08666992,-1.0588989,0.050231934
1602861125683,17,-0.08666992,-1.0588989,0.050231934
1602861125683,18,-0.025634766,-1.020813,0.046325684
1602861125684,19,-0.025634766,-1.020813,0.046325684
1602861125685,20,-0.039794922,-1.045227,0.08074951
1602861125693,21,-0.11254883,-1.0530396,0.03265381
1602861125694,22,-0.16040039,-1.0046997,-0.06866455
1602861125698,23,-0.039794922,-1.045227,0.08074951
1602861125700,24,-0.11254883,-1.0530396,0.03265381
1602861125701,25,-0.15844727,-1.0855103,-0.13555908
1602861125703,26,-0.16040039,-1.0046997,-0.06866455
1602861125703,27,-0.13696289,-1.0374146,-0.081848145
1602861125704,28,-0.15844727,-1.0855103,-0.13555908
1602861125704,29,-0.1743164,-1.071106,-0.066711426
1602861125705,30,-0.13696289,-1.0374146,-0.081848145
1602861125705,31,-0.09106445,-0.97906494,-0.020324707
1602861125706,32,-0.1743164,-1.071106,-0.066711426
1602861125706,33,-0.15258789,-1.0674438,-0.020080566
1602861125706,34,-0.09106445,-0.97906494,-0.020324707
1602861125707,35,-0.15258789,-1.0674438,-0.020080566
1602861125707,36,0.020019531,-1.0488892,-0.010559082
1602861125708,37,-0.068603516,-1.0376587,-0.06402588
1602861125709,38,-0.08276367,-1.0669556,-0.026916504
1602861125711,39,0.020019531,-1.0488892,-0.010559082
1602861125711,40,-0.001953125,-1.0349731,0.016296387
1602861125711,41,-0.068603516,-1.0376587,-0.06402588
1602861125711,42,-0.092285156,-1.0410767,-0.15289307
1602861125713,43,-0.05102539,-1.0293579,-0.17315674
1602861125714,44,-0.08276367,-1.0669556,-0.026916504
1602861125714,45,-0.095458984,-1.0403442,-0.15557861
1602861125715,46,-0.001953125,-1.0349731,0.016296387
1602861125715,47,-0.1303711,-1.0151978,-0.16241455
1602861125716,48,-0.092285156,-1.0410767,-0.15289307
1602861125718,49,-0.05102539,-1.0293579,-0.17315674
1602861125718,50,-0.14379883,-1.0234985,-0.15631104
1602861125719,51,-0.15039062,-1.0628052,-0.14019775
1602861125719,52,-0.095458984,-1.0403442,-0.15557861
1602861125720,53,-0.14477539,-1.0425415,-0.14849854
1602861125721,54,-0.1303711,-1.0151978,-0.16241455
1602861125722,55,-0.19311523,-0.9846802,-0.16973877
1602861125722,56,-0.14379883,-1.0234985,-0.15631104
1602861125724,57,-0.15039062,-1.0628052,-0.14019775
1602861125725,58,-0.18139648,-1.0361938,-0.13995361
1602861125725,59,-0.14477539,-1.0425415,-0.14849854
1602861125725,60,-0.13549805,-1.0652466,-0.1572876
1602861125725,61,-0.19311523,-0.9846802,-0.16973877
1602861125726,62,-0.18139648,-1.0361938,-0.13995361
1602861125727,63,-0.13549805,-1.0652466,-0.1572876
1602861128192,64,-0.19262695,-1.0491333,-0.21661377
1602861128192,65,-0.19262695,-1.0491333,-0.21661377
1602861128197,66,-0.09765625,-0.9927368,-0.22320557
1602861128197,67,-0.029296875,-1.0930786,-0.33306885
1602861128198,68,-0.09765625,-0.9927368,-0.22320557
1602861128200,69,0.20654297,-0.98760986,-0.1506958
1602861128201,70,-0.029296875,-1.0930786,-0.33306885
1602861128204,71,-0.03149414,-1.1065063,-0.2053833
1602861128206,72,0.06225586,-1.0215454,-0.14703369
1602861128206,73,0.20654297,-0.98760986,-0.1506958
1602861128206,74,-0.03100586,-0.95440674,-0.09039307
1602861128207,75,-0.043701172,-1.0029907,-0.07598877
1602861128208,76,-0.059326172,-0.87506104,-0.054992676
1602861128208,77,-0.03149414,-1.1065063,-0.2053833
1602861128219,78,-0.039794922,-0.7944946,-0.043518066
1602861128219,79,0.06225586,-1.0215454,-0.14703369
1602861128220,80,-0.03100586,-0.95440674,-0.09039307
1602861128220,81,-0.043701172,-1.0029907,-0.07598877
1602861128222,82,-0.059326172,-0.87506104,-0.054992676
1602861128223,83,-0.056396484,-0.9209595,-0.059631348
1602861128223,84,-0.039794922,-0.7944946,-0.043518066
1602861128224,85,-0.10107422,-1.0274048,-0.06378174
1602861128224,86,-0.056396484,-0.9209595,-0.059631348
1602861128225,87,-0.005126953,-1.0606079,-0.113342285
1602861128225,88,-0.10107422,-1.0274048,-0.06378174
1602861128226,89,0.02709961,-1.2510376,-0.5886841
1602861128226,90,-0.005126953,-1.0606079,-0.113342285
1602861128227,91,-0.14038086,-1.3655396,-0.49005127
1602861128227,92,0.02709961,-1.2510376,-0.5886841
1602861128228,93,-0.15917969,-1.0054321,-0.26568604
1602861128228,94,-0.14038086,-1.3655396,-0.49005127
1602861128228,95,-0.107421875,-1.0276489,-0.2835083
1602861128229,96,-0.15917969,-1.0054321,-0.26568604
1602861128229,97,-0.052734375,-0.73687744,-0.23638916
1602861128230,98,-0.12475586,-0.8882446,-0.20733643
1602861128230,99,-0.107421875,-1.0276489,-0.2835083
1602861128231,100,-0.19311523,-0.7185669,-0.034973145
1602861128231,101,-0.052734375,-0.73687744,-0.23638916
1602861128231,102,-0.10620117,-1.0991821,-0.1038208
1602861128232,103,-0.12475586,-0.8882446,-0.20733643
1602861128232,104,-0.14868164,-1.0923462,-0.12017822
1602861128233,105,0.16992188,-1.1997681,-0.10601807
1602861128234,106,-0.19311523,-0.7185669,-0.034973145
1602861128234,107,0.07519531,-1.3403931,-0.15240479
1602861128234,108,-0.10620117,-1.0991821,-0.1038208
1602861128235,109,0.040527344,-1.1016235,-0.19024658
1602861128235,110,-0.14868164,-1.0923462,-0.12017822
1602861128236,111,0.03955078,-0.989563,-0.15948486
1602861128236,112,0.16992188,-1.1997681,-0.10601807
1602861128236,113,-0.03881836,-0.8491821,-0.02178955
1602861128237,114,0.07519531,-1.3403931,-0.15240479
1602861128237,115,-0.0625,-0.65631104,-0.02545166
1602861128237,116,0.040527344,-1.1016235,-0.19024658
1602861128238,117,0.001953125,-0.9529419,-0.12530518
1602861128239,118,0.03955078,-0.989563,-0.15948486
1602861128240,119,-0.12524414,-1.130188,-0.15338135
1602861128243,120,-0.03881836,-0.8491821,-0.02178955
1602861128244,121,-0.0625,-0.65631104,-0.02545166
1602861128245,122,0.001953125,-0.9529419,-0.12530518
1602861128246,123,-0.12524414,-1.130188,-0.15338135
1602861128247,124,0.03881836,-1.1687622,-0.4727173
1602861128248,125,-0.110839844,-1.388977,-0.3460083
1602861128252,126,0.03881836,-1.1687622,-0.4727173
1602861128252,127,-0.110839844,-1.388977,-0.3460083
1602861130721,128,-0.16699219,-1.232727,-0.36773682
1602861130723,129,-0.16699219,-1.232727,-0.36773682
1602861130725,130,-0.13452148,-0.894104,-0.19708252
1602861130726,131,-0.10424805,-0.6724243,-0.21710205
1602861130726,132,-0.13452148,-0.894104,-0.19708252
1602861130727,133,-0.10424805,-0.6724243,-0.21710205
1602861130728,134,-0.09887695,-0.9612427,-0.15435791
1602861130730,135,-0.18359375,-0.6135864,-0.02935791
1602861130732,136,-0.09887695,-0.9612427,-0.15435791
1602861130733,137,-0.0769043,-1.0549927,-0.074279785
1602861130733,138,-0.18359375,-0.6135864,-0.02935791
1602861130733,139,0.15307617,-1.2473755,-0.13848877
1602861130735,140,0.16015625,-1.5935669,-0.16192627
1602861130735,141,-0.0769043,-1.0549927,-0.074279785
1602861130737,142,0.15307617,-1.2473755,-0.13848877
1602861130737,143,-0.0056152344,-1.0652466,-0.109680176
1602861130741,144,0.16015625,-1.5935669,-0.16192627
1602861130744,145,-0.068847656,-0.83135986,-0.007873535
1602861130744,146,-0.024169922,-0.73931885,0.0119018555
1602861130744,147,-0.049316406,-0.8484497,-0.07623291
1602861130744,148,-0.0056152344,-1.0652466,-0.109680176
1602861130744,149,-0.0026855469,-1.0671997,-0.144104
1602861130751,150,-0.068847656,-0.83135986,-0.007873535
1602861130751,151,-0.009033203,-1.1912231,-0.33355713
1602861130751,152,-0.024169922,-0.73931885,0.0119018555
1602861130751,153,-0.049316406,-0.8484497,-0.07623291
1602861130755,154,-0.18334961,-1.3650513,-0.3394165
1602861130756,155,-0.0026855469,-1.0671997,-0.144104
1602861130756,156,-0.072509766,-1.3040161,-0.23248291
1602861130757,157,-0.1459961,-0.86968994,-0.17120361
1602861130758,158,-0.009033203,-1.1912231,-0.33355713
1602861130758,159,-0.091552734,-0.7564087,-0.14630127
1602861130762,160,-0.18334961,-1.3650513,-0.3394165
1602861130763,161,-0.123535156,-0.83795166,-0.10015869
1602861130766,162,-0.072509766,-1.3040161,-0.23248291
1602861130767,163,-0.24658203,-0.9182739,-0.097473145
1602861130768,164,0.015136719,-1.0652466,-0.16705322
1602861130770,165,-0.1459961,-0.86968994,-0.17120361
1602861130770,166,0.07543945,-1.265686,-0.050354004
1602861130771,167,-0.091552734,-0.7564087,-0.14630127
1602861130772,168,0.010009766,-1.4602661,-0.14459229
1602861130773,169,-0.123535156,-0.83795166,-0.10015869
1602861130774,170,0.15307617,-1.1331177,-0.006652832
1602861130775,171,-0.083740234,-0.7937622,-0.073791504
1602861130776,172,-0.24658203,-0.9182739,-0.097473145
1602861130777,173,0.057373047,-0.71221924,0.016052246
1602861130779,174,0.015136719,-1.0652466,-0.16705322
1602861130780,175,-0.025146484,-0.8440552,-0.030578613
1602861130782,176,0.07543945,-1.265686,-0.050354004
1602861130783,177,-0.07495117,-0.8477173,-0.15631104
1602861130783,178,0.08129883,-1.2036743,-0.12799072
1602861130784,179,0.010009766,-1.4602661,-0.14459229
1602861130785,180,-0.13989258,-1.4436646,-0.43585205
1602861130786,181,0.15307617,-1.1331177,-0.006652832
1602861130787,182,-0.083740234,-0.7937622,-0.073791504
1602861130787,183,-0.013183594,-1.5232544,-0.45562744
1602861130789,184,0.057373047,-0.71221924,0.016052246
1602861130789,185,-0.27368164,-0.6890259,-0.089904785
1602861130790,186,-0.025146484,-0.8440552,-0.030578613
1602861130792,187,-0.07495117,-0.8477173,-0.15631104
1602861130793,188,0.08129883,-1.2036743,-0.12799072
1602861130794,189,-0.13989258,-1.4436646,-0.43585205
1602861130796,190,-0.013183594,-1.5232544,-0.45562744
1602861130798,191,-0.27368164,-0.6890259,-0.089904785
1602861133254,192,-0.046142578,-1.0322876,-0.28155518
1602861133255,193,-0.046142578,-1.0322876,-0.28155518
1602861133255,194,-0.11743164,-0.90802,-0.1362915
1602861133255,195,-0.11743164,-0.90802,-0.1362915
1602861133257,196,-0.1484375,-0.892395,-0.1741333
1602861133258,197,-0.1484375,-0.892395,-0.1741333
1602861133259,198,-0.14135742,-0.7319946,-0.010314941
1602861133260,199,-0.14135742,-0.7319946,-0.010314941
1602861133260,200,-0.092041016,-0.9741821,-0.14581299
1602861133261,201,-0.092041016,-0.9741821,-0.14581299
1602861133262,202,-0.15527344,-0.97052,-0.043029785
1602861133265,203,-0.15527344,-0.97052,-0.043029785
1602861133266,204,0.44702148,-1.8447876,-0.24957275
1602861133266,205,-0.14086914,-1.1831665,-0.1375122
1602861133271,206,-0.05859375,-0.8428345,0.044128418
1602861133272,207,0.44702148,-1.8447876,-0.24957275
1602861133276,208,-0.14086914,-1.1831665,-0.1375122
1602861133276,209,0.008056641,-0.59942627,0.005065918
1602861133277,210,0.08105469,-1.039856,-0.07672119
1602861133279,211,-0.092285156,-0.8196411,-0.09820557
1602861133280,212,-0.05859375,-0.8428345,0.044128418
1602861133280,213,-0.032226562,-1.3206177,6.713867E-4
1602861133281,214,-0.107910156,-0.8128052,-0.2053833
1602861133283,215,-0.0847168,-1.5593872,-0.4920044
1602861133284,216,0.008056641,-0.59942627,0.005065918
1602861133284,217,-0.047851562,-1.3911743,-0.39971924
1602861133284,218,0.08105469,-1.039856,-0.07672119
1602861133285,219,0.020751953,-0.7642212,-0.18121338
1602861133286,220,-0.092285156,-0.8196411,-0.09820557
1602861133287,221,-0.07006836,-0.92755127,-0.16070557
1602861133288,222,-0.16015625,-0.98223877,-0.21710205
1602861133288,223,-0.032226562,-1.3206177,6.713867E-4
1602861133289,224,-0.19116211,-1.0925903,-0.20025635
1602861133289,225,-0.107910156,-0.8128052,-0.2053833
1602861133290,226,-0.05078125,-1.1365356,-0.15875244
1602861133291,227,0.37451172,-1.092102,-0.30181885
1602861133292,228,-0.0847168,-1.5593872,-0.4920044
1602861133293,229,-0.047851562,-1.3911743,-0.39971924
1602861133294,230,0.011474609,-1.133606,-0.39556885
1602861133294,231,0.020751953,-0.7642212,-0.18121338
1602861133296,232,-0.07006836,-0.92755127,-0.16070557
1602861133296,233,0.14819336,-0.895813,-0.14898682
1602861133297,234,-0.16015625,-0.98223877,-0.21710205
1602861133298,235,-0.05859375,-0.95684814,-0.17779541
1602861133299,236,-0.19116211,-1.0925903,-0.20025635
1602861133299,237,-0.004638672,-0.9048462,0.007019043
1602861133299,238,-0.05078125,-1.1365356,-0.15875244
1602861133301,239,-0.0017089844,-1.0713501,0.0021362305
1602861133301,240,0.37451172,-1.092102,-0.30181885
1602861133302,241,-0.10668945,-1.1538696,-0.07525635
1602861133303,242,0.011474609,-1.133606,-0.39556885
1602861133303,243,0.32666016,-1.1819458,-0.16217041
1602861133303,244,0.14819336,-0.895813,-0.14898682
1602861133305,245,-0.05859375,-0.95684814,-0.17779541
1602861133305,246,-0.030761719,-0.94903564,-0.46124268
1602861133306,247,-0.004638672,-0.9048462,0.007019043
1602861133307,248,0.10083008,-0.9993286,-0.25177002
1602861133307,249,-0.0017089844,-1.0713501,0.0021362305
1602861133307,250,-0.13623047,-0.9751587,-0.31036377
1602861133308,251,-0.10668945,-1.1538696,-0.07525635
1602861133309,252,0.32666016,-1.1819458,-0.16217041
1602861133310,253,-0.030761719,-0.94903564,-0.46124268
1602861133311,254,0.10083008,-0.9993286,-0.25177002
1602861133312,255,-0.13623047,-0.9751587,-0.31036377
1602861135791,256,-0.08203125,-0.9656372,-0.18536377
1602861135791,257,-0.08203125,-0.9656372,-0.18536377
1602861135793,258,-0.26489258,-0.973938,-0.20513916
1602861135793,259,-0.26489258,-0.973938,-0.20513916
1602861135794,260,-0.09326172,-0.99468994,-0.17242432
1602861135795,261,-0.09326172,-0.99468994,-0.17242432
1602861135796,262,-0.09838867,-1.0708618,-0.2564087
1602861135796,263,-0.09838867,-1.0708618,-0.2564087
1602861135797,264,-0.028564453,-1.3345337,-0.3213501
1602861135798,265,-0.028564453,-1.3345337,-0.3213501
1602861135799,266,0.07788086,-0.9053345,-0.17510986
1602861135799,267,0.15551758,-1.0576782,-0.101867676
1602861135800,268,0.07788086,-0.9053345,-0.17510986
1602861135800,269,0.0031738281,-0.9534302,-0.14215088
1602861135801,270,0.15551758,-1.0576782,-0.101867676
1602861135801,271,0.09741211,-0.94073486,-0.04058838
1602861135803,272,0.03100586,-1.0090942,-0.05621338
1602861135803,273,0.0031738281,-0.9534302,-0.14215088
1602861135803,274,0.09741211,-0.94073486,-0.04058838
1602861135805,275,0.056884766,-0.98687744,-0.016906738
1602861135806,276,0.03100586,-1.0090942,-0.05621338
1602861135806,277,0.056884766,-0.98687744,-0.016906738
1602861135806,278,-0.028320312,-1.081604,0.009216309
1602861135808,279,-0.028320312,-1.081604,0.009216309
1602861135808,280,-0.033447266,-1.1255493,0.049987793
1602861135810,281,-0.033447266,-1.1255493,0.049987793
1602861135810,282,0.1652832,-1.2319946,-0.15655518
1602861135813,283,-0.039794922,-0.82769775,-0.38067627
1602861135813,284,0.1652832,-1.2319946,-0.15655518
1602861135813,285,0.12939453,-1.2532349,-0.33551025
1602861135813,286,-0.039794922,-0.82769775,-0.38067627
1602861135813,287,-0.056884766,-0.84576416,-0.24395752
1602861135815,288,0.008544922,-0.88482666,-0.25177002
1602861135815,289,0.12939453,-1.2532349,-0.33551025
1602861135817,290,-0.055908203,-0.9578247,-0.21783447
1602861135817,291,-0.056884766,-0.84576416,-0.24395752
1602861135819,292,0.008544922,-0.88482666,-0.25177002
1602861135819,293,-0.10595703,-0.63897705,-0.07550049
1602861135821,294,-0.16455078,-0.9661255,-0.09161377
1602861135821,295,-0.055908203,-0.9578247,-0.21783447
1602861135823,296,0.052246094,-1.0112915,-0.18487549
1602861135824,297,-0.10595703,-0.63897705,-0.07550049
1602861135824,298,-0.16455078,-0.9661255,-0.09161377
1602861135824,299,0.24047852,-1.5691528,-0.047668457
1602861135824,300,0.052246094,-1.0112915,-0.18487549
1602861135824,301,-0.09887695,-1.1455688,-0.16534424
1602861135825,302,0.24047852,-1.5691528,-0.047668457
1602861135826,303,0.16015625,-1.1282349,0.046569824
1602861135826,304,-0.09887695,-1.1455688,-0.16534424
1602861135828,305,0.16015625,-1.1282349,0.046569824
1602861135828,306,-0.068603516,-0.6704712,-0.02130127
1602861135828,307,0.005859375,-0.72735596,0.042907715
1602861135829,308,-0.029296875,-1.0027466,-0.15386963
1602861135829,309,-0.068603516,-0.6704712,-0.02130127
1602861135830,310,0.005859375,-0.72735596,0.042907715
1602861135831,311,0.1328125,-1.1621704,-0.11846924
1602861135831,312,-0.029296875,-1.0027466,-0.15386963
1602861135832,313,-0.04345703,-1.3103638,-0.37457275
1602861135832,314,0.1328125,-1.1621704,-0.11846924
1602861135833,315,-0.04345703,-1.3103638,-0.37457275
1602861135834,316,-0.18823242,-1.1489868,-0.24346924
1602861135834,317,-0.18823242,-1.1489868,-0.24346924
1602861135835,318,-0.027832031,-1.3762817,-0.32867432
1602861135835,319,-0.027832031,-1.3762817,-0.32867432
1602861138526,320,-0.23632812,-0.65997314,-0.13311768
1602861138530,321,-0.23632812,-0.65997314,-0.13311768
1602861138530,322,-0.068115234,-0.9146118,-0.18585205
1602861138531,323,-0.18139648,-0.7896118,-0.051086426
1602861138531,324,-0.068115234,-0.9146118,-0.18585205
1602861138531,325,-0.016357422,-0.9324341,-0.10089111
1602861138534,326,-0.15307617,-1.0647583,-0.06573486
1602861138539,327,-0.18139648,-0.7896118,-0.051086426
1602861138540,328,0.20776367,-1.1802368,-0.1350708
1602861138540,329,0.11791992,-1.6707153,-0.33062744
1602861138540,330,-0.016357422,-0.9324341,-0.10089111
1602861138540,331,-0.14941406,-0.9624634,-0.09869385
1602861138540,332,-0.15307617,-1.0647583,-0.06573486
1602861138540,333,0.20776367,-1.1802368,-0.1350708
1602861138540,334,0.099853516,-0.8184204,0.046813965
1602861138540,335,0.11791992,-1.6707153,-0.33062744
1602861138540,336,-0.14941406,-0.9624634,-0.09869385
1602861138541,337,-0.111083984,-0.829895,-0.06329346
1602861138541,338,0.099853516,-0.8184204,0.046813965
1602861138542,339,-0.02368164,-0.78912354,-0.03765869
1602861138542,340,-0.22143555,-0.8867798,-0.12579346
1602861138542,341,-0.111083984,-0.829895,-0.06329346
1602861138542,342,-0.02368164,-0.78912354,-0.03765869
1602861138542,343,0.18530273,-1.2527466,-0.07867432
1602861138543,344,-0.22143555,-0.8867798,-0.12579346
1602861138543,345,-0.23779297,-1.1575317,-0.46417236
1602861138543,346,0.18530273,-1.2527466,-0.07867432
1602861138545,347,-0.19384766,-1.3601685,-0.3875122
1602861138546,348,-0.23779297,-1.1575317,-0.46417236
1602861138546,349,-0.19384766,-1.3601685,-0.3875122
1602861138546,350,-0.16577148,-1.1482544,-0.27764893
1602861138546,351,-0.16577148,-1.1482544,-0.27764893
1602861138547,352,-0.104003906,-0.9644165,-0.20220947
1602861138547,353,-0.104003906,-0.9644165,-0.20220947
1602861138548,354,-0.19335938,-0.7776489,-0.24957275
1602861138548,355,-0.19335938,-0.7776489,-0.24957275
1602861138550,356,-0.122558594,-0.95513916,-0.2119751
1602861138550,357,-0.122558594,-0.95513916,-0.2119751
1602861138551,358,-0.16259766,-0.7415161,-0.08477783
1602861138551,359,-0.16259766,-0.7415161,-0.08477783
1602861138552,360,-0.12670898,-0.80303955,-0.09210205
1602861138552,361,-0.12670898,-0.80303955,-0.09210205
1602861138552,362,-0.039794922,-1.0430298,-0.17340088
1602861138552,363,-0.039794922,-1.0430298,-0.17340088
1602861138553,364,0.14916992,-1.5588989,-0.077697754
1602861138553,365,0.14916992,-1.5588989,-0.077697754
1602861138554,366,0.20288086,-1.4932251,0.00970459
1602861138554,367,0.20288086,-1.4932251,0.00970459
1602861138555,368,-0.11425781,-0.9360962,-0.08648682
1602861138555,369,-0.11425781,-0.9360962,-0.08648682
1602861138556,370,0.036865234,-0.79571533,-0.0029907227
1602861138556,371,0.036865234,-0.79571533,-0.0029907227
1602861138556,372,0.038330078,-0.8550415,0.066345215
1602861138556,373,0.038330078,-0.8550415,0.066345215
1602861138557,374,-0.05810547,-0.84039307,-0.015930176
1602861138557,375,-0.05810547,-0.84039307,-0.015930176
1602861138558,376,-0.13989258,-0.84039307,-0.06719971
1602861138559,377,-0.13989258,-0.84039307,-0.06719971
1602861138559,378,-0.05883789,-1.0010376,-0.05279541
1602861138559,379,-0.05883789,-1.0010376,-0.05279541
1602861138560,380,-0.11425781,-1.3931274,-0.5840454
1602861138560,381,-0.11425781,-1.3931274,-0.5840454
1602861138561,382,-0.11791992,-1.5894165,-0.45220947
1602861138561,383,-0.11791992,-1.5894165,-0.45220947
1602861141059,384,-0.19238281,-0.7078247,-0.078186035
1602861141061,385,-0.19238281,-0.7078247,-0.078186035
1602861141062,386,-0.06616211,-1.1726685,-0.38311768
1602861141066,387,-0.06616211,-1.1726685,-0.38311768
1602861141066,388,-0.22314453,-0.82647705,-0.18707275
1602861141067,389,-0.22314453,-0.82647705,-0.18707275
1602861141069,390,-0.21801758,-1.000061,-0.34014893
1602861141074,391,-0.21801758,-1.000061,-0.34014893
1602861141074,392,0.022705078,-1.0652466,-0.2852173
1602861141074,393,0.022705078,-1.0652466,-0.2852173
1602861141074,394,-0.079589844,-1.2612915,-0.43341064
1602861141083,395,-0.079589844,-1.2612915,-0.43341064
1602861141083,396,0.28051758,-1.0127563,-0.2522583
1602861141085,397,0.02319336,-1.05719,-0.22052002
1602861141097,398,0.28051758,-1.0127563,-0.2522583
1602861141098,399,0.02319336,-1.05719,-0.22052002
1602861141100,400,0.11450195,-0.8389282,-0.14849854
1602861141101,401,0.11450195,-0.8389282,-0.14849854
1602861141103,402,-0.012207031,-0.92266846,-0.030334473
1602861141103,403,-0.012207031,-0.92266846,-0.030334473
1602861141104,404,0.045898438,-0.8484497,-0.02130127
1602861141104,405,0.045898438,-0.8484497,-0.02130127
1602861141105,406,-0.04321289,-1.2485962,-0.0569458
1602861141106,407,-0.04321289,-1.2485962,-0.0569458
1602861141107,408,0.15185547,-1.2927856,-0.24932861
1602861141107,409,0.15185547,-1.2927856,-0.24932861
1602861141107,410,-0.010498047,-0.87994385,-0.2300415
1602861141108,411,-0.010498047,-0.87994385,-0.2300415
1602861141109,412,0.13793945,-1.0559692,-0.45367432
1602861141109,413,0.13793945,-1.0559692,-0.45367432
1602861141109,414,-0.05859375,-1.1001587,-0.30010986
1602861141109,415,-0.05859375,-1.1001587,-0.30010986
1602861141110,416,-0.19750977,-0.8555298,-0.2649536
1602861141111,417,-0.19750977,-0.8555298,-0.2649536
1602861141112,418,-0.060302734,-0.8845825,-0.22027588
1602861141112,419,-0.060302734,-0.8845825,-0.22027588
1602861141113,420,-0.18261719,-0.98809814,-0.27471924
1602861141114,421,-0.18261719,-0.98809814,-0.27471924
1602861141114,422,-0.16699219,-1.0325317,-0.35601807
1602861141115,423,-0.16699219,-1.0325317,-0.35601807
1602861141116,424,0.36987305,-1.15802,-0.21417236
1602861141117,425,0.36987305,-1.15802,-0.21417236
1602861141117,426,-0.10546875,-1.326477,-0.3274536
1602861141117,427,-0.10546875,-1.326477,-0.3274536
1602861141118,428,0.28149414,-0.6958618,-0.008850098
1602861141118,429,0.28149414,-0.6958618,-0.008850098
1602861141120,430,-0.11987305,-0.97857666,-0.12677002
1602861141120,431,-0.11987305,-0.97857666,-0.12677002
1602861141120,432,0.15893555,-0.92388916,0.014343262
1602861141120,433,0.15893555,-0.92388916,0.014343262
1602861141121,434,-0.11352539,-1.0960083,-0.042541504
1602861141121,435,-0.11352539,-1.0960083,-0.042541504
1602861141124,436,-0.111572266,-1.1443481,0.03729248
1602861141124,437,-0.111572266,-1.1443481,0.03729248
1602861141124,438,-0.060058594,-0.96954346,0.023376465
1602861141125,439,-0.060058594,-0.96954346,0.023376465
1602861141126,440,0.46777344,-1.1611938,-0.33502197
1602861141126,441,0.46777344,-1.1611938,-0.33502197
1602861141127,442,-0.095214844,-1.0354614,-0.3213501
1602861141127,443,-0.095214844,-1.0354614,-0.3213501
1602861141128,444,0.06762695,-1.1004028,-0.2617798
1602861141129,445,0.06762695,-1.1004028,-0.2617798
1602861141129,446,-0.0690918,-0.8772583,-0.1519165
1602861141129,447,-0.0690918,-0.8772583,-0.1519165
1602861143595,448,-0.017333984,-0.9663696,-0.31158447
1602861143596,449,-0.017333984,-0.9663696,-0.31158447
1602861143597,450,-0.15625,-0.87750244,-0.14263916
1602861143597,451,-0.15625,-0.87750244,-0.14263916
1602861143599,452,-0.095703125,-0.69000244,-0.10430908
1602861143600,453,-0.095703125,-0.69000244,-0.10430908
1602861143603,454,-0.115478516,-0.8262329,-0.034484863
1602861143603,455,-0.115478516,-0.8262329,-0.034484863
1602861143605,456,-0.115234375,-1.0291138,-0.22711182
1602861143605,457,-0.115234375,-1.0291138,-0.22711182
1602861143610,458,0.1586914,-1.260315,-0.12335205
1602861143610,459,0.24267578,-1.7192993,-0.23687744
1602861143610,460,0.1586914,-1.260315,-0.12335205
1602861143610,461,-0.06274414,-0.98883057,-0.11846924
1602861143611,462,0.24267578,-1.7192993,-0.23687744
1602861143611,463,-0.07006836,-0.74420166,-0.053527832
1602861143612,464,-0.06274414,-0.98883057,-0.11846924
1602861143616,465,-0.07006836,-0.74420166,-0.053527832
1602861143616,466,-4.8828125E-4,-0.58258057,-0.0015258789
1602861143616,467,-4.8828125E-4,-0.58258057,-0.0015258789
1602861143619,468,-0.0715332,-0.8694458,-0.085510254
1602861143620,469,-0.0715332,-0.8694458,-0.085510254
1602861143620,470,0.041015625,-1.1130981,-0.16534424
1602861143620,471,0.051513672,-1.1655884,-0.25982666
1602861143620,472,0.041015625,-1.1130981,-0.16534424
1602861143621,473,-0.0637207,-1.3677368,-0.55792236
1602861143622,474,0.051513672,-1.1655884,-0.25982666
1602861143623,475,-0.033935547,-1.1782837,-0.2456665
1602861143623,476,-0.0637207,-1.3677368,-0.55792236
1602861143624,477,-0.18579102,-0.8843384,-0.25299072
1602861143625,478,-0.033935547,-1.1782837,-0.2456665
1602861143627,479,0.103759766,-0.861145,-0.15826416
1602861143627,480,-0.18579102,-0.8843384,-0.25299072
1602861143628,481,0.103759766,-0.861145,-0.15826416
1602861143628,482,-0.16674805,-0.7842407,-0.17218018
1602861143629,483,-0.12841797,-0.9522095,-0.16900635
1602861143629,484,-0.16674805,-0.7842407,-0.17218018
1602861143631,485,0.1328125,-0.95440674,-0.08892822
1602861143632,486,-0.12841797,-0.9522095,-0.16900635
1602861143633,487,0.12817383,-1.6160278,-0.21270752
1602861143635,488,0.118652344,-1.1870728,-0.06890869
1602861143635,489,0.1328125,-0.95440674,-0.08892822
1602861143636,490,-0.07885742,-0.6321411,-0.034240723
1602861143636,491,0.12817383,-1.6160278,-0.21270752
1602861143638,492,0.043701172,-0.96221924,-0.03741455
1602861143639,493,-0.045654297,-0.8040161,-0.10284424
1602861143640,494,0.118652344,-1.1870728,-0.06890869
1602861143643,495,-9.765625E-4,-1.1528931,-0.23809814
1602861143644,496,-0.07885742,-0.6321411,-0.034240723
1602861143645,497,0.115478516,-1.2485962,-0.4985962
1602861143645,498,0.043701172,-0.96221924,-0.03741455
1602861143646,499,-0.28222656,-1.1499634,-0.3796997
1602861143647,500,-0.045654297,-0.8040161,-0.10284424
1602861143648,501,0.020019531,-1.3787231,-0.30303955
1602861143648,502,-9.765625E-4,-1.1528931,-0.23809814
1602861143648,503,-0.11401367,-0.6946411,-0.19830322
1602861143649,504,0.115478516,-1.2485962,-0.4985962
1602861143649,505,-0.109375,-0.78985596,-0.1531372
1602861143650,506,-0.19335938,-0.7984009,-0.10723877
1602861143650,507,-0.28222656,-1.1499634,-0.3796997
1602861143652,508,0.020019531,-1.3787231,-0.30303955
1602861143653,509,-0.11401367,-0.6946411,-0.19830322
1602861143654,510,-0.109375,-0.78985596,-0.1531372
1602861143655,511,-0.19335938,-0.7984009,-0.10723877
1602861146137,512,-0.03564453,-1.0842896,-0.08721924
1602861146137,513,0.0637207,-1.1797485,-0.1453247
1602861146140,514,-0.03564453,-1.0842896,-0.08721924
1602861146140,515,0.15942383,-1.4297485,-0.12945557
1602861146141,516,0.12963867,-1.2410278,-0.09454346
1602861146144,517,0.0637207,-1.1797485,-0.1453247
1602861146147,518,-0.15625,-0.74468994,-0.15582275
1602861146147,519,0.15942383,-1.4297485,-0.12945557
1602861146148,520,0.12963867,-1.2410278,-0.09454346
1602861146148,521,0.15429688,-0.81085205,0.10858154
1602861146149,522,-0.15625,-0.74468994,-0.15582275
1602861146152,523,0.15429688,-0.81085205,0.10858154
1602861146153,524,-0.095214844,-0.55133057,-0.14068604
1602861146153,525,-0.095214844,-0.55133057,-0.14068604
1602861146154,526,0.078125,-1.1116333,-0.10235596
1602861146156,527,-0.024414062,-1.1101685,-0.42730713
1602861146156,528,0.078125,-1.1116333,-0.10235596
1602861146156,529,-0.052246094,-1.43219,-0.54400635
1602861146158,530,-0.024414062,-1.1101685,-0.42730713
1602861146160,531,-0.052246094,-1.43219,-0.54400635
1602861146160,532,0.009033203,-1.4260864,-0.3633423
1602861146162,533,-0.1550293,-0.74957275,-0.18756104
1602861146163,534,-0.029052734,-0.7883911,-0.17706299
1602861146164,535,0.009033203,-1.4260864,-0.3633423
1602861146165,536,-0.20483398,-0.8430786,-0.094055176
1602861146166,537,-0.1550293,-0.74957275,-0.18756104
1602861146166,538,-0.072021484,-0.9898071,-0.14385986
1602861146167,539,-0.029052734,-0.7883911,-0.17706299
1602861146168,540,-0.16308594,-0.9221802,-0.15264893
1602861146171,541,-0.20483398,-0.8430786,-0.094055176
1602861146172,542,0.26538086,-1.4234009,-0.051574707
1602861146174,543,0.0029296875,-1.3223267,-0.25616455
1602861146175,544,-0.072021484,-0.9898071,-0.14385986
1602861146175,545,0.17602539,-1.1443481,0.014831543
1602861146176,546,-0.096191406,-0.7029419,-0.08795166
1602861146176,547,-0.16308594,-0.9221802,-0.15264893
1602861146177,548,0.037353516,-0.68463135,-0.0256958
1602861146178,549,0.26538086,-1.4234009,-0.051574707
1602861146178,550,-0.063964844,-0.8648071,-0.06451416
1602861146181,551,0.0029296875,-1.3223267,-0.25616455
1602861146181,552,0.01953125,-1.2022095,-0.22613525
1602861146182,553,0.17602539,-1.1443481,0.014831543
1602861146182,554,-0.049804688,-1.0410767,-0.25274658
1602861146183,555,-0.032226562,-1.4221802,-0.550354
1602861146183,556,-0.096191406,-0.7029419,-0.08795166
1602861146184,557,0.037353516,-0.68463135,-0.0256958
1602861146184,558,-0.13256836,-1.1362915,-0.38482666
1602861146185,559,-0.063964844,-0.8648071,-0.06451416
1602861146186,560,-0.15795898,-0.9507446,-0.33892822
1602861146187,561,0.01953125,-1.2022095,-0.22613525
1602861146189,562,-0.020507812,-1.0007935,-0.16802979
1602861146189,563,-0.049804688,-1.0410767,-0.25274658
1602861146190,564,-0.032226562,-1.4221802,-0.550354
1602861146190,565,-0.14257812,-0.74053955,-0.22393799
1602861146191,566,-0.13256836,-1.1362915,-0.38482666
1602861146191,567,-0.16723633,-0.79571533,-0.077697754
1602861146192,568,-0.05419922,-0.9714966,-0.16339111
1602861146193,569,-0.15795898,-0.9507446,-0.33892822
1602861146193,570,-0.17089844,-0.9512329,-0.17730713
1602861146194,571,-0.020507812,-1.0007935,-0.16802979
1602861146195,572,-0.14257812,-0.74053955,-0.22393799
1602861146197,573,-0.16723633,-0.79571533,-0.077697754
1602861146198,574,-0.05419922,-0.9714966,-0.16339111
1602861146198,575,-0.17089844,-0.9512329,-0.17730713
1602861148716,576,0.15698242,-1.5859985,-0.017150879
1602861148717,577,0.15698242,-1.5859985,-0.017150879
1602861148717,578,0.18920898,-1.3833618,-0.19317627
1602861148717,579,0.0925293,-1.0759888,-0.07110596
1602861148718,580,0.18920898,-1.3833618,-0.19317627
1602861148718,581,0.0041503906,-0.71759033,0.028259277
1602861148719,582,0.0925293,-1.0759888,-0.07110596
1602861148719,583,0.11279297,-0.8982544,-0.023498535
1602861148721,584,-0.11743164,-1.2127075,-0.089660645
1602861148721,585,0.0041503906,-0.71759033,0.028259277
1602861148723,586,0.11279297,-0.8982544,-0.023498535
1602861148723,587,-0.038085938,-1.1419067,-0.039123535
1602861148724,588,-0.11743164,-1.2127075,-0.089660645
1602861148724,589,0.3852539,-1.2232056,-0.4385376
1602861148725,590,-0.038085938,-1.1419067,-0.039123535
1602861148725,591,-0.008544922,-0.7798462,-0.47686768
1602861148726,592,0.3852539,-1.2232056,-0.4385376
1602861148727,593,-0.008544922,-0.7798462,-0.47686768
1602861148727,594,0.11450195,-1.1992798,-0.3567505
1602861148728,595,0.11450195,-1.1992798,-0.3567505
1602861148728,596,-0.10498047,-0.83843994,-0.37091064
1602861148729,597,-0.10498047,-0.83843994,-0.37091064
1602861148730,598,-0.08496094,-0.9402466,-0.26934814
1602861148730,599,-0.08496094,-0.9402466,-0.26934814
1602861148731,600,-0.3076172,-0.989563,-0.1873169
1602861148731,601,-0.3076172,-0.989563,-0.1873169
1602861148732,602,-0.22607422,-1.0525513,-0.10064697
1602861148732,603,-0.22607422,-1.0525513,-0.10064697
1602861148733,604,-0.13696289,-1.0896606,-0.16314697
1602861148734,605,-0.13696289,-1.0896606,-0.16314697
1602861148734,606,0.1550293,-1.265686,-0.31036377
1602861148734,607,0.1550293,-1.265686,-0.31036377
1602861148737,608,0.06298828,-1.0027466,-0.41705322
1602861148738,609,0.06298828,-1.0027466,-0.41705322
1602861148738,610,0.12670898,-1.107727,-0.13165283
1602861148738,611,0.12670898,-1.107727,-0.13165283
1602861148740,612,-0.17016602,-0.8135376,-0.2810669
1602861148740,613,-0.17016602,-0.8135376,-0.2810669
1602861148740,614,0.07373047,-1.008606,-0.02520752
1602861148740,615,0.07373047,-1.008606,-0.02520752
1602861148741,616,-0.12231445,-0.9378052,-0.13189697
1602861148742,617,-0.12231445,-0.9378052,-0.13189697
1602861148742,618,-0.0031738281,-0.9746704,0.039733887
1602861148743,619,-0.19799805,-1.1216431,-0.070617676
1602861148743,620,-0.0031738281,-0.9746704,0.039733887
1602861148744,621,-0.19799805,-1.1216431,-0.070617676
1602861148744,622,-0.01586914,-1.2192993,-0.019104004
1602861148745,623,-0.01586914,-1.2192993,-0.019104004
1602861148746,624,0.16455078,-1.0647583,-0.36724854
1602861148746,625,0.16455078,-1.0647583,-0.36724854
1602861148747,626,-0.13574219,-0.86676025,-0.30596924
1602861148748,627,-0.13574219,-0.86676025,-0.30596924
1602861148748,628,-0.015136719,-1.1838989,-0.30621338
1602861148748,629,-0.015136719,-1.1838989,-0.30621338
1602861148749,630,-0.08666992,-0.88482666,-0.20806885
1602861148750,631,-0.08666992,-0.88482666,-0.20806885
1602861148750,632,-0.13134766,-1.0078735,-0.22247314
1602861148751,633,-0.13134766,-1.0078735,-0.22247314
1602861148753,634,-0.10595703,-0.9470825,-0.22076416
1602861148753,635,-0.10595703,-0.9470825,-0.22076416
1602861148755,636,-0.14477539,-0.8574829,-0.12872314
1602861148755,637,-0.14477539,-0.8574829,-0.12872314
1602861148756,638,-0.15942383,-0.86968994,-0.07354736
1602861148756,639,-0.15942383,-0.86968994,-0.07354736
1602861151209,640,-0.21655273,-0.86016846,-0.054016113
1602861151211,641,-0.21655273,-0.86016846,-0.054016113
1602861151211,642,-0.17138672,-1.0090942,-0.13775635
1602861151217,643,-0.17138672,-1.0090942,-0.13775635
1602861151217,644,-0.0703125,-1.0266724,-0.039855957
1602861151218,645,0.22680664,-1.5046997,-0.21710205
1602861151223,646,-0.0703125,-1.0266724,-0.039855957
1602861151223,647,0.049316406,-1.3599243,-0.22442627
1602861151223,648,0.22680664,-1.5046997,-0.21710205
1602861151226,649,0.049316406,-1.3599243,-0.22442627
1602861151227,650,-0.05102539,-0.95562744,-0.10723877
1602861151229,651,0.036865234,-0.74224854,-0.035217285
1602861151229,652,-0.05102539,-0.95562744,-0.10723877
1602861151231,653,-0.08081055,-0.7752075,-0.09210205
1602861151231,654,0.036865234,-0.74224854,-0.035217285
1602861151232,655,-0.013183594,-0.7908325,0.015319824
1602861151233,656,-0.08081055,-0.7752075,-0.09210205
1602861151235,657,-0.013183594,-0.7908325,0.015319824
1602861151236,658,0.0078125,-0.9692993,-0.2000122
1602861151238,659,0.0078125,-0.9692993,-0.2000122
1602861151239,660,0.033203125,-1.1946411,-0.32086182
1602861151242,661,0.033203125,-1.1946411,-0.32086182
1602861151243,662,-0.08984375,-1.4819946,-0.5864868
1602861151244,663,-0.08984375,-1.4819946,-0.5864868
1602861151246,664,-0.1743164,-1.0322876,-0.18170166
1602861151246,665,-0.1743164,-1.0322876,-0.18170166
1602861151246,666,-0.10424805,-1.2068481,-0.30523682
1602861151247,667,-0.25219727,-0.99298096,-0.19268799
1602861151248,668,-0.10424805,-1.2068481,-0.30523682
1602861151249,669,-0.08178711,-0.8670044,-0.2156372
1602861151249,670,-0.25219727,-0.99298096,-0.19268799
1602861151250,671,-0.12207031,-0.9109497,-0.2263794
1602861151251,672,-0.08178711,-0.8670044,-0.2156372
1602861151252,673,-0.075927734,-0.7251587,-0.07745361
1602861151253,674,-0.12207031,-0.9109497,-0.2263794
1602861151255,675,-0.2133789,-0.8220825,-0.0881958
1602861151255,676,-0.075927734,-0.7251587,-0.07745361
1602861151256,677,-0.026855469,-1.0567017,-0.20074463
1602861151257,678,-0.2133789,-0.8220825,-0.0881958
1602861151258,679,0.19824219,-1.4229126,-0.0051879883
1602861151259,680,-0.026855469,-1.0567017,-0.20074463
1602861151259,681,0.0017089844,-1.3447876,-0.27056885
1602861151261,682,0.19824219,-1.4229126,-0.0051879883
1602861151261,683,0.1977539,-1.3338013,-0.010803223
1602861151262,684,0.0017089844,-1.3447876,-0.27056885
1602861151263,685,-0.15600586,-0.7683716,-0.10308838
1602861151264,686,0.1652832,-0.7649536,0.051208496
1602861151264,687,0.1977539,-1.3338013,-0.010803223
1602861151265,688,-0.07299805,-0.708313,-0.024230957
1602861151266,689,-0.15600586,-0.7683716,-0.10308838
1602861151267,690,-0.034423828,-0.942688,-0.13287354
1602861151268,691,0.1652832,-0.7649536,0.051208496
1602861151269,692,-0.11254883,-1.166565,-0.10479736
1602861151269,693,-0.07299805,-0.708313,-0.024230957
1602861151270,694,0.0031738281,-1.1211548,-0.27886963
1602861151272,695,-0.034423828,-0.942688,-0.13287354
1602861151273,696,-0.17016602,-1.3010864,-0.40679932
1602861151274,697,-0.11254883,-1.166565,-0.10479736
1602861151274,698,-0.024169922,-1.2659302,-0.22198486
1602861151275,699,0.0031738281,-1.1211548,-0.27886963
1602861151275,700,-0.08520508,-1.185852,-0.33599854
1602861151278,701,-0.17016602,-1.3010864,-0.40679932
1602861151279,702,-0.024169922,-1.2659302,-0.22198486
1602861151280,703,-0.08520508,-1.185852,-0.33599854
1602861153743,704,-0.06762695,-0.7432251,-0.17926025
1602861153743,705,-0.06762695,-0.7432251,-0.17926025
1602861153745,706,-0.11645508,-0.892395,-0.28131104
1602861153746,707,-0.11645508,-0.892395,-0.28131104
1602861153747,708,-0.09375,-0.7756958,-0.11212158
1602861153747,709,-0.09375,-0.7756958,-0.11212158
1602861153747,710,-0.12231445,-0.89019775,-0.15631104
1602861153748,711,-0.12231445,-0.89019775,-0.15631104
1602861153751,712,-0.10961914,-0.98687744,-0.14093018
1602861153754,713,-0.10961914,-0.98687744,-0.14093018
1602861153755,714,0.09423828,-1.0281372,-0.15142822
1602861153759,715,0.123046875,-1.5996704,-0.18829346
1602861153759,716,0.09423828,-1.0281372,-0.15142822
1602861153760,717,0.15063477,-1.258606,-0.20172119
1602861153760,718,0.123046875,-1.5996704,-0.18829346
1602861153760,719,0.15063477,-1.258606,-0.20172119
1602861153761,720,-0.095214844,-1.0046997,-0.06744385
1602861153761,721,-0.095214844,-1.0046997,-0.06744385
1602861153765,722,0.009277344,-0.8731079,-0.018615723
1602861153765,723,0.009277344,-0.8731079,-0.018615723
1602861153766,724,-0.036132812,-0.5977173,-0.04522705
1602861153767,725,-0.036132812,-0.5977173,-0.04522705
1602861153768,726,0.044677734,-0.819397,-0.028625488
1602861153768,727,-0.07714844,-1.2420044,-0.14263916
1602861153770,728,0.044677734,-0.819397,-0.028625488
1602861153770,729,-0.03881836,-1.0025024,-0.15753174
1602861153772,730,-0.07714844,-1.2420044,-0.14263916
1602861153772,731,-0.19067383,-1.1292114,-0.33770752
1602861153773,732,-0.03881836,-1.0025024,-0.15753174
1602861153780,733,0.106933594,-1.5371704,-0.6487427
1602861153780,734,-0.19067383,-1.1292114,-0.33770752
1602861153781,735,0.106933594,-1.5371704,-0.6487427
1602861153781,736,-0.16918945,-1.0081177,-0.255188
1602861153781,737,-0.072509766,-0.9612427,-0.30841064
1602861153782,738,-0.16918945,-1.0081177,-0.255188
1602861153784,739,-0.072509766,-0.9612427,-0.30841064
1602861153785,740,-0.14794922,-0.9807739,-0.14093018
1602861153787,741,-0.08959961,-0.9282837,-0.22833252
1602861153788,742,-0.14794922,-0.9807739,-0.14093018
1602861153789,743,-0.052978516,-1.1450806,-0.23297119
1602861153790,744,-0.08959961,-0.9282837,-0.22833252
1602861153792,745,-0.2668457,-1.0413208,-0.1921997
1602861153795,746,-0.052978516,-1.1450806,-0.23297119
1602861153795,747,0.071777344,-1.1045532,-0.27471924
1602861153803,748,-0.2668457,-1.0413208,-0.1921997
1602861153803,749,0.10424805,-1.0620728,-0.2649536
1602861153804,750,0.071777344,-1.1045532,-0.27471924
1602861153808,751,0.10839844,-1.0576782,-0.25860596
1602861153811,752,0.10424805,-1.0620728,-0.2649536
1602861153811,753,-0.0021972656,-0.8579712,-0.2107544
1602861153814,754,-0.036865234,-0.9727173,-0.06817627
1602861153814,755,0.10839844,-1.0576782,-0.25860596
1602861153815,756,-0.044677734,-1.0222778,-0.08868408
1602861153816,757,-0.0021972656,-0.8579712,-0.2107544
1602861153817,758,-0.036376953,-1.0249634,-0.06402588
1602861153817,759,-0.036865234,-0.9727173,-0.06817627
1602861153818,760,-0.064208984,-1.1480103,-0.10723877
1602861153819,761,-0.044677734,-1.0222778,-0.08868408
1602861153819,762,0.31445312,-1.0869751,-0.11529541
1602861153820,763,-0.036376953,-1.0249634,-0.06402588
1602861153821,764,-0.075927734,-0.972229,-0.37286377
1602861153822,765,-0.064208984,-1.1480103,-0.10723877
1602861153823,766,0.31445312,-1.0869751,-0.11529541
1602861153824,767,-0.075927734,-0.972229,-0.37286377
1602861156266,768,0.08959961,-1.1157837,-0.0635376
1602861156268,769,0.08959961,-1.1157837,-0.0635376
1602861156269,770,-0.1484375,-1.0274048,-0.18341064
1602861156269,771,-0.1484375,-1.0274048,-0.18341064
1602861156270,772,-0.053222656,-0.9402466,-0.10015869
1602861156270,773,-0.053222656,-0.9402466,-0.10015869
1602861156272,774,-0.12182617,-0.8948364,-0.09112549
1602861156272,775,-0.12182617,-0.8948364,-0.09112549
1602861156273,776,-0.07104492,-0.8352661,-0.04498291
1602861156274,777,-0.07861328,-0.96173096,-0.07891846
1602861156274,778,-0.07104492,-0.8352661,-0.04498291
1602861156275,779,-0.20117188,-1.0325317,-0.09893799
1602861156276,780,-0.07861328,-0.96173096,-0.07891846
1602861156276,781,-0.079589844,-0.9636841,-0.09454346
1602861156277,782,-0.20117188,-1.0325317,-0.09893799
1602861156278,783,0.1940918,-1.5881958,0.09979248
1602861156278,784,-0.079589844,-0.9636841,-0.09454346
1602861156279,785,0.23071289,-1.0278931,-0.06695557
1602861156280,786,0.21582031,-1.1836548,0.046325684
1602861156281,787,-0.033935547,-0.90509033,-0.069885254
1602861156285,788,0.1940918,-1.5881958,0.09979248
1602861156285,789,0.095458984,-0.7930298,0.07171631
1602861156285,790,4.8828125E-4,-0.83721924,0.032409668
1602861156285,791,0.23071289,-1.0278931,-0.06695557
1602861156285,792,-0.07421875,-0.75909424,0.027282715
1602861156286,793,0.21582031,-1.1836548,0.046325684
1602861156288,794,0.010986328,-1.149231,-0.097961426
1602861156288,795,-0.033935547,-0.90509033,-0.069885254
1602861156288,796,0.095458984,-0.7930298,0.07171631
1602861156288,797,0.037353516,-1.2820435,-0.28985596
1602861156289,798,4.8828125E-4,-0.83721924,0.032409668
1602861156289,799,-0.07421875,-0.75909424,0.027282715
1602861156291,800,0.010986328,-1.149231,-0.097961426
1602861156292,801,-0.22241211,-1.3081665,-0.34503174
1602861156292,802,0.037353516,-1.2820435,-0.28985596
1602861156293,803,-0.14331055,-1.36969,-0.3291626
1602861156294,804,-0.22241211,-1.3081665,-0.34503174
1602861156295,805,-0.14331055,-1.36969,-0.3291626
1602861156295,806,-0.13354492,-0.7246704,-0.066711426
1602861156296,807,-0.13354492,-0.7246704,-0.066711426
1602861156297,808,-0.19750977,-0.9319458,-0.23028564
1602861156297,809,-0.19750977,-0.9319458,-0.23028564
1602861156298,810,-0.16577148,-0.9192505,-0.128479
1602861156299,811,-0.16577148,-0.9192505,-0.128479
1602861156299,812,-0.18457031,-0.8328247,-0.07305908
1602861156300,813,-0.18457031,-0.8328247,-0.07305908
1602861156300,814,-0.15893555,-0.9089966,0.0014038086
1602861156301,815,-0.15893555,-0.9089966,0.0014038086
1602861156304,816,-0.022705078,-1.0940552,-0.117492676
1602861156304,817,-0.022705078,-1.0940552,-0.117492676
1602861156305,818,-0.023925781,-1.1560669,-0.1026001
1602861156306,819,0.18334961,-1.357727,-0.09063721
1602861156306,820,-0.023925781,-1.1560669,-0.1026001
1602861156307,821,0.18334961,-1.357727,-0.09063721
1602861156307,822,-0.08544922,-1.2727661,-0.12921143
1602861156308,823,-0.030273438,-0.90631104,0.017028809
1602861156308,824,-0.08544922,-1.2727661,-0.12921143
1602861156310,825,-0.032958984,-0.83551025,-0.0022583008
1602861156310,826,-0.030273438,-0.90631104,0.017028809
1602861156310,827,-0.095458984,-0.78375244,0.012878418
1602861156310,828,-0.032958984,-0.83551025,-0.0022583008
1602861156311,829,-0.07348633,-0.89019775,-0.058898926
1602861156311,830,-0.095458984,-0.78375244,0.012878418
1602861156312,831,-0.07348633,-0.89019775,-0.058898926
1602861158998,832,-9.765625E-4,-1.0215454,-0.061584473
1602861158999,833,-9.765625E-4,-1.0215454,-0.061584473
1602861158999,834,-0.18554688,-1.1621704,-0.333313
1602861159000,835,-0.005126953,-1.348938,-0.43096924
1602861159001,836,-0.18554688,-1.1621704,-0.333313
1602861159002,837,-0.24121094,-1.3518677,-0.4290161
1602861159003,838,-0.005126953,-1.348938,-0.43096924
1602861159005,839,-0.0625,-0.8760376,-0.082336426
1602861159007,840,-0.24121094,-1.3518677,-0.4290161
1602861159008,841,-0.0625,-0.8760376,-0.082336426
1602861159009,842,-0.20166016,-0.8081665,-0.2444458
1602861159013,843,-0.20166016,-0.8081665,-0.2444458
1602861159013,844,-0.15161133,-0.94366455,-0.13922119
1602861159016,845,-0.15161133,-0.94366455,-0.13922119
1602861159017,846,-0.26049805,-0.7451782,-0.010070801
1602861159017,847,-0.26049805,-0.7451782,-0.010070801
1602861159018,848,-0.04711914,-1.0247192,-0.14093018
1602861159021,849,-0.16674805,-1.0359497,-0.08477783
1602861159021,850,-0.04711914,-1.0247192,-0.14093018
1602861159023,851,0.22729492,-1.3242798,-0.08843994
1602861159024,852,-0.011230469,-1.2947388,-0.21466064
1602861159024,853,-0.16674805,-1.0359497,-0.08477783
1602861159024,854,-0.040283203,-1.2288208,-0.10699463
1602861159026,855,0.22729492,-1.3242798,-0.08843994
1602861159027,856,-0.0625,-0.6663208,-0.06304932
1602861159027,857,-0.0068359375,-0.798645,-0.0032348633
1602861159028,858,-0.011230469,-1.2947388,-0.21466064
1602861159028,859,-0.032226562,-0.81134033,-0.046447754
1602861159029,860,-0.010253906,-1.1028442,-0.105041504
1602861159030,861,-0.040283203,-1.2288208,-0.10699463
1602861159030,862,-0.08251953,-1.1223755,-0.33966064
1602861159031,863,-0.0625,-0.6663208,-0.06304932
1602861159032,864,-0.11621094,-1.3272095,-0.4883423
1602861159033,865,0.023925781,-1.3667603,-0.3670044
1602861159034,866,-0.0068359375,-0.798645,-0.0032348633
1602861159036,867,-0.30615234,-0.8220825,-0.21099854
1602861159036,868,-0.032226562,-0.81134033,-0.046447754
1602861159036,869,-0.025634766,-0.85284424,-0.1885376
1602861159037,870,-0.010253906,-1.1028442,-0.105041504
1602861159037,871,-0.21240234,-0.7944946,-0.047180176
1602861159038,872,-0.08251953,-1.1223755,-0.33966064
1602861159039,873,-0.22070312,-0.84869385,0.007507324
1602861159039,874,-0.11621094,-1.3272095,-0.4883423
1602861159040,875,0.023925781,-1.3667603,-0.3670044
1602861159040,876,-0.033691406,-1.1170044,-0.08526611
1602861159041,877,0.048095703,-1.1350708,-0.0025024414
1602861159042,878,-0.30615234,-0.8220825,-0.21099854
1602861159043,879,0.1184082,-1.3235474,-0.07891846
1602861159044,880,-0.025634766,-0.85284424,-0.1885376
1602861159044,881,0.12231445,-1.3772583,-0.06744385
1602861159045,882,-0.21240234,-0.7944946,-0.047180176
1602861159046,883,-0.14941406,-0.77349854,-0.085510254
1602861159046,884,0.048339844,-0.7930298,0.019226074
1602861159047,885,-0.22070312,-0.84869385,0.007507324
1602861159048,886,-0.059814453,-0.7073364,-0.042297363
1602861159048,887,-0.033691406,-1.1170044,-0.08526611
1602861159051,888,-0.025878906,-1.1941528,-0.12310791
1602861159051,889,0.048095703,-1.1350708,-0.0025024414
1602861159053,890,0.1184082,-1.3235474,-0.07891846
1602861159055,891,0.12231445,-1.3772583,-0.06744385
1602861159056,892,-0.14941406,-0.77349854,-0.085510254
1602861159059,893,0.048339844,-0.7930298,0.019226074
1602861159059,894,-0.059814453,-0.7073364,-0.042297363
1602861159060,895,-0.025878906,-1.1941528,-0.12310791
