# Sensor position: Wrist
# Sensor side: Right
# Activity type: Lying down right
# Activity code: 6
# Subject id: s1660711
timestamp,seq,accel_x,accel_y,accel_z
1602856450794,0,0.4416504,-0.15118408,-0.85821533
1602856450794,1,0.4416504,-0.15118408,-0.85821533
1602856450795,2,0.44848633,-0.14801025,-0.86016846
1602856450796,3,0.44555664,-0.1519165,-0.8648071
1602856450797,4,0.44848633,-0.14801025,-0.86016846
1602856450801,5,0.44555664,-0.1519165,-0.8648071
1602856450805,6,0.44604492,-0.15093994,-0.8640747
1602856450810,7,0.44604492,-0.15093994,-0.8640747
1602856450811,8,0.44970703,-0.15240479,-0.864563
1602856450811,9,0.44970703,-0.15240479,-0.864563
1602856450812,10,0.44580078,-0.15435791,-0.8604126
1602856450812,11,0.44580078,-0.15435791,-0.8604126
1602856450812,12,0.44604492,-0.15240479,-0.86187744
1602856450820,13,0.44677734,-0.15362549,-0.8652954
1602856450821,14,0.44604492,-0.15240479,-0.86187744
1602856450821,15,0.4494629,-0.15289307,-0.861145
1602856450821,16,0.44677734,-0.15362549,-0.8652954
1602856450821,17,0.44506836,-0.1531372,-0.86383057
1602856450821,18,0.4494629,-0.15289307,-0.861145
1602856450821,19,0.4489746,-0.15411377,-0.86187744
1602856450822,20,0.44506836,-0.1531372,-0.86383057
1602856450822,21,0.45117188,-0.15582275,-0.862854
1602856450826,22,0.44848633,-0.15557861,-0.862854
1602856450828,23,0.4489746,-0.15411377,-0.86187744
1602856450830,24,0.45654297,-0.1572876,-0.8587036
1602856450831,25,0.45117188,-0.15582275,-0.862854
1602856450832,26,0.4489746,-0.15386963,-0.8587036
1602856450837,27,0.44848633,-0.15557861,-0.862854
1602856450838,28,0.45141602,-0.15362549,-0.86138916
1602856450838,29,0.45654297,-0.1572876,-0.8587036
1602856450838,30,0.4501953,-0.15533447,-0.8604126
1602856450838,31,0.4489746,-0.15386963,-0.8587036
1602856450838,32,0.44702148,-0.15509033,-0.8596802
1602856450838,33,0.45141602,-0.15362549,-0.86138916
1602856450838,34,0.45141602,-0.15484619,-0.86065674
1602856450838,35,0.4501953,-0.15533447,-0.8604126
1602856450839,36,0.4482422,-0.15460205,-0.85894775
1602856450842,37,0.44702148,-0.15509033,-0.8596802
1602856450844,38,0.45166016,-0.15167236,-0.8591919
1602856450847,39,0.45141602,-0.15484619,-0.86065674
1602856450853,40,0.45043945,-0.15435791,-0.861145
1602856450853,41,0.4482422,-0.15460205,-0.85894775
1602856450857,42,0.44799805,-0.15777588,-0.85601807
1602856450857,43,0.45166016,-0.15167236,-0.8591919
1602856450858,44,0.45166016,-0.15264893,-0.85528564
1602856450858,45,0.45043945,-0.15435791,-0.861145
1602856450859,46,0.44799805,-0.15777588,-0.85601807
1602856450859,47,0.45263672,-0.15460205,-0.8596802
1602856450860,48,0.45166016,-0.15264893,-0.85528564
1602856450860,49,0.45263672,-0.15582275,-0.8557739
1602856450860,50,0.45263672,-0.15460205,-0.8596802
1602856450861,51,0.45214844,-0.15484619,-0.83428955
1602856450861,52,0.45263672,-0.15582275,-0.8557739
1602856450864,53,0.45214844,-0.15484619,-0.83428955
1602856450864,54,0.46606445,-0.16192627,-0.86187744
1602856450864,55,0.46606445,-0.16192627,-0.86187744
1602856450864,56,0.47753906,-0.17266846,-0.85357666
1602856450866,57,0.47753906,-0.17266846,-0.85357666
1602856450867,58,0.4765625,-0.14727783,-0.8518677
1602856450867,59,0.4765625,-0.14727783,-0.8518677
1602856450867,60,0.47558594,-0.12872314,-0.85284424
1602856450867,61,0.47558594,-0.12872314,-0.85284424
1602856450871,62,0.46704102,-0.13677979,-0.8467407
1602856450871,63,0.46704102,-0.13677979,-0.8467407
1602856452934,64,0.48535156,-0.12261963,-0.8648071
1602856452934,65,0.48535156,-0.12261963,-0.8648071
1602856452938,66,0.4597168,-0.12750244,-0.8381958
1602856452939,67,0.4597168,-0.12750244,-0.8381958
1602856452941,68,0.4650879,-0.1350708,-0.8477173
1602856452941,69,0.4650879,-0.1350708,-0.8477173
1602856452942,70,0.46923828,-0.13726807,-0.8530884
1602856452943,71,0.46923828,-0.13726807,-0.8530884
1602856452945,72,0.47436523,-0.1362915,-0.8555298
1602856452945,73,0.47436523,-0.1362915,-0.8555298
1602856452946,74,0.46875,-0.1350708,-0.8508911
1602856452946,75,0.46875,-0.1350708,-0.8508911
1602856452946,76,0.4658203,-0.13580322,-0.8569946
1602856452949,77,0.45825195,-0.13433838,-0.8543091
1602856452949,78,0.4658203,-0.13580322,-0.8569946
1602856452950,79,0.46801758,-0.13653564,-0.8543091
1602856452951,80,0.45825195,-0.13433838,-0.8543091
1602856452952,81,0.46826172,-0.13531494,-0.861145
1602856452952,82,0.45947266,-0.1338501,-0.8518677
1602856452954,83,0.46142578,-0.13580322,-0.8550415
1602856452955,84,0.4633789,-0.12896729,-0.8574829
1602856452956,85,0.46801758,-0.13653564,-0.8543091
1602856452956,86,0.46240234,-0.12921143,-0.85894775
1602856452959,87,0.46826172,-0.13531494,-0.861145
1602856452959,88,0.46118164,-0.13043213,-0.8569946
1602856452960,89,0.45947266,-0.1338501,-0.8518677
1602856452960,90,0.45996094,-0.13092041,-0.8567505
1602856452964,91,0.46142578,-0.12872314,-0.8567505
1602856452964,92,0.46142578,-0.13580322,-0.8550415
1602856452965,93,0.46313477,-0.13018799,-0.8587036
1602856452965,94,0.4633789,-0.12896729,-0.8574829
1602856452967,95,0.46240234,-0.12921143,-0.85894775
1602856452968,96,0.46166992,-0.12896729,-0.861145
1602856452969,97,0.46118164,-0.13043213,-0.8569946
1602856452970,98,0.46044922,-0.12677002,-0.8591919
1602856452971,99,0.45996094,-0.13092041,-0.8567505
1602856452972,100,0.46142578,-0.12872314,-0.8567505
1602856452973,101,0.46020508,-0.12823486,-0.8543091
1602856452973,102,0.46313477,-0.13018799,-0.8587036
1602856452974,103,0.46044922,-0.12799072,-0.86065674
1602856452975,104,0.46166992,-0.12896729,-0.861145
1602856452975,105,0.46044922,-0.12750244,-0.8579712
1602856452975,106,0.46044922,-0.12677002,-0.8591919
1602856452977,107,0.46020508,-0.12823486,-0.8543091
1602856452977,108,0.45996094,-0.12628174,-0.8508911
1602856452978,109,0.46044922,-0.12799072,-0.86065674
1602856452978,110,0.45825195,-0.128479,-0.85821533
1602856452979,111,0.46044922,-0.12750244,-0.8579712
1602856452979,112,0.46118164,-0.12652588,-0.8550415
1602856452981,113,0.45996094,-0.12628174,-0.8508911
1602856452982,114,0.46191406,-0.12823486,-0.8596802
1602856452984,115,0.45825195,-0.128479,-0.85821533
1602856452984,116,0.45996094,-0.12799072,-0.8562622
1602856452985,117,0.45776367,-0.12921143,-0.85772705
1602856452986,118,0.46118164,-0.12652588,-0.8550415
1602856452986,119,0.46069336,-0.12823486,-0.85772705
1602856452987,120,0.4621582,-0.12579346,-0.8591919
1602856452988,121,0.46191406,-0.12823486,-0.8596802
1602856452989,122,0.46069336,-0.12579346,-0.8574829
1602856452991,123,0.45996094,-0.12799072,-0.8562622
1602856452992,124,0.45776367,-0.12921143,-0.85772705
1602856452993,125,0.46069336,-0.12823486,-0.85772705
1602856452993,126,0.4621582,-0.12579346,-0.8591919
1602856452994,127,0.46069336,-0.12579346,-0.8574829
1602856455465,128,0.4609375,-0.128479,-0.85772705
1602856455466,129,0.4609375,-0.128479,-0.85772705
1602856455467,130,0.46118164,-0.12823486,-0.85894775
1602856455469,131,0.46118164,-0.12823486,-0.85894775
1602856455471,132,0.46044922,-0.1260376,-0.85723877
1602856455471,133,0.4584961,-0.12677002,-0.85601807
1602856455473,134,0.45751953,-0.1260376,-0.85723877
1602856455473,135,0.46044922,-0.1260376,-0.85723877
1602856455473,136,0.46020508,-0.12310791,-0.8599243
1602856455477,137,0.45703125,-0.12799072,-0.85528564
1602856455477,138,0.4584961,-0.12677002,-0.85601807
1602856455477,139,0.4584961,-0.1260376,-0.8584595
1602856455478,140,0.45751953,-0.1260376,-0.85723877
1602856455479,141,0.4584961,-0.12310791,-0.8604126
1602856455484,142,0.45874023,-0.12408447,-0.86016846
1602856455484,143,0.46020508,-0.12310791,-0.8599243
1602856455485,144,0.4580078,-0.12237549,-0.85821533
1602856455487,145,0.45898438,-0.12359619,-0.8567505
1602856455487,146,0.46020508,-0.12164307,-0.8567505
1602856455487,147,0.45703125,-0.12799072,-0.85528564
1602856455487,148,0.45532227,-0.12310791,-0.8579712
1602856455490,149,0.4584961,-0.1260376,-0.8584595
1602856455491,150,0.45922852,-0.12310791,-0.86016846
1602856455492,151,0.45751953,-0.12408447,-0.8569946
1602856455492,152,0.4584961,-0.12310791,-0.8604126
1602856455493,153,0.46069336,-0.12310791,-0.8596802
1602856455493,154,0.45874023,-0.12408447,-0.86016846
1602856455494,155,0.45922852,-0.12506104,-0.86016846
1602856455496,156,0.4580078,-0.12237549,-0.85821533
1602856455496,157,0.46118164,-0.120910645,-0.861145
1602856455497,158,0.45898438,-0.12359619,-0.8567505
1602856455499,159,0.45898438,-0.12237549,-0.8584595
1602856455501,160,0.46020508,-0.12164307,-0.8567505
1602856455502,161,0.46166992,-0.12261963,-0.8604126
1602856455502,162,0.45776367,-0.12310791,-0.85894775
1602856455503,163,0.45532227,-0.12310791,-0.8579712
1602856455503,164,0.45947266,-0.12359619,-0.8591919
1602856455503,165,0.45922852,-0.12310791,-0.86016846
1602856455504,166,0.45751953,-0.12408447,-0.8569946
1602856455504,167,0.45874023,-0.12237549,-0.8555298
1602856455505,168,0.46240234,-0.12310791,-0.8591919
1602856455505,169,0.46069336,-0.12310791,-0.8596802
1602856455505,170,0.46020508,-0.12335205,-0.8584595
1602856455506,171,0.45922852,-0.12506104,-0.86016846
1602856455506,172,0.45996094,-0.12335205,-0.85894775
1602856455507,173,0.45874023,-0.12384033,-0.861145
1602856455508,174,0.46118164,-0.120910645,-0.861145
1602856455509,175,0.4621582,-0.12628174,-0.8584595
1602856455510,176,0.45898438,-0.12237549,-0.8584595
1602856455511,177,0.45947266,-0.12042236,-0.8584595
1602856455511,178,0.46166992,-0.12261963,-0.8604126
1602856455512,179,0.45922852,-0.12774658,-0.8591919
1602856455512,180,0.45776367,-0.12310791,-0.85894775
1602856455513,181,0.45776367,-0.121154785,-0.8574829
1602856455513,182,0.45947266,-0.12359619,-0.8591919
1602856455514,183,0.45874023,-0.12237549,-0.8555298
1602856455515,184,0.46240234,-0.12310791,-0.8591919
1602856455518,185,0.46020508,-0.12335205,-0.8584595
1602856455519,186,0.45996094,-0.12335205,-0.85894775
1602856455520,187,0.45874023,-0.12384033,-0.861145
1602856455521,188,0.4621582,-0.12628174,-0.8584595
1602856455523,189,0.45947266,-0.12042236,-0.8584595
1602856455525,190,0.45922852,-0.12774658,-0.8591919
1602856455528,191,0.45776367,-0.121154785,-0.8574829
1602856458008,192,0.45874023,-0.12554932,-0.8562622
1602856458010,193,0.45874023,-0.12554932,-0.8562622
1602856458013,194,0.45947266,-0.12530518,-0.8591919
1602856458013,195,0.45947266,-0.12530518,-0.8591919
1602856458017,196,0.46118164,-0.12530518,-0.85772705
1602856458018,197,0.46118164,-0.12530518,-0.85772705
1602856458020,198,0.4597168,-0.128479,-0.85894775
1602856458021,199,0.4597168,-0.128479,-0.85894775
1602856458022,200,0.45922852,-0.12677002,-0.85723877
1602856458026,201,0.46118164,-0.12701416,-0.8621216
1602856458027,202,0.45922852,-0.12677002,-0.85723877
1602856458028,203,0.46118164,-0.12701416,-0.8621216
1602856458032,204,0.45996094,-0.12701416,-0.8567505
1602856458033,205,0.45996094,-0.12701416,-0.8567505
1602856458034,206,0.45776367,-0.12628174,-0.8621216
1602856458036,207,0.45776367,-0.12628174,-0.8621216
1602856458036,208,0.4584961,-0.12579346,-0.85772705
1602856458037,209,0.4584961,-0.12579346,-0.85772705
1602856458038,210,0.4621582,-0.12408447,-0.85650635
1602856458038,211,0.4621582,-0.12408447,-0.85650635
1602856458040,212,0.45996094,-0.12579346,-0.8579712
1602856458041,213,0.45996094,-0.12579346,-0.8579712
1602856458042,214,0.46020508,-0.12677002,-0.8591919
1602856458042,215,0.46020508,-0.12677002,-0.8591919
1602856458045,216,0.45874023,-0.12310791,-0.8587036
1602856458049,217,0.45996094,-0.12799072,-0.8574829
1602856458050,218,0.45874023,-0.12310791,-0.8587036
1602856458050,219,0.45922852,-0.1260376,-0.8584595
1602856458050,220,0.45996094,-0.12799072,-0.8574829
1602856458050,221,0.45996094,-0.12799072,-0.85772705
1602856458050,222,0.45922852,-0.1260376,-0.8584595
1602856458050,223,0.45922852,-0.12652588,-0.85894775
1602856458050,224,0.45996094,-0.12799072,-0.85772705
1602856458052,225,0.45922852,-0.12872314,-0.8555298
1602856458052,226,0.45922852,-0.12652588,-0.85894775
1602856458052,227,0.45874023,-0.124572754,-0.8604126
1602856458053,228,0.45922852,-0.12872314,-0.8555298
1602856458054,229,0.4597168,-0.12579346,-0.85650635
1602856458055,230,0.45874023,-0.124572754,-0.8604126
1602856458056,231,0.45898438,-0.12530518,-0.8599243
1602856458056,232,0.4597168,-0.12579346,-0.85650635
1602856458057,233,0.45947266,-0.12750244,-0.85943604
1602856458057,234,0.45898438,-0.12530518,-0.8599243
1602856458058,235,0.45898438,-0.12579346,-0.8584595
1602856458059,236,0.45947266,-0.12750244,-0.85943604
1602856458060,237,0.45751953,-0.1272583,-0.85650635
1602856458061,238,0.4597168,-0.124816895,-0.8579712
1602856458061,239,0.45898438,-0.12579346,-0.8584595
1602856458062,240,0.46191406,-0.12310791,-0.85943604
1602856458063,241,0.45751953,-0.1272583,-0.85650635
1602856458064,242,0.46044922,-0.12701416,-0.85772705
1602856458064,243,0.4597168,-0.124816895,-0.8579712
1602856458065,244,0.45947266,-0.1272583,-0.8599243
1602856458065,245,0.46191406,-0.12310791,-0.85943604
1602856458066,246,0.4609375,-0.1260376,-0.85943604
1602856458067,247,0.46044922,-0.12701416,-0.85772705
1602856458068,248,0.46044922,-0.12506104,-0.8579712
1602856458068,249,0.45947266,-0.1272583,-0.8599243
1602856458070,250,0.45776367,-0.12530518,-0.8584595
1602856458070,251,0.4609375,-0.1260376,-0.85943604
1602856458070,252,0.46044922,-0.12506104,-0.8579712
1602856458071,253,0.4609375,-0.12579346,-0.86065674
1602856458072,254,0.45776367,-0.12530518,-0.8584595
1602856458073,255,0.4609375,-0.12579346,-0.86065674
1602856460548,256,0.4584961,-0.1260376,-0.8591919
1602856460549,257,0.4584961,-0.1260376,-0.8591919
1602856460549,258,0.45898438,-0.1272583,-0.85723877
1602856460555,259,0.45898438,-0.1272583,-0.85723877
1602856460555,260,0.4597168,-0.12677002,-0.8574829
1602856460559,261,0.46142578,-0.12652588,-0.85943604
1602856460559,262,0.4597168,-0.12677002,-0.8574829
1602856460560,263,0.46142578,-0.12652588,-0.85943604
1602856460565,264,0.46118164,-0.12750244,-0.85894775
1602856460568,265,0.46118164,-0.12750244,-0.85894775
1602856460569,266,0.45922852,-0.12677002,-0.8584595
1602856460571,267,0.45922852,-0.12677002,-0.8584595
1602856460574,268,0.45874023,-0.12652588,-0.8557739
1602856460575,269,0.45874023,-0.12652588,-0.8557739
1602856460576,270,0.4584961,-0.12774658,-0.8591919
1602856460578,271,0.4584961,-0.12774658,-0.8591919
1602856460579,272,0.46142578,-0.128479,-0.8587036
1602856460581,273,0.46142578,-0.128479,-0.8587036
1602856460587,274,0.4584961,-0.12628174,-0.861145
1602856460587,275,0.4584961,-0.12628174,-0.861145
1602856460588,276,0.46166992,-0.12530518,-0.8591919
1602856460589,277,0.46166992,-0.12530518,-0.8591919
1602856460589,278,0.46020508,-0.124816895,-0.85772705
1602856460590,279,0.45874023,-0.12774658,-0.8587036
1602856460595,280,0.46020508,-0.124816895,-0.85772705
1602856460596,281,0.45922852,-0.12359619,-0.85821533
1602856460597,282,0.45874023,-0.12774658,-0.8587036
1602856460602,283,0.46044922,-0.12799072,-0.85894775
1602856460602,284,0.45922852,-0.12359619,-0.85821533
1602856460603,285,0.45874023,-0.12750244,-0.85772705
1602856460604,286,0.46044922,-0.12799072,-0.85894775
1602856460604,287,0.4609375,-0.12750244,-0.8557739
1602856460610,288,0.46020508,-0.1260376,-0.8587036
1602856460610,289,0.45874023,-0.12750244,-0.85772705
1602856460612,290,0.4609375,-0.12750244,-0.8557739
1602856460612,291,0.46191406,-0.12774658,-0.8587036
1602856460614,292,0.46020508,-0.1260376,-0.8587036
1602856460615,293,0.46191406,-0.12774658,-0.8587036
1602856460615,294,0.4584961,-0.12408447,-0.8584595
1602856460616,295,0.4584961,-0.12408447,-0.8584595
1602856460617,296,0.45996094,-0.12823486,-0.8569946
1602856460618,297,0.45996094,-0.12823486,-0.8569946
1602856460618,298,0.46069336,-0.12701416,-0.8569946
1602856460621,299,0.45922852,-0.12799072,-0.8584595
1602856460622,300,0.46069336,-0.12701416,-0.8569946
1602856460622,301,0.45922852,-0.12799072,-0.8584595
1602856460624,302,0.4584961,-0.13018799,-0.85772705
1602856460624,303,0.4584961,-0.13018799,-0.85772705
1602856460624,304,0.45947266,-0.12994385,-0.85528564
1602856460626,305,0.45947266,-0.12994385,-0.85528564
1602856460626,306,0.46484375,-0.13433838,-0.8599243
1602856460627,307,0.46484375,-0.13433838,-0.8599243
1602856460630,308,0.46313477,-0.13214111,-0.8562622
1602856460631,309,0.46533203,-0.12896729,-0.8587036
1602856460631,310,0.46313477,-0.13214111,-0.8562622
1602856460632,311,0.46533203,-0.12896729,-0.8587036
1602856460632,312,0.4597168,-0.12896729,-0.85528564
1602856460635,313,0.4597168,-0.12896729,-0.85528564
1602856460635,314,0.46362305,-0.12530518,-0.8569946
1602856460637,315,0.45898438,-0.12774658,-0.8543091
1602856460637,316,0.46362305,-0.12530518,-0.8569946
1602856460639,317,0.46240234,-0.128479,-0.85528564
1602856460640,318,0.45898438,-0.12774658,-0.8543091
1602856460643,319,0.46240234,-0.128479,-0.85528564
1602856463064,320,0.46191406,-0.1272583,-0.85772705
1602856463064,321,0.46191406,-0.1272583,-0.85772705
1602856463064,322,0.46044922,-0.13140869,-0.8584595
1602856463065,323,0.46044922,-0.13140869,-0.8584595
1602856463065,324,0.46264648,-0.12921143,-0.85723877
1602856463065,325,0.46264648,-0.12921143,-0.85723877
1602856463066,326,0.45996094,-0.12823486,-0.8550415
1602856463067,327,0.45996094,-0.12823486,-0.8550415
1602856463067,328,0.45922852,-0.1272583,-0.8587036
1602856463068,329,0.45922852,-0.1272583,-0.8587036
1602856463068,330,0.4621582,-0.128479,-0.85894775
1602856463070,331,0.4621582,-0.128479,-0.85894775
1602856463071,332,0.45996094,-0.12774658,-0.8569946
1602856463071,333,0.45996094,-0.12774658,-0.8569946
1602856463072,334,0.46142578,-0.12750244,-0.85821533
1602856463072,335,0.46142578,-0.12750244,-0.85821533
1602856463073,336,0.46069336,-0.128479,-0.85723877
1602856463073,337,0.46069336,-0.128479,-0.85723877
1602856463075,338,0.4567871,-0.1272583,-0.85772705
1602856463077,339,0.46044922,-0.12677002,-0.85772705
1602856463077,340,0.4567871,-0.1272583,-0.85772705
1602856463077,341,0.4621582,-0.128479,-0.8609009
1602856463079,342,0.46044922,-0.12677002,-0.85772705
1602856463079,343,0.46142578,-0.12506104,-0.8562622
1602856463080,344,0.46362305,-0.12945557,-0.8567505
1602856463080,345,0.4621582,-0.128479,-0.8609009
1602856463081,346,0.46142578,-0.128479,-0.85528564
1602856463082,347,0.4621582,-0.12799072,-0.8562622
1602856463082,348,0.46142578,-0.12506104,-0.8562622
1602856463083,349,0.46069336,-0.1260376,-0.85894775
1602856463085,350,0.4609375,-0.1260376,-0.85723877
1602856463089,351,0.46362305,-0.12945557,-0.8567505
1602856463094,352,0.46044922,-0.12579346,-0.8550415
1602856463094,353,0.46142578,-0.128479,-0.85528564
1602856463095,354,0.4621582,-0.12799072,-0.8562622
1602856463095,355,0.46166992,-0.12872314,-0.8599243
1602856463097,356,0.46069336,-0.1260376,-0.85894775
1602856463098,357,0.46044922,-0.12750244,-0.8569946
1602856463099,358,0.4609375,-0.1260376,-0.85723877
1602856463102,359,0.46044922,-0.12579346,-0.8550415
1602856463102,360,0.46044922,-0.124816895,-0.8599243
1602856463104,361,0.45947266,-0.1272583,-0.8591919
1602856463104,362,0.46166992,-0.12872314,-0.8599243
1602856463106,363,0.4609375,-0.124572754,-0.8579712
1602856463106,364,0.46044922,-0.12750244,-0.8569946
1602856463107,365,0.4609375,-0.12994385,-0.8545532
1602856463107,366,0.46044922,-0.124816895,-0.8599243
1602856463108,367,0.45947266,-0.1272583,-0.8591919
1602856463109,368,0.46142578,-0.1272583,-0.86138916
1602856463109,369,0.4609375,-0.124572754,-0.8579712
1602856463112,370,0.45898438,-0.12872314,-0.85650635
1602856463112,371,0.4609375,-0.12994385,-0.8545532
1602856463113,372,0.46142578,-0.1272583,-0.86138916
1602856463114,373,0.45874023,-0.12579346,-0.8569946
1602856463114,374,0.45898438,-0.12872314,-0.85650635
1602856463115,375,0.45898438,-0.12701416,-0.86016846
1602856463115,376,0.45874023,-0.12579346,-0.8569946
1602856463116,377,0.46044922,-0.12799072,-0.8569946
1602856463117,378,0.45898438,-0.12701416,-0.86016846
1602856463117,379,0.46118164,-0.12774658,-0.85943604
1602856463118,380,0.46044922,-0.12799072,-0.8569946
1602856463118,381,0.46166992,-0.12310791,-0.8587036
1602856463119,382,0.46118164,-0.12774658,-0.85943604
1602856463120,383,0.46166992,-0.12310791,-0.8587036
1602856465616,384,0.46166992,-0.12408447,-0.8567505
1602856465618,385,0.4597168,-0.1296997,-0.8545532
1602856465618,386,0.46166992,-0.12408447,-0.8567505
1602856465619,387,0.46118164,-0.12408447,-0.85723877
1602856465620,388,0.4597168,-0.1296997,-0.8545532
1602856465624,389,0.45996094,-0.12701416,-0.85894775
1602856465625,390,0.46020508,-0.12799072,-0.85479736
1602856465625,391,0.46118164,-0.12408447,-0.85723877
1602856465627,392,0.46435547,-0.12530518,-0.85723877
1602856465627,393,0.45996094,-0.12701416,-0.85894775
1602856465632,394,0.46020508,-0.12799072,-0.85479736
1602856465632,395,0.4609375,-0.12799072,-0.85772705
1602856465633,396,0.46191406,-0.12677002,-0.8584595
1602856465636,397,0.46435547,-0.12530518,-0.85723877
1602856465637,398,0.45825195,-0.12506104,-0.8567505
1602856465637,399,0.4609375,-0.12799072,-0.85772705
1602856465639,400,0.4609375,-0.12628174,-0.8584595
1602856465640,401,0.45947266,-0.12506104,-0.85821533
1602856465641,402,0.46191406,-0.12677002,-0.8584595
1602856465641,403,0.46020508,-0.1260376,-0.8567505
1602856465642,404,0.45825195,-0.12506104,-0.8567505
1602856465645,405,0.46069336,-0.12896729,-0.85723877
1602856465646,406,0.4609375,-0.12628174,-0.8584595
1602856465647,407,0.4621582,-0.1272583,-0.8574829
1602856465648,408,0.45947266,-0.12506104,-0.85821533
1602856465651,409,0.45825195,-0.12628174,-0.8562622
1602856465651,410,0.46020508,-0.1260376,-0.8567505
1602856465654,411,0.46069336,-0.12896729,-0.85723877
1602856465654,412,0.46118164,-0.1272583,-0.85601807
1602856465655,413,0.4621582,-0.1272583,-0.8574829
1602856465655,414,0.46069336,-0.13018799,-0.85723877
1602856465657,415,0.45825195,-0.12628174,-0.8562622
1602856465657,416,0.46118164,-0.1272583,-0.85601807
1602856465658,417,0.46020508,-0.12335205,-0.8579712
1602856465658,418,0.46240234,-0.12628174,-0.85943604
1602856465659,419,0.46069336,-0.13018799,-0.85723877
1602856465660,420,0.4609375,-0.12530518,-0.85650635
1602856465661,421,0.46020508,-0.12335205,-0.8579712
1602856465662,422,0.4597168,-0.12896729,-0.85406494
1602856465663,423,0.46240234,-0.12628174,-0.85943604
1602856465666,424,0.46289062,-0.128479,-0.8587036
1602856465667,425,0.4609375,-0.12530518,-0.85650635
1602856465668,426,0.45922852,-0.12652588,-0.85772705
1602856465668,427,0.4597168,-0.12896729,-0.85406494
1602856465668,428,0.45874023,-0.12628174,-0.85723877
1602856465672,429,0.46289062,-0.128479,-0.8587036
1602856465672,430,0.46142578,-0.12652588,-0.85479736
1602856465673,431,0.45922852,-0.12652588,-0.85772705
1602856465676,432,0.45874023,-0.12628174,-0.85723877
1602856465677,433,0.46240234,-0.12896729,-0.8579712
1602856465677,434,0.46142578,-0.12652588,-0.85479736
1602856465678,435,0.46240234,-0.12896729,-0.8579712
1602856465680,436,0.4597168,-0.12823486,-0.8569946
1602856465680,437,0.4597168,-0.12823486,-0.8569946
1602856465681,438,0.46166992,-0.12506104,-0.8569946
1602856465683,439,0.4609375,-0.12750244,-0.85601807
1602856465684,440,0.46166992,-0.12506104,-0.8569946
1602856465685,441,0.46264648,-0.1260376,-0.85821533
1602856465685,442,0.4609375,-0.12750244,-0.85601807
1602856465687,443,0.46264648,-0.1260376,-0.85821533
1602856465688,444,0.46166992,-0.12628174,-0.8584595
1602856465690,445,0.46166992,-0.12628174,-0.8584595
1602856465691,446,0.4621582,-0.12823486,-0.8562622
1602856465692,447,0.4621582,-0.12823486,-0.8562622
1602856468153,448,0.46264648,-0.12408447,-0.85821533
1602856468153,449,0.46264648,-0.12408447,-0.85821533
1602856468153,450,0.46313477,-0.12530518,-0.8596802
1602856468156,451,0.46289062,-0.12872314,-0.85723877
1602856468156,452,0.46313477,-0.12530518,-0.8596802
1602856468158,453,0.46289062,-0.12872314,-0.85723877
1602856468158,454,0.46191406,-0.12652588,-0.8555298
1602856468159,455,0.46191406,-0.12652588,-0.8555298
1602856468161,456,0.46166992,-0.12774658,-0.8584595
1602856468161,457,0.46166992,-0.12774658,-0.8584595
1602856468163,458,0.46191406,-0.12359619,-0.85650635
1602856468164,459,0.46191406,-0.124816895,-0.85943604
1602856468164,460,0.4633789,-0.12750244,-0.8579712
1602856468169,461,0.46191406,-0.12359619,-0.85650635
1602856468170,462,0.46142578,-0.128479,-0.85601807
1602856468173,463,0.46020508,-0.12799072,-0.8574829
1602856468174,464,0.46191406,-0.124816895,-0.85943604
1602856468177,465,0.46166992,-0.12750244,-0.8579712
1602856468177,466,0.4633789,-0.12750244,-0.8579712
1602856468180,467,0.46142578,-0.128479,-0.85601807
1602856468180,468,0.46289062,-0.128479,-0.8562622
1602856468181,469,0.46020508,-0.12799072,-0.8574829
1602856468181,470,0.4621582,-0.12677002,-0.8579712
1602856468182,471,0.46166992,-0.12750244,-0.8579712
1602856468182,472,0.46142578,-0.12628174,-0.8567505
1602856468182,473,0.45898438,-0.12432861,-0.8562622
1602856468184,474,0.46166992,-0.12652588,-0.8550415
1602856468184,475,0.46289062,-0.128479,-0.8562622
1602856468184,476,0.46118164,-0.12750244,-0.8587036
1602856468185,477,0.4621582,-0.12677002,-0.8579712
1602856468185,478,0.46142578,-0.12652588,-0.85650635
1602856468187,479,0.46142578,-0.12628174,-0.8567505
1602856468187,480,0.45922852,-0.12750244,-0.85650635
1602856468188,481,0.45922852,-0.124572754,-0.85772705
1602856468188,482,0.45898438,-0.12432861,-0.8562622
1602856468188,483,0.46264648,-0.12530518,-0.8579712
1602856468189,484,0.46191406,-0.124816895,-0.8569946
1602856468189,485,0.46166992,-0.12652588,-0.8550415
1602856468189,486,0.45996094,-0.124816895,-0.85528564
1602856468190,487,0.46118164,-0.12750244,-0.8587036
1602856468190,488,0.4609375,-0.12774658,-0.8579712
1602856468191,489,0.46142578,-0.12652588,-0.85650635
1602856468192,490,0.4609375,-0.12750244,-0.85723877
1602856468192,491,0.45922852,-0.12750244,-0.85650635
1602856468192,492,0.46264648,-0.1272583,-0.85943604
1602856468193,493,0.45922852,-0.124572754,-0.85772705
1602856468193,494,0.46166992,-0.12750244,-0.85772705
1602856468194,495,0.46191406,-0.12652588,-0.8562622
1602856468194,496,0.46264648,-0.12530518,-0.8579712
1602856468194,497,0.46118164,-0.12408447,-0.85650635
1602856468194,498,0.46191406,-0.124816895,-0.8569946
1602856468195,499,0.4609375,-0.12701416,-0.8599243
1602856468196,500,0.45996094,-0.124816895,-0.85528564
1602856468196,501,0.46240234,-0.12701416,-0.86016846
1602856468196,502,0.4609375,-0.12774658,-0.8579712
1602856468197,503,0.46289062,-0.12774658,-0.85650635
1602856468198,504,0.4609375,-0.12750244,-0.85723877
1602856468198,505,0.46264648,-0.1272583,-0.85943604
1602856468199,506,0.46166992,-0.12750244,-0.85772705
1602856468199,507,0.46191406,-0.12652588,-0.8562622
1602856468200,508,0.46118164,-0.12408447,-0.85650635
1602856468200,509,0.4609375,-0.12701416,-0.8599243
1602856468201,510,0.46240234,-0.12701416,-0.86016846
1602856468202,511,0.46289062,-0.12774658,-0.85650635
1602856470674,512,0.4597168,-0.12799072,-0.8574829
1602856470675,513,0.4597168,-0.12799072,-0.8574829
1602856470677,514,0.46142578,-0.12506104,-0.8579712
1602856470678,515,0.46142578,-0.12506104,-0.8579712
1602856470678,516,0.4609375,-0.128479,-0.8569946
1602856470678,517,0.4609375,-0.128479,-0.8569946
1602856470678,518,0.46166992,-0.12677002,-0.8569946
1602856470678,519,0.46166992,-0.12677002,-0.8569946
1602856470679,520,0.4609375,-0.124816895,-0.85772705
1602856470680,521,0.4609375,-0.124816895,-0.85772705
1602856470681,522,0.46020508,-0.1272583,-0.8545532
1602856470681,523,0.46020508,-0.1272583,-0.8545532
1602856470682,524,0.46264648,-0.12677002,-0.8596802
1602856470683,525,0.46264648,-0.12677002,-0.8596802
1602856470684,526,0.45996094,-0.124572754,-0.8567505
1602856470685,527,0.45996094,-0.124572754,-0.8567505
1602856470687,528,0.4638672,-0.128479,-0.8574829
1602856470690,529,0.46166992,-0.12750244,-0.8557739
1602856470690,530,0.4638672,-0.128479,-0.8574829
1602856470692,531,0.46166992,-0.12774658,-0.8591919
1602856470692,532,0.46166992,-0.12750244,-0.8557739
1602856470693,533,0.46240234,-0.124572754,-0.85772705
1602856470694,534,0.46191406,-0.12799072,-0.85650635
1602856470695,535,0.46166992,-0.12774658,-0.8591919
1602856470696,536,0.4597168,-0.12872314,-0.8555298
1602856470697,537,0.46240234,-0.124572754,-0.85772705
1602856470697,538,0.46191406,-0.12750244,-0.8555298
1602856470698,539,0.46166992,-0.12628174,-0.85772705
1602856470698,540,0.46191406,-0.12799072,-0.85650635
1602856470699,541,0.4621582,-0.12677002,-0.8579712
1602856470703,542,0.4597168,-0.12872314,-0.8555298
1602856470703,543,0.46411133,-0.124816895,-0.8574829
1602856470704,544,0.46191406,-0.12750244,-0.8555298
1602856470704,545,0.4621582,-0.12652588,-0.86065674
1602856470706,546,0.46166992,-0.12628174,-0.85772705
1602856470706,547,0.45996094,-0.12652588,-0.8550415
1602856470707,548,0.4621582,-0.12677002,-0.8579712
1602856470708,549,0.46411133,-0.124816895,-0.8574829
1602856470709,550,0.46166992,-0.12628174,-0.86016846
1602856470711,551,0.46166992,-0.124572754,-0.8579712
1602856470711,552,0.4621582,-0.12652588,-0.86065674
1602856470713,553,0.46069336,-0.12872314,-0.8574829
1602856470713,554,0.45996094,-0.12652588,-0.8550415
1602856470716,555,0.46362305,-0.12750244,-0.8550415
1602856470716,556,0.46166992,-0.12628174,-0.86016846
1602856470717,557,0.46166992,-0.12628174,-0.8562622
1602856470717,558,0.46166992,-0.124572754,-0.8579712
1602856470718,559,0.46069336,-0.12872314,-0.8574829
1602856470722,560,0.46362305,-0.12750244,-0.8550415
1602856470722,561,0.46118164,-0.12506104,-0.8555298
1602856470722,562,0.46166992,-0.12628174,-0.8562622
1602856470722,563,0.4650879,-0.12579346,-0.8579712
1602856470724,564,0.46069336,-0.128479,-0.85601807
1602856470724,565,0.46118164,-0.12506104,-0.8555298
1602856470726,566,0.46240234,-0.12652588,-0.8545532
1602856470726,567,0.4650879,-0.12579346,-0.8579712
1602856470727,568,0.46166992,-0.12628174,-0.8579712
1602856470729,569,0.46044922,-0.12750244,-0.8545532
1602856470730,570,0.46142578,-0.12774658,-0.8574829
1602856470734,571,0.46069336,-0.128479,-0.85601807
1602856470734,572,0.46240234,-0.12652588,-0.8545532
1602856470736,573,0.46166992,-0.12628174,-0.8579712
1602856470736,574,0.46044922,-0.12750244,-0.8545532
1602856470738,575,0.46142578,-0.12774658,-0.8574829
1602856473609,576,0.46289062,-0.12750244,-0.85943604
1602856473610,577,0.46289062,-0.12750244,-0.85943604
1602856473610,578,0.46313477,-0.1260376,-0.8569946
1602856473625,579,0.46313477,-0.1260376,-0.8569946
1602856473625,580,0.46142578,-0.12701416,-0.85479736
1602856473626,581,0.46142578,-0.12701416,-0.85479736
1602856473626,582,0.46044922,-0.12701416,-0.8562622
1602856473626,583,0.4597168,-0.12652588,-0.8545532
1602856473628,584,0.46142578,-0.12750244,-0.8591919
1602856473631,585,0.46411133,-0.12554932,-0.85723877
1602856473631,586,0.46044922,-0.12701416,-0.8562622
1602856473634,587,0.46264648,-0.12652588,-0.85601807
1602856473635,588,0.4597168,-0.12652588,-0.8545532
1602856473638,589,0.46044922,-0.12823486,-0.8579712
1602856473640,590,0.46142578,-0.12750244,-0.8591919
1602856473640,591,0.46166992,-0.12530518,-0.85601807
1602856473643,592,0.46411133,-0.12554932,-0.85723877
1602856473644,593,0.4621582,-0.12652588,-0.85723877
1602856473651,594,0.46264648,-0.12652588,-0.85601807
1602856473651,595,0.46142578,-0.12701416,-0.8587036
1602856473652,596,0.46044922,-0.12823486,-0.8579712
1602856473653,597,0.46166992,-0.12530518,-0.85601807
1602856473653,598,0.4633789,-0.12774658,-0.86016846
1602856473654,599,0.4621582,-0.12652588,-0.85723877
1602856473654,600,0.4609375,-0.1272583,-0.85821533
1602856473656,601,0.46142578,-0.12701416,-0.8587036
1602856473656,602,0.45922852,-0.12823486,-0.85723877
1602856473656,603,0.4633789,-0.12774658,-0.86016846
1602856473657,604,0.46166992,-0.12652588,-0.85406494
1602856473662,605,0.4609375,-0.1272583,-0.85821533
1602856473662,606,0.46191406,-0.12652588,-0.8579712
1602856473662,607,0.46289062,-0.12554932,-0.85601807
1602856473662,608,0.45922852,-0.12823486,-0.85723877
1602856473662,609,0.46240234,-0.12554932,-0.8567505
1602856473662,610,0.46166992,-0.12652588,-0.85406494
1602856473662,611,0.46044922,-0.12408447,-0.8569946
1602856473663,612,0.46191406,-0.12652588,-0.8579712
1602856473665,613,0.46289062,-0.12554932,-0.85601807
1602856473665,614,0.45996094,-0.12677002,-0.85772705
1602856473666,615,0.46264648,-0.128479,-0.8567505
1602856473667,616,0.46240234,-0.12554932,-0.8567505
1602856473667,617,0.4597168,-0.1272583,-0.85943604
1602856473667,618,0.46044922,-0.12408447,-0.8569946
1602856473668,619,0.46020508,-0.12554932,-0.8567505
1602856473670,620,0.45996094,-0.12677002,-0.85772705
1602856473670,621,0.46264648,-0.128479,-0.8567505
1602856473671,622,0.46020508,-0.12677002,-0.85723877
1602856473671,623,0.4597168,-0.1272583,-0.85943604
1602856473673,624,0.46020508,-0.12554932,-0.8567505
1602856473673,625,0.46240234,-0.12872314,-0.8599243
1602856473674,626,0.46020508,-0.12677002,-0.85723877
1602856473674,627,0.45874023,-0.12701416,-0.8587036
1602856473675,628,0.46240234,-0.12872314,-0.8599243
1602856473675,629,0.46264648,-0.1272583,-0.85723877
1602856473677,630,0.46044922,-0.12554932,-0.8584595
1602856473677,631,0.45874023,-0.12701416,-0.8587036
1602856473677,632,0.46264648,-0.1272583,-0.85723877
1602856473678,633,0.46191406,-0.1272583,-0.85821533
1602856473679,634,0.46044922,-0.12554932,-0.8584595
1602856473681,635,0.46166992,-0.124816895,-0.8579712
1602856473681,636,0.46191406,-0.1272583,-0.85821533
1602856473682,637,0.45947266,-0.12750244,-0.8543091
1602856473682,638,0.46166992,-0.124816895,-0.8579712
1602856473683,639,0.45947266,-0.12750244,-0.8543091
1602856475944,640,0.46118164,-0.12799072,-0.8591919
1602856475944,641,0.46118164,-0.12799072,-0.8591919
1602856475945,642,0.46166992,-0.124816895,-0.8599243
1602856475946,643,0.46166992,-0.124816895,-0.8599243
1602856475947,644,0.46313477,-0.12579346,-0.8584595
1602856475948,645,0.46313477,-0.12579346,-0.8584595
1602856475948,646,0.46289062,-0.12384033,-0.85601807
1602856475949,647,0.46289062,-0.12384033,-0.85601807
1602856475951,648,0.46142578,-0.12823486,-0.8574829
1602856475952,649,0.46142578,-0.12579346,-0.8555298
1602856475952,650,0.46142578,-0.12823486,-0.8574829
1602856475953,651,0.46264648,-0.12677002,-0.8567505
1602856475954,652,0.46142578,-0.12579346,-0.8555298
1602856475956,653,0.46264648,-0.12750244,-0.8567505
1602856475956,654,0.46264648,-0.12677002,-0.8567505
1602856475956,655,0.46044922,-0.12896729,-0.85943604
1602856475956,656,0.46264648,-0.12750244,-0.8567505
1602856475958,657,0.46044922,-0.12896729,-0.85943604
1602856475959,658,0.46020508,-0.12872314,-0.8562622
1602856475959,659,0.46020508,-0.12872314,-0.8562622
1602856475962,660,0.46069336,-0.12530518,-0.85723877
1602856475963,661,0.46069336,-0.12530518,-0.85723877
1602856475965,662,0.46044922,-0.12774658,-0.85772705
1602856475967,663,0.46044922,-0.12774658,-0.85772705
1602856475968,664,0.45996094,-0.12774658,-0.8567505
1602856475969,665,0.45996094,-0.12774658,-0.8567505
1602856475970,666,0.46191406,-0.1272583,-0.8567505
1602856475973,667,0.46191406,-0.1272583,-0.8567505
1602856475974,668,0.46118164,-0.12506104,-0.85894775
1602856475974,669,0.46118164,-0.12506104,-0.85894775
1602856475975,670,0.46264648,-0.12945557,-0.85821533
1602856475977,671,0.46264648,-0.12945557,-0.85821533
1602856475978,672,0.46191406,-0.12677002,-0.8587036
1602856475978,673,0.46044922,-0.12799072,-0.8538208
1602856475979,674,0.46191406,-0.12799072,-0.8574829
1602856475980,675,0.46191406,-0.12677002,-0.8587036
1602856475981,676,0.46264648,-0.12750244,-0.8562622
1602856475981,677,0.46044922,-0.12799072,-0.8538208
1602856475982,678,0.46142578,-0.12945557,-0.8579712
1602856475983,679,0.46191406,-0.12799072,-0.8574829
1602856475984,680,0.45922852,-0.128479,-0.8579712
1602856475985,681,0.46264648,-0.12750244,-0.8562622
1602856475986,682,0.46142578,-0.12945557,-0.8579712
1602856475986,683,0.45996094,-0.1272583,-0.85528564
1602856475987,684,0.46118164,-0.12677002,-0.8567505
1602856475988,685,0.45922852,-0.128479,-0.8579712
1602856475989,686,0.46166992,-0.12774658,-0.85894775
1602856475989,687,0.45996094,-0.1272583,-0.85528564
1602856475990,688,0.46118164,-0.12677002,-0.8567505
1602856475991,689,0.46166992,-0.12774658,-0.8574829
1602856475992,690,0.46166992,-0.12774658,-0.85894775
1602856475992,691,0.46240234,-0.12750244,-0.8584595
1602856475992,692,0.46166992,-0.12774658,-0.8574829
1602856475993,693,0.46264648,-0.12823486,-0.8579712
1602856475993,694,0.46240234,-0.12750244,-0.8584595
1602856475993,695,0.46264648,-0.12823486,-0.8579712
1602856475994,696,0.46240234,-0.124572754,-0.8567505
1602856475994,697,0.46240234,-0.124572754,-0.8567505
1602856475995,698,0.46069336,-0.1272583,-0.85601807
1602856475995,699,0.46069336,-0.1272583,-0.85601807
1602856475996,700,0.46411133,-0.128479,-0.8567505
1602856475996,701,0.46411133,-0.128479,-0.8567505
1602856475996,702,0.46240234,-0.12506104,-0.8562622
1602856475997,703,0.46240234,-0.12506104,-0.8562622
1602856478466,704,0.46191406,-0.12652588,-0.85772705
1602856478467,705,0.46191406,-0.12652588,-0.85772705
1602856478468,706,0.46142578,-0.12994385,-0.8569946
1602856478468,707,0.46142578,-0.12994385,-0.8569946
1602856478476,708,0.46484375,-0.12872314,-0.85650635
1602856478476,709,0.46484375,-0.12872314,-0.85650635
1602856478476,710,0.46142578,-0.12652588,-0.8567505
1602856478476,711,0.46142578,-0.12652588,-0.8567505
1602856478476,712,0.4597168,-0.12896729,-0.8562622
1602856478477,713,0.4597168,-0.12896729,-0.8562622
1602856478477,714,0.46142578,-0.12432861,-0.8555298
1602856478482,715,0.46142578,-0.12432861,-0.8555298
1602856478486,716,0.4621582,-0.12799072,-0.85601807
1602856478486,717,0.4621582,-0.12799072,-0.85601807
1602856478488,718,0.46240234,-0.128479,-0.8567505
1602856478489,719,0.46240234,-0.128479,-0.8567505
1602856478491,720,0.46264648,-0.128479,-0.8569946
1602856478491,721,0.46264648,-0.128479,-0.8569946
1602856478491,722,0.46264648,-0.12921143,-0.8550415
1602856478491,723,0.46240234,-0.12750244,-0.85772705
1602856478492,724,0.46264648,-0.12921143,-0.8550415
1602856478492,725,0.46240234,-0.12750244,-0.85772705
1602856478492,726,0.46264648,-0.12750244,-0.85357666
1602856478492,727,0.46240234,-0.12774658,-0.85723877
1602856478494,728,0.46044922,-0.12872314,-0.8587036
1602856478494,729,0.46264648,-0.12750244,-0.85357666
1602856478499,730,0.46240234,-0.12774658,-0.85723877
1602856478500,731,0.46142578,-0.1260376,-0.85650635
1602856478500,732,0.46044922,-0.12872314,-0.8587036
1602856478502,733,0.4621582,-0.12872314,-0.85650635
1602856478502,734,0.46142578,-0.1260376,-0.85650635
1602856478502,735,0.46264648,-0.128479,-0.8569946
1602856478506,736,0.46166992,-0.128479,-0.8569946
1602856478506,737,0.46118164,-0.1272583,-0.85723877
1602856478508,738,0.4621582,-0.12872314,-0.85650635
1602856478510,739,0.46264648,-0.128479,-0.8569946
1602856478510,740,0.46313477,-0.12628174,-0.8587036
1602856478510,741,0.46166992,-0.128479,-0.8569946
1602856478511,742,0.46191406,-0.12530518,-0.85528564
1602856478511,743,0.46118164,-0.1272583,-0.85723877
1602856478512,744,0.46069336,-0.12921143,-0.8562622
1602856478513,745,0.46313477,-0.12628174,-0.8587036
1602856478513,746,0.4609375,-0.12823486,-0.8567505
1602856478513,747,0.46191406,-0.12530518,-0.85528564
1602856478515,748,0.46166992,-0.12921143,-0.8569946
1602856478515,749,0.46069336,-0.12921143,-0.8562622
1602856478515,750,0.46142578,-0.12896729,-0.85528564
1602856478516,751,0.46166992,-0.12896729,-0.85943604
1602856478516,752,0.4609375,-0.12823486,-0.8567505
1602856478517,753,0.4609375,-0.12579346,-0.85601807
1602856478517,754,0.46166992,-0.12921143,-0.8569946
1602856478518,755,0.4580078,-0.1272583,-0.85821533
1602856478518,756,0.46142578,-0.12896729,-0.85528564
1602856478519,757,0.46264648,-0.12799072,-0.85772705
1602856478519,758,0.46166992,-0.12896729,-0.85943604
1602856478520,759,0.46191406,-0.12750244,-0.85479736
1602856478520,760,0.4609375,-0.12579346,-0.85601807
1602856478521,761,0.4645996,-0.12774658,-0.8569946
1602856478521,762,0.4580078,-0.1272583,-0.85821533
1602856478522,763,0.46142578,-0.12506104,-0.8591919
1602856478522,764,0.46264648,-0.12799072,-0.85772705
1602856478523,765,0.46191406,-0.12750244,-0.85479736
1602856478524,766,0.4645996,-0.12774658,-0.8569946
1602856478524,767,0.46142578,-0.12506104,-0.8591919
1602856481394,768,0.46118164,-0.12799072,-0.85943604
1602856481406,769,0.4621582,-0.12579346,-0.8555298
1602856481406,770,0.46118164,-0.12799072,-0.85943604
1602856481419,771,0.46166992,-0.13018799,-0.85894775
1602856481421,772,0.4621582,-0.12579346,-0.8555298
1602856481426,773,0.46166992,-0.13018799,-0.85894775
1602856481426,774,0.46289062,-0.12823486,-0.8596802
1602856481426,775,0.46264648,-0.12896729,-0.85650635
1602856481426,776,0.46289062,-0.12823486,-0.8596802
1602856481426,777,0.46240234,-0.12872314,-0.8567505
1602856481426,778,0.46264648,-0.12896729,-0.85650635
1602856481426,779,0.46240234,-0.12872314,-0.8567505
1602856481427,780,0.46557617,-0.12628174,-0.8557739
1602856481430,781,0.46557617,-0.12628174,-0.8557739
1602856481430,782,0.46240234,-0.12677002,-0.8567505
1602856481430,783,0.46240234,-0.12677002,-0.8567505
1602856481431,784,0.46069336,-0.12823486,-0.8569946
1602856481431,785,0.46069336,-0.12823486,-0.8569946
1602856481432,786,0.45996094,-0.12677002,-0.85821533
1602856481432,787,0.45996094,-0.12677002,-0.85821533
1602856481434,788,0.46240234,-0.12530518,-0.85650635
1602856481434,789,0.46240234,-0.12530518,-0.85650635
1602856481435,790,0.46044922,-0.12628174,-0.85894775
1602856481435,791,0.46044922,-0.12628174,-0.85894775
1602856481436,792,0.4609375,-0.128479,-0.85894775
1602856481436,793,0.4609375,-0.128479,-0.85894775
1602856481437,794,0.46142578,-0.12872314,-0.8569946
1602856481438,795,0.46142578,-0.12872314,-0.8569946
1602856481438,796,0.46166992,-0.12896729,-0.8530884
1602856481439,797,0.46166992,-0.12896729,-0.8530884
1602856481439,798,0.46240234,-0.12628174,-0.8579712
1602856481442,799,0.46142578,-0.12799072,-0.85650635
1602856481442,800,0.46240234,-0.12628174,-0.8579712
1602856481442,801,0.4609375,-0.12750244,-0.8574829
1602856481444,802,0.46142578,-0.12799072,-0.85650635
1602856481448,803,0.4609375,-0.12750244,-0.8574829
1602856481448,804,0.46044922,-0.128479,-0.8555298
1602856481448,805,0.46044922,-0.128479,-0.8555298
1602856481449,806,0.46289062,-0.12750244,-0.85723877
1602856481450,807,0.46289062,-0.12750244,-0.85723877
1602856481451,808,0.4633789,-0.12823486,-0.85650635
1602856481452,809,0.45947266,-0.12872314,-0.85479736
1602856481453,810,0.4633789,-0.12823486,-0.85650635
1602856481453,811,0.46191406,-0.128479,-0.8562622
1602856481454,812,0.45947266,-0.12872314,-0.85479736
1602856481454,813,0.46118164,-0.12921143,-0.8587036
1602856481454,814,0.46191406,-0.128479,-0.8562622
1602856481454,815,0.46313477,-0.12799072,-0.8567505
1602856481456,816,0.46118164,-0.1272583,-0.85821533
1602856481456,817,0.46118164,-0.12921143,-0.8587036
1602856481457,818,0.46118164,-0.12799072,-0.8530884
1602856481458,819,0.46313477,-0.12799072,-0.8567505
1602856481458,820,0.4597168,-0.128479,-0.8562622
1602856481459,821,0.46118164,-0.1272583,-0.85821533
1602856481460,822,0.46118164,-0.12799072,-0.8530884
1602856481460,823,0.45996094,-0.12774658,-0.85772705
1602856481461,824,0.4597168,-0.128479,-0.8562622
1602856481462,825,0.46289062,-0.12774658,-0.8574829
1602856481462,826,0.45996094,-0.12774658,-0.85772705
1602856481468,827,0.46435547,-0.1260376,-0.8584595
1602856481469,828,0.46289062,-0.12774658,-0.8574829
1602856481469,829,0.46264648,-0.12677002,-0.8555298
1602856481470,830,0.46435547,-0.1260376,-0.8584595
1602856481471,831,0.46264648,-0.12677002,-0.8555298
1602856483543,832,0.46118164,-0.12823486,-0.8550415
1602856483543,833,0.46118164,-0.12823486,-0.8550415
1602856483543,834,0.46313477,-0.12579346,-0.8584595
1602856483543,835,0.46313477,-0.12579346,-0.8584595
1602856483544,836,0.46191406,-0.12701416,-0.8567505
1602856483545,837,0.46191406,-0.12701416,-0.8567505
1602856483545,838,0.46240234,-0.12750244,-0.8562622
1602856483546,839,0.46118164,-0.1272583,-0.8587036
1602856483547,840,0.46240234,-0.12750244,-0.8562622
1602856483548,841,0.46069336,-0.128479,-0.8579712
1602856483548,842,0.46118164,-0.1272583,-0.8587036
1602856483549,843,0.4621582,-0.12701416,-0.8567505
1602856483551,844,0.46166992,-0.12896729,-0.85772705
1602856483552,845,0.46069336,-0.128479,-0.8579712
1602856483552,846,0.4621582,-0.12701416,-0.8567505
1602856483553,847,0.46118164,-0.12701416,-0.85601807
1602856483554,848,0.46166992,-0.12896729,-0.85772705
1602856483556,849,0.46264648,-0.12652588,-0.85723877
1602856483556,850,0.46118164,-0.12701416,-0.85601807
1602856483557,851,0.46264648,-0.12652588,-0.85723877
1602856483558,852,0.4621582,-0.12652588,-0.8550415
1602856483558,853,0.4621582,-0.12652588,-0.8550415
1602856483559,854,0.46191406,-0.1272583,-0.85821533
1602856483559,855,0.46191406,-0.1272583,-0.85821533
1602856483560,856,0.46191406,-0.1296997,-0.8599243
1602856483561,857,0.46191406,-0.1296997,-0.8599243
1602856483562,858,0.4609375,-0.12896729,-0.8567505
1602856483562,859,0.4609375,-0.12896729,-0.8567505
1602856483563,860,0.4609375,-0.1260376,-0.85528564
1602856483564,861,0.46191406,-0.12872314,-0.8567505
1602856483565,862,0.4609375,-0.1260376,-0.85528564
1602856483567,863,0.46166992,-0.12750244,-0.8596802
1602856483568,864,0.46191406,-0.12872314,-0.8567505
1602856483569,865,0.46240234,-0.12554932,-0.8562622
1602856483570,866,0.46166992,-0.12750244,-0.8596802
1602856483570,867,0.46118164,-0.12921143,-0.85894775
1602856483571,868,0.46118164,-0.12799072,-0.8562622
1602856483572,869,0.46240234,-0.12554932,-0.8562622
1602856483572,870,0.46240234,-0.12774658,-0.85479736
1602856483573,871,0.46191406,-0.12530518,-0.8591919
1602856483574,872,0.46118164,-0.12921143,-0.85894775
1602856483576,873,0.46313477,-0.124816895,-0.8562622
1602856483576,874,0.46118164,-0.12799072,-0.8562622
1602856483576,875,0.46289062,-0.12872314,-0.8579712
1602856483577,876,0.46240234,-0.12774658,-0.85479736
1602856483577,877,0.4609375,-0.12628174,-0.8574829
1602856483578,878,0.46191406,-0.12530518,-0.8591919
1602856483579,879,0.45898438,-0.1296997,-0.8562622
1602856483580,880,0.46313477,-0.124816895,-0.8562622
1602856483581,881,0.46289062,-0.12872314,-0.8579712
1602856483582,882,0.4621582,-0.12750244,-0.85528564
1602856483583,883,0.4609375,-0.12628174,-0.8574829
1602856483583,884,0.4609375,-0.12677002,-0.85821533
1602856483583,885,0.45898438,-0.1296997,-0.8562622
1602856483584,886,0.46240234,-0.12652588,-0.8569946
1602856483584,887,0.4621582,-0.12750244,-0.85528564
1602856483585,888,0.46240234,-0.12921143,-0.8557739
1602856483586,889,0.4609375,-0.12677002,-0.85821533
1602856483587,890,0.4633789,-0.12774658,-0.8587036
1602856483590,891,0.46240234,-0.12652588,-0.8569946
1602856483590,892,0.46166992,-0.12750244,-0.8555298
1602856483590,893,0.46240234,-0.12921143,-0.8557739
1602856483592,894,0.4633789,-0.12774658,-0.8587036
1602856483594,895,0.46166992,-0.12750244,-0.8555298
1602856486073,896,0.46191406,-0.128479,-0.85723877
1602856486075,897,0.46191406,-0.128479,-0.85723877
1602856486076,898,0.46069336,-0.12628174,-0.8569946
1602856486076,899,0.46069336,-0.12628174,-0.8569946
1602856486079,900,0.4609375,-0.12823486,-0.85894775
1602856486079,901,0.4609375,-0.12823486,-0.85894775
1602856486081,902,0.46118164,-0.12945557,-0.8562622
1602856486083,903,0.46118164,-0.12945557,-0.8562622
1602856486083,904,0.4621582,-0.12823486,-0.8574829
1602856486084,905,0.4621582,-0.12823486,-0.8574829
1602856486086,906,0.46020508,-0.128479,-0.8562622
1602856486087,907,0.46020508,-0.128479,-0.8562622
1602856486088,908,0.46044922,-0.12799072,-0.8557739
1602856486090,909,0.46044922,-0.12799072,-0.8557739
1602856486090,910,0.4633789,-0.128479,-0.8567505
1602856486091,911,0.4633789,-0.128479,-0.8567505
1602856486091,912,0.4638672,-0.12872314,-0.8545532
1602856486092,913,0.4638672,-0.12872314,-0.8545532
1602856486092,914,0.4621582,-0.12799072,-0.8579712
1602856486093,915,0.4621582,-0.12799072,-0.8579712
1602856486094,916,0.46411133,-0.12945557,-0.8562622
1602856486096,917,0.46044922,-0.12872314,-0.8557739
1602856486096,918,0.46411133,-0.12945557,-0.8562622
1602856486097,919,0.46044922,-0.12872314,-0.8557739
1602856486098,920,0.46069336,-0.12677002,-0.8562622
1602856486101,921,0.46191406,-0.12774658,-0.85772705
1602856486101,922,0.46069336,-0.12677002,-0.8562622
1602856486102,923,0.46411133,-0.12799072,-0.8555298
1602856486102,924,0.46191406,-0.12774658,-0.85772705
1602856486102,925,0.45898438,-0.12921143,-0.8569946
1602856486103,926,0.46118164,-0.12652588,-0.8569946
1602856486103,927,0.46411133,-0.12799072,-0.8555298
1602856486104,928,0.46240234,-0.12750244,-0.85723877
1602856486105,929,0.46191406,-0.12677002,-0.8562622
1602856486106,930,0.45898438,-0.12921143,-0.8569946
1602856486106,931,0.45922852,-0.12994385,-0.85406494
1602856486106,932,0.46118164,-0.12652588,-0.8569946
1602856486107,933,0.46240234,-0.1272583,-0.8567505
1602856486107,934,0.46240234,-0.12750244,-0.85723877
1602856486108,935,0.46142578,-0.12872314,-0.85821533
1602856486109,936,0.46191406,-0.12677002,-0.8562622
1602856486110,937,0.46118164,-0.1272583,-0.85406494
1602856486110,938,0.45922852,-0.12994385,-0.85406494
1602856486110,939,0.46289062,-0.12823486,-0.85528564
1602856486110,940,0.46240234,-0.1272583,-0.8567505
1602856486110,941,0.46264648,-0.1272583,-0.8557739
1602856486110,942,0.46240234,-0.12872314,-0.8579712
1602856486111,943,0.46142578,-0.12872314,-0.85821533
1602856486111,944,0.46044922,-0.1296997,-0.85723877
1602856486111,945,0.46118164,-0.1272583,-0.85406494
1602856486112,946,0.46020508,-0.12750244,-0.8599243
1602856486113,947,0.46289062,-0.12823486,-0.85528564
1602856486113,948,0.46289062,-0.12750244,-0.86016846
1602856486113,949,0.46264648,-0.1272583,-0.8557739
1602856486114,950,0.46240234,-0.12872314,-0.8579712
1602856486115,951,0.46044922,-0.12677002,-0.8596802
1602856486115,952,0.46044922,-0.1296997,-0.85723877
1602856486115,953,0.46166992,-0.128479,-0.85479736
1602856486117,954,0.46020508,-0.12750244,-0.8599243
1602856486117,955,0.46166992,-0.1272583,-0.85528564
1602856486117,956,0.46289062,-0.12750244,-0.86016846
1602856486118,957,0.46044922,-0.12677002,-0.8596802
1602856486119,958,0.46166992,-0.128479,-0.85479736
1602856486120,959,0.46166992,-0.1272583,-0.85528564
1602856488627,960,0.46166992,-0.12774658,-0.85772705
1602856488627,961,0.46166992,-0.12774658,-0.85772705
1602856488628,962,0.46142578,-0.12872314,-0.8574829
1602856488631,963,0.46313477,-0.12750244,-0.8555298
1602856488632,964,0.46118164,-0.12701416,-0.85894775
1602856488633,965,0.46142578,-0.12872314,-0.8574829
1602856488634,966,0.46313477,-0.12750244,-0.8555298
1602856488636,967,0.46118164,-0.12701416,-0.85894775
1602856488637,968,0.46118164,-0.12799072,-0.85772705
1602856488638,969,0.46118164,-0.12799072,-0.85772705
1602856488639,970,0.4633789,-0.12774658,-0.8569946
1602856488642,971,0.4633789,-0.12774658,-0.8569946
1602856488642,972,0.4650879,-0.12677002,-0.85528564
1602856488645,973,0.4650879,-0.12677002,-0.85528564
1602856488646,974,0.46289062,-0.128479,-0.8562622
1602856488650,975,0.4597168,-0.12872314,-0.85772705
1602856488651,976,0.46289062,-0.128479,-0.8562622
1602856488654,977,0.4597168,-0.12872314,-0.85772705
1602856488654,978,0.46289062,-0.1260376,-0.8574829
1602856488656,979,0.46289062,-0.1260376,-0.8574829
1602856488657,980,0.4584961,-0.12774658,-0.8555298
1602856488660,981,0.4584961,-0.12774658,-0.8555298
1602856488660,982,0.46557617,-0.12872314,-0.85821533
1602856488661,983,0.46118164,-0.1296997,-0.8599243
1602856488661,984,0.46557617,-0.12872314,-0.85821533
1602856488662,985,0.46118164,-0.1296997,-0.8599243
1602856488663,986,0.4621582,-0.128479,-0.8562622
1602856488664,987,0.4621582,-0.128479,-0.8562622
1602856488665,988,0.4609375,-0.1272583,-0.8587036
1602856488669,989,0.4609375,-0.1272583,-0.8587036
1602856488669,990,0.46362305,-0.128479,-0.8587036
1602856488672,991,0.46362305,-0.128479,-0.8587036
1602856488674,992,0.46264648,-0.1260376,-0.8584595
1602856488674,993,0.46264648,-0.1260376,-0.8584595
1602856488675,994,0.46191406,-0.13018799,-0.8569946
1602856488676,995,0.46191406,-0.13018799,-0.8569946
1602856488676,996,0.46240234,-0.12774658,-0.85772705
1602856488677,997,0.46240234,-0.12774658,-0.85772705
1602856488679,998,0.46166992,-0.12677002,-0.8538208
1602856488679,999,0.46166992,-0.12677002,-0.8538208
1602856488680,1000,0.46142578,-0.12921143,-0.8587036
1602856488680,1001,0.46142578,-0.12921143,-0.8587036
1602856488681,1002,0.46264648,-0.1296997,-0.8574829
1602856488682,1003,0.46264648,-0.1296997,-0.8574829
1602856488684,1004,0.45751953,-0.12774658,-0.85601807
1602856488684,1005,0.45751953,-0.12774658,-0.85601807
1602856488684,1006,0.46191406,-0.128479,-0.85601807
1602856488686,1007,0.46191406,-0.128479,-0.85601807
1602856488686,1008,0.46020508,-0.12823486,-0.8550415
1602856488686,1009,0.46020508,-0.12823486,-0.8550415
1602856488687,1010,0.46069336,-0.12799072,-0.8584595
1602856488690,1011,0.46069336,-0.12799072,-0.8584595
1602856488690,1012,0.4597168,-0.12823486,-0.8599243
1602856488690,1013,0.4597168,-0.12823486,-0.8599243
1602856488691,1014,0.4609375,-0.12652588,-0.85650635
1602856488692,1015,0.46166992,-0.128479,-0.8587036
1602856488692,1016,0.46362305,-0.12750244,-0.8557739
1602856488693,1017,0.4609375,-0.12652588,-0.85650635
1602856488694,1018,0.46166992,-0.128479,-0.8587036
1602856488695,1019,0.46020508,-0.12750244,-0.8574829
1602856488696,1020,0.46362305,-0.12750244,-0.8557739
1602856488696,1021,0.46191406,-0.12652588,-0.8574829
1602856488697,1022,0.46020508,-0.12750244,-0.8574829
1602856488698,1023,0.46191406,-0.12652588,-0.8574829
1602856491149,1024,0.46069336,-0.12774658,-0.8584595
1602856491150,1025,0.46069336,-0.12774658,-0.8584595
1602856491154,1026,0.4621582,-0.12579346,-0.85650635
1602856491156,1027,0.4621582,-0.12579346,-0.85650635
1602856491156,1028,0.46044922,-0.12677002,-0.861145
1602856491159,1029,0.4621582,-0.12750244,-0.8584595
1602856491162,1030,0.46191406,-0.12921143,-0.8567505
1602856491162,1031,0.46044922,-0.12677002,-0.861145
1602856491166,1032,0.4621582,-0.12750244,-0.8584595
1602856491166,1033,0.46240234,-0.1272583,-0.86016846
1602856491168,1034,0.46191406,-0.12921143,-0.8567505
1602856491170,1035,0.46240234,-0.1272583,-0.86016846
1602856491172,1036,0.46191406,-0.12872314,-0.85772705
1602856491180,1037,0.46191406,-0.12872314,-0.85772705
1602856491180,1038,0.46044922,-0.12945557,-0.8579712
1602856491180,1039,0.46044922,-0.12945557,-0.8579712
1602856491182,1040,0.46264648,-0.12310791,-0.8550415
1602856491182,1041,0.46264648,-0.12310791,-0.8550415
1602856491182,1042,0.4609375,-0.12774658,-0.85650635
1602856491184,1043,0.46020508,-0.12921143,-0.85601807
1602856491185,1044,0.4609375,-0.12774658,-0.85650635
1602856491185,1045,0.4609375,-0.12921143,-0.8562622
1602856491185,1046,0.46020508,-0.12921143,-0.85601807
1602856491187,1047,0.4609375,-0.12921143,-0.8562622
1602856491187,1048,0.46142578,-0.12774658,-0.85943604
1602856491188,1049,0.46142578,-0.12774658,-0.85943604
1602856491188,1050,0.46166992,-0.1272583,-0.85528564
1602856491188,1051,0.46166992,-0.1272583,-0.85528564
1602856491188,1052,0.46191406,-0.12896729,-0.8555298
1602856491189,1053,0.46191406,-0.12896729,-0.8555298
1602856491190,1054,0.46142578,-0.12921143,-0.8550415
1602856491191,1055,0.45947266,-0.12579346,-0.8591919
1602856491191,1056,0.46142578,-0.12921143,-0.8550415
1602856491191,1057,0.46118164,-0.12799072,-0.85821533
1602856491192,1058,0.46191406,-0.12701416,-0.85723877
1602856491193,1059,0.45947266,-0.12579346,-0.8591919
1602856491193,1060,0.46289062,-0.1260376,-0.8555298
1602856491194,1061,0.46118164,-0.12799072,-0.85821533
1602856491196,1062,0.46313477,-0.12823486,-0.85821533
1602856491196,1063,0.46191406,-0.12701416,-0.85723877
1602856491196,1064,0.4633789,-0.128479,-0.8574829
1602856491197,1065,0.46289062,-0.1260376,-0.8555298
1602856491198,1066,0.46313477,-0.12823486,-0.85821533
1602856491198,1067,0.4597168,-0.12872314,-0.8599243
1602856491199,1068,0.4633789,-0.128479,-0.8574829
1602856491199,1069,0.46166992,-0.12799072,-0.85479736
1602856491199,1070,0.4597168,-0.12872314,-0.8599243
1602856491200,1071,0.46166992,-0.12799072,-0.85479736
1602856491201,1072,0.46191406,-0.12799072,-0.85943604
1602856491201,1073,0.4633789,-0.12799072,-0.8574829
1602856491201,1074,0.46191406,-0.12799072,-0.85943604
1602856491202,1075,0.45996094,-0.1260376,-0.85723877
1602856491203,1076,0.4633789,-0.12799072,-0.8574829
1602856491204,1077,0.46142578,-0.12823486,-0.85723877
1602856491205,1078,0.45996094,-0.1260376,-0.85723877
1602856491205,1079,0.46142578,-0.12823486,-0.85723877
1602856491206,1080,0.46264648,-0.12872314,-0.8557739
1602856491207,1081,0.46264648,-0.12872314,-0.8557739
1602856491208,1082,0.46118164,-0.12921143,-0.8599243
1602856491208,1083,0.46118164,-0.12921143,-0.8599243
1602856491209,1084,0.4633789,-0.12652588,-0.85723877
1602856491210,1085,0.4633789,-0.12652588,-0.85723877
1602856491211,1086,0.46166992,-0.128479,-0.85650635
1602856491211,1087,0.46166992,-0.128479,-0.85650635
