# Sensor position: Wrist
# Sensor side: Right
# Activity type: Sitting or standing
# Activity code: 0
# Subject id: s1616573
timestamp,seq,accel_x,accel_y,accel_z
1601130640786,0,-0.4013672,0.62371826,-0.09210205
1601130640787,1,-0.4013672,0.62371826,-0.09210205
1601130640790,2,-0.40063477,0.82196045,-0.14581299
1601130640791,3,-0.40063477,0.82196045,-0.14581299
1601130640794,4,-0.24658203,0.918396,0.18109131
1601130640794,5,-0.24658203,0.918396,0.18109131
1601130640796,6,0.06640625,0.871521,0.13983154
1601130640801,7,0.06640625,0.871521,0.13983154
1601130640802,8,0.49414062,1.140564,0.1329956
1601130640803,9,0.67700195,0.74505615,0.7289429
1601130640803,10,0.49414062,1.140564,0.1329956
1601130640803,11,0.22509766,0.7260132,0.58221436
1601130640804,12,0.67700195,0.74505615,0.7289429
1601130640806,13,0.12451172,0.8307495,0.4208374
1601130640807,14,0.24584961,0.7272339,0.5338745
1601130640810,15,0.24902344,0.7518921,0.41888428
1601130640813,16,0.11791992,0.95111084,0.11004639
1601130640814,17,0.22509766,0.7260132,0.58221436
1601130640815,18,0.068847656,0.91986084,0.21746826
1601130640816,19,0.12451172,0.8307495,0.4208374
1601130640818,20,0.16333008,0.82489014,0.31072998
1601130640821,21,0.24584961,0.7272339,0.5338745
1601130640821,22,0.20336914,0.920105,0.16766357
1601130640825,23,0.18383789,0.89178467,0.17938232
1601130640828,24,0.24902344,0.7518921,0.41888428
1601130640830,25,0.11791992,0.95111084,0.11004639
1601130640832,26,0.17675781,0.8793335,0.20135498
1601130640832,27,0.068847656,0.91986084,0.21746826
1601130640835,28,0.16333008,0.82489014,0.31072998
1601130640838,29,0.1772461,0.88616943,0.18719482
1601130640843,30,0.20336914,0.920105,0.16766357
1601130640843,31,0.18041992,0.8930054,0.17669678
1601130640849,32,0.18383789,0.89178467,0.17938232
1601130640849,33,0.17602539,0.888855,0.18255615
1601130640856,34,0.17675781,0.8793335,0.20135498
1601130640857,35,0.18041992,0.88739014,0.1828003
1601130640868,36,0.1772461,0.88616943,0.18719482
1601130640871,37,0.18017578,0.8900757,0.1774292
1601130640872,38,0.18041992,0.8930054,0.17669678
1601130640872,39,0.17602539,0.888855,0.18255615
1601130640873,40,0.18041992,0.88739014,0.1828003
1601130640874,41,0.18017578,0.8900757,0.1774292
1601130640878,42,0.18286133,0.88568115,0.18035889
1601130640879,43,0.18286133,0.88568115,0.18035889
1601130640881,44,0.17700195,0.888855,0.17889404
1601130640882,45,0.17700195,0.888855,0.17889404
1601130640883,46,0.18017578,0.88934326,0.17938232
1601130640884,47,0.18017578,0.88934326,0.17938232
1601130640894,48,0.17871094,0.8895874,0.17694092
1601130640897,49,0.17871094,0.8895874,0.17694092
1601130640900,50,0.17944336,0.89056396,0.17816162
1601130640900,51,0.17944336,0.89056396,0.17816162
1601130640901,52,0.18066406,0.8895874,0.17791748
1601130640908,53,0.18066406,0.8895874,0.17791748
1601130640909,54,0.18115234,0.88934326,0.17596436
1601130640909,55,0.18164062,0.88934326,0.17449951
1601130640914,56,0.18017578,0.8900757,0.17327881
1601130640914,57,0.18115234,0.88934326,0.17596436
1601130640915,58,0.18164062,0.88934326,0.17449951
1601130640919,59,0.18017578,0.8900757,0.17327881
1601130640919,60,0.18017578,0.888855,0.17645264
1601130640921,61,0.18286133,0.8912964,0.17718506
1601130640921,62,0.18017578,0.888855,0.17645264
1601130640923,63,0.18286133,0.8912964,0.17718506
1601130643379,64,0.18066406,0.88690186,0.17547607
1601130643380,65,0.18066406,0.88690186,0.17547607
1601130643385,66,0.18041992,0.89056396,0.17449951
1601130643386,67,0.18041992,0.89056396,0.17449951
1601130643390,68,0.17895508,0.888855,0.17474365
1601130643393,69,0.17895508,0.888855,0.17474365
1601130643401,70,0.1796875,0.8883667,0.17230225
1601130643402,71,0.1796875,0.8883667,0.17230225
1601130643402,72,0.17895508,0.888855,0.17523193
1601130643405,73,0.18139648,0.8912964,0.17230225
1601130643407,74,0.17895508,0.888855,0.17523193
1601130643410,75,0.18432617,0.88983154,0.17108154
1601130643413,76,0.18139648,0.8912964,0.17230225
1601130643415,77,0.18115234,0.8915405,0.17254639
1601130643419,78,0.18432617,0.88983154,0.17108154
1601130643420,79,0.17895508,0.8883667,0.17034912
1601130643420,80,0.18115234,0.8915405,0.17254639
1601130643422,81,0.18457031,0.88812256,0.16693115
1601130643424,82,0.17895508,0.8883667,0.17034912
1601130643425,83,0.18041992,0.888855,0.17474365
1601130643427,84,0.18457031,0.88812256,0.16693115
1601130643428,85,0.18115234,0.8895874,0.17303467
1601130643429,86,0.18041992,0.888855,0.17474365
1601130643431,87,0.17993164,0.8883667,0.17303467
1601130643435,88,0.18115234,0.8895874,0.17303467
1601130643440,89,0.18481445,0.88812256,0.17108154
1601130643440,90,0.17993164,0.8883667,0.17303467
1601130643441,91,0.18481445,0.88812256,0.17108154
1601130643442,92,0.18359375,0.8908081,0.16937256
1601130643442,93,0.18359375,0.8908081,0.16937256
1601130643443,94,0.18408203,0.8908081,0.17181396
1601130643444,95,0.18408203,0.8908081,0.17181396
1601130643447,96,0.18066406,0.8878784,0.16986084
1601130643447,97,0.18066406,0.8878784,0.16986084
1601130643450,98,0.18115234,0.88983154,0.16912842
1601130643450,99,0.18115234,0.88983154,0.16912842
1601130643452,100,0.17626953,0.8903198,0.16864014
1601130643453,101,0.17626953,0.8903198,0.16864014
1601130643455,102,0.18188477,0.89178467,0.16400146
1601130643456,103,0.18188477,0.89178467,0.16400146
1601130643457,104,0.17993164,0.8878784,0.16571045
1601130643461,105,0.1796875,0.8903198,0.16619873
1601130643461,106,0.17993164,0.8878784,0.16571045
1601130643463,107,0.1772461,0.8900757,0.16546631
1601130643464,108,0.1796875,0.8903198,0.16619873
1601130643465,109,0.1772461,0.8900757,0.16546631
1601130643466,110,0.18603516,0.8876343,0.16522217
1601130643468,111,0.18603516,0.8876343,0.16522217
1601130643469,112,0.17529297,0.89178467,0.16400146
1601130643471,113,0.18286133,0.8878784,0.16326904
1601130643472,114,0.17529297,0.89178467,0.16400146
1601130643473,115,0.18286133,0.8878784,0.16326904
1601130643475,116,0.17358398,0.8944702,0.1605835
1601130643478,117,0.17358398,0.8944702,0.1605835
1601130643478,118,0.17651367,0.89227295,0.16571045
1601130643479,119,0.17651367,0.89227295,0.16571045
1601130643480,120,0.17944336,0.89642334,0.1564331
1601130643481,121,0.17944336,0.89642334,0.1564331
1601130643482,122,0.16870117,0.8908081,0.15960693
1601130643484,123,0.16870117,0.8908081,0.15960693
1601130643486,124,0.17236328,0.8966675,0.15423584
1601130643488,125,0.17358398,0.89959717,0.15423584
1601130643492,126,0.17236328,0.8966675,0.15423584
1601130643494,127,0.17358398,0.89959717,0.15423584
1601130645954,128,0.18920898,0.8912964,0.15765381
1601130645955,129,0.18920898,0.8912964,0.15765381
1601130645957,130,0.171875,0.89105225,0.15692139
1601130645961,131,0.16967773,0.8883667,0.1564331
1601130645964,132,0.15185547,0.90740967,0.13641357
1601130645965,133,0.171875,0.89105225,0.15692139
1601130645968,134,0.14916992,0.9086304,0.13079834
1601130645969,135,0.16967773,0.8883667,0.1564331
1601130645971,136,0.14526367,0.9100952,0.12689209
1601130645973,137,0.15185547,0.90740967,0.13641357
1601130645974,138,0.1574707,0.9076538,0.13421631
1601130645976,139,0.14916992,0.9086304,0.13079834
1601130645981,140,0.1484375,0.9020386,0.12908936
1601130645981,141,0.14526367,0.9100952,0.12689209
1601130645984,142,0.14575195,0.9069214,0.12689209
1601130645984,143,0.1574707,0.9076538,0.13421631
1601130645987,144,0.14819336,0.9057007,0.12664795
1601130645989,145,0.1484375,0.9020386,0.12908936
1601130645994,146,0.14575195,0.9069214,0.12689209
1601130645998,147,0.14819336,0.9057007,0.12664795
1601130646003,148,0.14526367,0.90423584,0.12542725
1601130646004,149,0.14526367,0.90423584,0.12542725
1601130646005,150,0.14013672,0.90740967,0.12640381
1601130646005,151,0.13793945,0.91082764,0.12176514
1601130646006,152,0.14013672,0.90740967,0.12640381
1601130646014,153,0.13647461,0.9098511,0.120788574
1601130646015,154,0.13793945,0.91082764,0.12176514
1601130646015,155,0.13647461,0.9098511,0.120788574
1601130646016,156,0.14208984,0.9069214,0.124694824
1601130646018,157,0.14208984,0.9069214,0.124694824
1601130646021,158,0.1484375,0.90911865,0.12371826
1601130646021,159,0.1484375,0.90911865,0.12371826
1601130646022,160,0.13989258,0.9088745,0.11956787
1601130646024,161,0.13989258,0.9088745,0.11956787
1601130646024,162,0.14135742,0.9122925,0.11566162
1601130646027,163,0.14135742,0.9122925,0.11566162
1601130646030,164,0.140625,0.9118042,0.11590576
1601130646030,165,0.140625,0.9118042,0.11590576
1601130646031,166,0.14819336,0.9081421,0.11981201
1601130646034,167,0.14819336,0.9081421,0.11981201
1601130646036,168,0.1484375,0.90740967,0.12176514
1601130646037,169,0.1484375,0.90740967,0.12176514
1601130646039,170,0.14453125,0.9113159,0.11590576
1601130646040,171,0.14453125,0.9113159,0.11590576
1601130646046,172,0.15234375,0.9086304,0.113708496
1601130646046,173,0.15234375,0.9086304,0.113708496
1601130646047,174,0.14648438,0.90496826,0.11541748
1601130646047,175,0.14648438,0.90496826,0.11541748
1601130646047,176,0.15429688,0.90667725,0.121276855
1601130646048,177,0.15429688,0.90667725,0.121276855
1601130646048,178,0.15161133,0.9071655,0.11517334
1601130646053,179,0.15209961,0.9039917,0.121520996
1601130646055,180,0.15161133,0.9071655,0.11517334
1601130646056,181,0.15112305,0.902771,0.11810303
1601130646057,182,0.15209961,0.9039917,0.121520996
1601130646062,183,0.15112305,0.902771,0.11810303
1601130646063,184,0.15454102,0.9110718,0.11468506
1601130646065,185,0.15454102,0.9110718,0.11468506
1601130646066,186,0.15234375,0.9052124,0.11785889
1601130646066,187,0.15234375,0.9052124,0.11785889
1601130646068,188,0.15234375,0.9057007,0.11834717
1601130646068,189,0.15234375,0.9057007,0.11834717
1601130646070,190,0.15112305,0.90545654,0.117370605
1601130646071,191,0.15112305,0.90545654,0.117370605
1601130648541,192,0.15454102,0.9081421,0.11419678
1601130648545,193,0.15454102,0.9081421,0.11419678
1601130648545,194,0.1538086,0.9064331,0.11517334
1601130648552,195,0.1550293,0.90740967,0.11224365
1601130648552,196,0.1538086,0.9064331,0.11517334
1601130648557,197,0.1508789,0.9057007,0.113464355
1601130648561,198,0.1550293,0.90740967,0.11224365
1601130648561,199,0.14892578,0.9047241,0.11639404
1601130648563,200,0.1508789,0.9057007,0.113464355
1601130648575,201,0.15161133,0.9088745,0.11541748
1601130648577,202,0.14892578,0.9047241,0.11639404
1601130648578,203,0.15161133,0.9088745,0.11541748
1601130648579,204,0.15429688,0.9047241,0.117126465
1601130648588,205,0.15429688,0.9047241,0.117126465
1601130648588,206,0.15332031,0.9057007,0.113464355
1601130648590,207,0.15209961,0.90960693,0.112976074
1601130648590,208,0.15332031,0.9057007,0.113464355
1601130648596,209,0.15234375,0.90545654,0.1149292
1601130648596,210,0.15209961,0.90960693,0.112976074
1601130648616,211,0.15234375,0.90545654,0.1149292
1601130648616,212,0.15356445,0.9081421,0.11419678
1601130648617,213,0.15356445,0.9081421,0.11419678
1601130648623,214,0.15795898,0.90618896,0.117614746
1601130648625,215,0.15795898,0.90618896,0.117614746
1601130648629,216,0.1550293,0.9069214,0.11395264
1601130648631,217,0.1550293,0.9069214,0.11395264
1601130648631,218,0.15429688,0.9035034,0.11810303
1601130648632,219,0.15429688,0.9035034,0.11810303
1601130648636,220,0.1538086,0.9052124,0.11883545
1601130648637,221,0.1538086,0.9052124,0.11883545
1601130648638,222,0.15356445,0.90448,0.11907959
1601130648639,223,0.15356445,0.90448,0.11907959
1601130648641,224,0.15405273,0.9064331,0.11834717
1601130648654,225,0.15405273,0.9064331,0.11834717
1601130648655,226,0.15405273,0.90618896,0.11077881
1601130648655,227,0.15405273,0.90618896,0.11077881
1601130648656,228,0.15600586,0.90789795,0.113220215
1601130648657,229,0.15600586,0.90789795,0.113220215
1601130648658,230,0.15771484,0.9064331,0.11932373
1601130648661,231,0.1550293,0.90618896,0.11541748
1601130648668,232,0.15771484,0.9064331,0.11932373
1601130648668,233,0.15844727,0.9105835,0.11468506
1601130648669,234,0.1550293,0.90618896,0.11541748
1601130648669,235,0.15332031,0.9057007,0.11395264
1601130648671,236,0.15625,0.9093628,0.1161499
1601130648679,237,0.15844727,0.9105835,0.11468506
1601130648680,238,0.15551758,0.9071655,0.11395264
1601130648681,239,0.15625,0.9047241,0.11541748
1601130648682,240,0.15332031,0.9057007,0.11395264
1601130648685,241,0.15478516,0.9064331,0.11663818
1601130648686,242,0.15625,0.9093628,0.1161499
1601130648694,243,0.15551758,0.9071655,0.11395264
1601130648696,244,0.15185547,0.90789795,0.11444092
1601130648696,245,0.15283203,0.9088745,0.113464355
1601130648697,246,0.15625,0.9047241,0.11541748
1601130648697,247,0.15649414,0.9071655,0.113220215
1601130648700,248,0.15478516,0.9064331,0.11663818
1601130648701,249,0.15185547,0.90789795,0.11444092
1601130648702,250,0.15283203,0.9088745,0.113464355
1601130648704,251,0.15649414,0.9071655,0.113220215
1601130648706,252,0.15209961,0.90618896,0.11517334
1601130648707,253,0.15209961,0.90618896,0.11517334
1601130648709,254,0.15625,0.90740967,0.11444092
1601130648710,255,0.15625,0.90740967,0.11444092
1601130651130,256,0.15405273,0.9064331,0.11468506
1601130651132,257,0.15405273,0.9064331,0.11468506
1601130651132,258,0.15698242,0.91033936,0.11810303
1601130651133,259,0.15698242,0.91033936,0.11810303
1601130651139,260,0.15307617,0.90545654,0.113220215
1601130651141,261,0.15307617,0.90545654,0.113220215
1601130651141,262,0.1550293,0.90789795,0.113464355
1601130651143,263,0.1550293,0.90789795,0.113464355
1601130651145,264,0.15478516,0.9064331,0.11468506
1601130651147,265,0.15478516,0.9064331,0.11468506
1601130651148,266,0.15478516,0.9071655,0.113220215
1601130651153,267,0.15478516,0.9071655,0.113220215
1601130651155,268,0.15356445,0.9088745,0.11224365
1601130651159,269,0.15356445,0.9088745,0.11224365
1601130651159,270,0.15405273,0.90618896,0.113220215
1601130651161,271,0.15429688,0.9047241,0.11224365
1601130651162,272,0.15527344,0.9059448,0.11541748
1601130651164,273,0.1538086,0.9071655,0.11126709
1601130651165,274,0.15405273,0.90618896,0.113220215
1601130651176,275,0.15429688,0.9047241,0.11224365
1601130651176,276,0.15478516,0.90740967,0.11126709
1601130651177,277,0.15161133,0.9069214,0.11395264
1601130651179,278,0.15527344,0.9059448,0.11541748
1601130651179,279,0.15454102,0.9064331,0.11199951
1601130651179,280,0.1538086,0.9071655,0.11126709
1601130651180,281,0.15478516,0.90740967,0.11126709
1601130651184,282,0.15307617,0.9064331,0.11395264
1601130651185,283,0.15161133,0.9069214,0.11395264
1601130651190,284,0.15454102,0.9064331,0.11199951
1601130651191,285,0.1550293,0.9076538,0.11395264
1601130651192,286,0.15307617,0.9064331,0.11395264
1601130651200,287,0.15722656,0.90789795,0.11004639
1601130651201,288,0.15527344,0.9069214,0.11273193
1601130651202,289,0.1550293,0.9076538,0.11395264
1601130651202,290,0.15478516,0.90496826,0.11248779
1601130651203,291,0.15722656,0.90789795,0.11004639
1601130651204,292,0.15527344,0.9069214,0.11273193
1601130651206,293,0.15478516,0.9093628,0.11077881
1601130651208,294,0.15478516,0.90496826,0.11248779
1601130651211,295,0.1574707,0.9064331,0.11126709
1601130651213,296,0.15478516,0.9093628,0.11077881
1601130651214,297,0.15283203,0.90496826,0.11175537
1601130651218,298,0.15527344,0.9069214,0.11468506
1601130651219,299,0.1574707,0.9064331,0.11126709
1601130651219,300,0.15478516,0.90618896,0.11395264
1601130651223,301,0.15722656,0.9057007,0.11199951
1601130651224,302,0.15283203,0.90496826,0.11175537
1601130651225,303,0.15527344,0.9071655,0.11590576
1601130651228,304,0.1550293,0.9057007,0.11102295
1601130651228,305,0.15527344,0.9069214,0.11468506
1601130651230,306,0.1550293,0.9071655,0.113464355
1601130651231,307,0.15478516,0.90618896,0.11395264
1601130651232,308,0.15332031,0.902771,0.11224365
1601130651234,309,0.15722656,0.9057007,0.11199951
1601130651234,310,0.15332031,0.9098511,0.11029053
1601130651237,311,0.15527344,0.9071655,0.11590576
1601130651237,312,0.15771484,0.90448,0.11566162
1601130651238,313,0.1550293,0.9057007,0.11102295
1601130651242,314,0.15478516,0.9035034,0.11663818
1601130651244,315,0.1550293,0.9071655,0.113464355
1601130651244,316,0.15332031,0.902771,0.11224365
1601130651248,317,0.15332031,0.9098511,0.11029053
1601130651250,318,0.15771484,0.90448,0.11566162
1601130651250,319,0.15478516,0.9035034,0.11663818
1601130653707,320,0.15356445,0.90667725,0.109802246
1601130653709,321,0.15429688,0.90618896,0.11199951
1601130653711,322,0.15356445,0.90667725,0.109802246
1601130653712,323,0.15649414,0.90740967,0.11248779
1601130653714,324,0.15429688,0.90618896,0.11199951
1601130653717,325,0.15649414,0.90740967,0.11248779
1601130653718,326,0.15795898,0.902771,0.113464355
1601130653718,327,0.15795898,0.902771,0.113464355
1601130653720,328,0.1508789,0.90740967,0.11224365
1601130653722,329,0.15625,0.90789795,0.113708496
1601130653724,330,0.15673828,0.9086304,0.11175537
1601130653725,331,0.1508789,0.90740967,0.11224365
1601130653727,332,0.15625,0.90789795,0.113708496
1601130653729,333,0.15478516,0.9076538,0.11102295
1601130653731,334,0.15673828,0.9086304,0.11175537
1601130653732,335,0.15673828,0.9057007,0.109313965
1601130653733,336,0.15478516,0.9076538,0.11102295
1601130653734,337,0.1538086,0.9100952,0.109802246
1601130653735,338,0.15673828,0.9057007,0.109313965
1601130653740,339,0.15454102,0.9098511,0.11273193
1601130653741,340,0.1538086,0.9100952,0.109802246
1601130653744,341,0.15454102,0.9098511,0.11273193
1601130653746,342,0.15405273,0.90667725,0.11077881
1601130653746,343,0.15405273,0.90667725,0.11077881
1601130653746,344,0.15844727,0.9100952,0.11224365
1601130653748,345,0.15844727,0.9100952,0.11224365
1601130653748,346,0.15454102,0.9071655,0.11175537
1601130653750,347,0.15356445,0.90545654,0.11151123
1601130653752,348,0.15551758,0.90667725,0.11199951
1601130653753,349,0.15454102,0.9071655,0.11175537
1601130653754,350,0.15454102,0.9069214,0.11566162
1601130653756,351,0.15576172,0.9076538,0.11273193
1601130653757,352,0.14916992,0.90667725,0.11151123
1601130653759,353,0.1550293,0.90838623,0.11224365
1601130653761,354,0.15356445,0.90545654,0.11151123
1601130653762,355,0.15551758,0.9020386,0.11175537
1601130653763,356,0.15551758,0.90667725,0.11199951
1601130653764,357,0.15454102,0.9069214,0.11566162
1601130653766,358,0.15576172,0.9076538,0.11273193
1601130653768,359,0.15551758,0.90423584,0.11077881
1601130653770,360,0.15649414,0.9047241,0.112976074
1601130653771,361,0.14916992,0.90667725,0.11151123
1601130653773,362,0.15844727,0.90374756,0.11175537
1601130653774,363,0.1550293,0.90838623,0.11224365
1601130653775,364,0.15551758,0.9020386,0.11175537
1601130653778,365,0.15551758,0.90423584,0.11077881
1601130653779,366,0.15551758,0.9064331,0.11199951
1601130653783,367,0.15649414,0.9047241,0.112976074
1601130653784,368,0.15844727,0.90374756,0.11175537
1601130653786,369,0.15551758,0.9064331,0.11199951
1601130653786,370,0.15454102,0.90618896,0.11151123
1601130653787,371,0.15917969,0.9047241,0.11053467
1601130653789,372,0.15551758,0.9105835,0.11395264
1601130653792,373,0.15454102,0.90618896,0.11151123
1601130653792,374,0.15527344,0.90496826,0.11907959
1601130653793,375,0.15917969,0.9047241,0.11053467
1601130653795,376,0.15893555,0.9064331,0.109802246
1601130653797,377,0.1550293,0.9032593,0.11248779
1601130653799,378,0.15551758,0.9105835,0.11395264
1601130653800,379,0.15478516,0.9039917,0.11419678
1601130653801,380,0.15527344,0.90496826,0.11907959
1601130653805,381,0.15893555,0.9064331,0.109802246
1601130653808,382,0.1550293,0.9032593,0.11248779
1601130653809,383,0.15478516,0.9039917,0.11419678
1601130656291,384,0.1586914,0.9064331,0.11053467
1601130656291,385,0.1586914,0.9064331,0.11053467
1601130656295,386,0.1586914,0.90423584,0.11468506
1601130656296,387,0.1586914,0.90423584,0.11468506
1601130656299,388,0.15478516,0.90618896,0.11273193
1601130656301,389,0.15478516,0.90618896,0.11273193
1601130656303,390,0.15600586,0.9076538,0.11029053
1601130656306,391,0.15600586,0.9076538,0.11029053
1601130656309,392,0.15673828,0.90545654,0.10882568
1601130656310,393,0.15673828,0.90545654,0.10882568
1601130656310,394,0.15258789,0.9057007,0.11151123
1601130656311,395,0.1574707,0.9064331,0.11126709
1601130656312,396,0.15356445,0.90423584,0.11151123
1601130656314,397,0.1538086,0.90789795,0.11126709
1601130656316,398,0.15258789,0.9057007,0.11151123
1601130656318,399,0.1574707,0.9064331,0.11126709
1601130656319,400,0.15454102,0.90789795,0.11199951
1601130656322,401,0.15356445,0.90423584,0.11151123
1601130656322,402,0.15625,0.9088745,0.11248779
1601130656323,403,0.1538086,0.90789795,0.11126709
1601130656324,404,0.15332031,0.90545654,0.11273193
1601130656327,405,0.15722656,0.90838623,0.109802246
1601130656328,406,0.15454102,0.90789795,0.11199951
1601130656329,407,0.15625,0.9088745,0.11248779
1601130656335,408,0.15698242,0.9064331,0.11175537
1601130656337,409,0.15332031,0.90545654,0.11273193
1601130656337,410,0.15527344,0.90911865,0.10662842
1601130656338,411,0.15722656,0.90838623,0.109802246
1601130656338,412,0.15942383,0.90496826,0.11077881
1601130656338,413,0.15698242,0.9064331,0.11175537
1601130656341,414,0.15527344,0.90911865,0.10662842
1601130656342,415,0.15673828,0.90667725,0.1071167
1601130656345,416,0.15478516,0.9081421,0.11102295
1601130656345,417,0.15942383,0.90496826,0.11077881
1601130656347,418,0.15405273,0.90667725,0.11077881
1601130656349,419,0.1574707,0.9064331,0.1071167
1601130656350,420,0.15673828,0.90667725,0.1071167
1601130656351,421,0.15332031,0.90545654,0.11053467
1601130656352,422,0.15478516,0.9081421,0.11102295
1601130656353,423,0.15625,0.90618896,0.109313965
1601130656356,424,0.15649414,0.9047241,0.109558105
1601130656357,425,0.15405273,0.90667725,0.11077881
1601130656358,426,0.15673828,0.90496826,0.113464355
1601130656363,427,0.15356445,0.90618896,0.10760498
1601130656364,428,0.1574707,0.9064331,0.1071167
1601130656366,429,0.16040039,0.90960693,0.1071167
1601130656368,430,0.15332031,0.90545654,0.11053467
1601130656368,431,0.15625,0.90618896,0.109313965
1601130656369,432,0.15307617,0.9047241,0.11077881
1601130656370,433,0.15649414,0.9047241,0.109558105
1601130656372,434,0.15673828,0.90496826,0.113464355
1601130656373,435,0.15258789,0.9071655,0.109558105
1601130656375,436,0.15356445,0.90618896,0.10760498
1601130656378,437,0.1538086,0.9047241,0.11029053
1601130656380,438,0.16040039,0.90960693,0.1071167
1601130656381,439,0.15478516,0.9069214,0.10882568
1601130656384,440,0.15551758,0.90740967,0.109069824
1601130656384,441,0.15307617,0.9047241,0.11077881
1601130656388,442,0.15258789,0.9071655,0.109558105
1601130656389,443,0.15454102,0.9086304,0.11053467
1601130656393,444,0.1538086,0.9047241,0.11029053
1601130656396,445,0.15478516,0.9069214,0.10882568
1601130656396,446,0.15551758,0.90740967,0.109069824
1601130656397,447,0.15454102,0.9086304,0.11053467
1601130658874,448,0.1574707,0.90496826,0.11029053
1601130658875,449,0.1574707,0.90496826,0.11029053
1601130658877,450,0.15625,0.9081421,0.11126709
1601130658878,451,0.15454102,0.90740967,0.109558105
1601130658881,452,0.15820312,0.9047241,0.11151123
1601130658882,453,0.15625,0.9081421,0.11126709
1601130658886,454,0.15527344,0.9064331,0.11077881
1601130658887,455,0.15454102,0.90740967,0.109558105
1601130658888,456,0.1574707,0.90618896,0.11053467
1601130658889,457,0.15820312,0.9047241,0.11151123
1601130658892,458,0.15527344,0.9064331,0.11077881
1601130658893,459,0.15234375,0.9064331,0.11126709
1601130658894,460,0.1574707,0.90618896,0.11053467
1601130658898,461,0.15234375,0.9064331,0.11126709
1601130658898,462,0.1550293,0.9076538,0.109558105
1601130658900,463,0.1550293,0.9076538,0.109558105
1601130658901,464,0.15625,0.90618896,0.11102295
1601130658902,465,0.15625,0.90618896,0.11102295
1601130658904,466,0.15356445,0.9081421,0.109558105
1601130658907,467,0.15649414,0.9086304,0.10858154
1601130658907,468,0.15356445,0.9081421,0.109558105
1601130658910,469,0.15161133,0.9071655,0.109802246
1601130658911,470,0.15649414,0.9086304,0.10858154
1601130658915,471,0.15576172,0.9059448,0.11102295
1601130658916,472,0.15161133,0.9071655,0.109802246
1601130658918,473,0.15576172,0.9059448,0.11102295
1601130658919,474,0.15356445,0.90789795,0.11004639
1601130658921,475,0.15649414,0.90667725,0.10784912
1601130658922,476,0.15356445,0.90789795,0.11004639
1601130658924,477,0.15478516,0.91033936,0.109069824
1601130658925,478,0.15649414,0.90667725,0.10784912
1601130658934,479,0.15771484,0.9059448,0.10638428
1601130658936,480,0.15478516,0.91033936,0.109069824
1601130658937,481,0.15478516,0.9088745,0.109558105
1601130658937,482,0.15405273,0.9086304,0.105651855
1601130658942,483,0.15771484,0.9059448,0.10638428
1601130658947,484,0.15429688,0.90667725,0.11053467
1601130658951,485,0.15478516,0.9088745,0.109558105
1601130658951,486,0.15258789,0.9059448,0.109069824
1601130658956,487,0.15405273,0.9086304,0.105651855
1601130658956,488,0.15478516,0.90496826,0.10882568
1601130658962,489,0.15429688,0.90667725,0.11053467
1601130658962,490,0.15356445,0.9052124,0.11248779
1601130658965,491,0.15258789,0.9059448,0.109069824
1601130658966,492,0.15698242,0.9088745,0.109558105
1601130658969,493,0.15478516,0.90496826,0.10882568
1601130658970,494,0.15649414,0.9057007,0.105407715
1601130658974,495,0.15258789,0.9088745,0.109069824
1601130658975,496,0.15356445,0.9052124,0.11248779
1601130658979,497,0.1550293,0.9086304,0.109313965
1601130658979,498,0.15698242,0.9088745,0.109558105
1601130658982,499,0.15649414,0.9057007,0.105407715
1601130658987,500,0.15478516,0.9076538,0.10687256
1601130658998,501,0.15454102,0.9071655,0.10858154
1601130658999,502,0.15258789,0.9088745,0.109069824
1601130659001,503,0.15600586,0.90618896,0.10760498
1601130659001,504,0.1550293,0.9086304,0.109313965
1601130659004,505,0.15478516,0.9076538,0.10687256
1601130659006,506,0.15576172,0.9069214,0.109069824
1601130659011,507,0.15454102,0.9071655,0.10858154
1601130659011,508,0.15771484,0.90545654,0.109558105
1601130659012,509,0.15600586,0.90618896,0.10760498
1601130659013,510,0.15576172,0.9069214,0.109069824
1601130659016,511,0.15771484,0.90545654,0.109558105
1601130661457,512,0.15478516,0.9076538,0.1083374
1601130661461,513,0.15478516,0.9076538,0.1083374
1601130661463,514,0.15600586,0.9057007,0.109069824
1601130661464,515,0.15722656,0.9088745,0.10662842
1601130661467,516,0.15600586,0.9057007,0.109069824
1601130661467,517,0.15576172,0.9069214,0.11151123
1601130661469,518,0.15722656,0.9088745,0.10662842
1601130661470,519,0.15576172,0.9069214,0.11151123
1601130661471,520,0.15698242,0.90789795,0.11175537
1601130661475,521,0.15698242,0.90789795,0.11175537
1601130661476,522,0.15942383,0.90618896,0.10858154
1601130661485,523,0.1550293,0.90740967,0.11175537
1601130661486,524,0.15942383,0.90618896,0.10858154
1601130661486,525,0.15625,0.90740967,0.11199951
1601130661487,526,0.1550293,0.90740967,0.11175537
1601130661491,527,0.15771484,0.9071655,0.11053467
1601130661492,528,0.15625,0.90740967,0.11199951
1601130661492,529,0.1586914,0.9076538,0.11175537
1601130661504,530,0.15917969,0.9076538,0.10760498
1601130661510,531,0.15771484,0.90545654,0.11077881
1601130661510,532,0.15771484,0.9071655,0.11053467
1601130661511,533,0.15795898,0.9081421,0.109802246
1601130661521,534,0.15649414,0.90618896,0.105407715
1601130661522,535,0.1586914,0.9076538,0.11175537
1601130661528,536,0.15454102,0.90448,0.1071167
1601130661529,537,0.15917969,0.9076538,0.10760498
1601130661534,538,0.15454102,0.90496826,0.1083374
1601130661535,539,0.15771484,0.90545654,0.11077881
1601130661543,540,0.15795898,0.9081421,0.109802246
1601130661544,541,0.15673828,0.90789795,0.11224365
1601130661544,542,0.15649414,0.90618896,0.105407715
1601130661545,543,0.15698242,0.90789795,0.10662842
1601130661547,544,0.15454102,0.90448,0.1071167
1601130661552,545,0.15600586,0.9088745,0.10247803
1601130661553,546,0.1550293,0.9069214,0.10809326
1601130661553,547,0.15454102,0.90496826,0.1083374
1601130661553,548,0.15356445,0.9069214,0.10614014
1601130661557,549,0.15673828,0.90789795,0.11224365
1601130661561,550,0.15527344,0.9086304,0.10809326
1601130661561,551,0.15698242,0.90789795,0.10662842
1601130661563,552,0.15600586,0.9088745,0.10247803
1601130661566,553,0.1550293,0.90960693,0.10736084
1601130661566,554,0.1550293,0.9069214,0.10809326
1601130661568,555,0.15576172,0.90789795,0.10858154
1601130661570,556,0.15625,0.90960693,0.1083374
1601130661571,557,0.15356445,0.9069214,0.10614014
1601130661573,558,0.15527344,0.9086304,0.10809326
1601130661575,559,0.15698242,0.90838623,0.10809326
1601130661576,560,0.1550293,0.90960693,0.10736084
1601130661578,561,0.15576172,0.90789795,0.10858154
1601130661578,562,0.15283203,0.90667725,0.10418701
1601130661580,563,0.15625,0.90960693,0.1083374
1601130661582,564,0.15600586,0.9098511,0.109802246
1601130661582,565,0.15698242,0.90838623,0.10809326
1601130661584,566,0.15429688,0.9105835,0.1083374
1601130661586,567,0.15429688,0.9069214,0.10687256
1601130661587,568,0.15283203,0.90667725,0.10418701
1601130661590,569,0.15600586,0.9098511,0.109802246
1601130661591,570,0.15283203,0.90789795,0.10687256
1601130661593,571,0.15649414,0.9057007,0.10858154
1601130661596,572,0.15429688,0.9105835,0.1083374
1601130661598,573,0.15429688,0.9069214,0.10687256
1601130661600,574,0.15283203,0.90789795,0.10687256
1601130661602,575,0.15649414,0.9057007,0.10858154
1601130664041,576,0.15551758,0.90667725,0.10760498
1601130664043,577,0.15551758,0.90667725,0.10760498
1601130664044,578,0.15698242,0.90667725,0.10858154
1601130664047,579,0.15625,0.9081421,0.10858154
1601130664051,580,0.15698242,0.90667725,0.10858154
1601130664051,581,0.15649414,0.9098511,0.11029053
1601130664054,582,0.15625,0.9081421,0.10858154
1601130664055,583,0.15527344,0.9081421,0.11053467
1601130664060,584,0.15649414,0.9098511,0.11029053
1601130664060,585,0.15527344,0.9069214,0.1071167
1601130664064,586,0.15356445,0.9086304,0.11077881
1601130664065,587,0.15527344,0.9081421,0.11053467
1601130664068,588,0.1586914,0.9059448,0.109069824
1601130664071,589,0.15527344,0.9069214,0.1071167
1601130664073,590,0.15063477,0.9086304,0.10858154
1601130664075,591,0.15356445,0.9086304,0.11077881
1601130664083,592,0.15771484,0.90667725,0.105651855
1601130664097,593,0.1586914,0.9059448,0.109069824
1601130664098,594,0.15356445,0.9086304,0.10736084
1601130664099,595,0.15063477,0.9086304,0.10858154
1601130664099,596,0.15771484,0.90667725,0.105651855
1601130664101,597,0.15820312,0.9076538,0.109558105
1601130664108,598,0.15356445,0.9086304,0.10736084
1601130664109,599,0.15698242,0.90423584,0.11053467
1601130664117,600,0.15820312,0.9076538,0.109558105
1601130664120,601,0.15209961,0.90911865,0.1083374
1601130664124,602,0.15698242,0.90911865,0.11053467
1601130664128,603,0.15698242,0.90423584,0.11053467
1601130664131,604,0.15209961,0.90911865,0.1083374
1601130664132,605,0.15722656,0.90960693,0.11102295
1601130664134,606,0.15698242,0.90911865,0.11053467
1601130664139,607,0.15673828,0.9064331,0.109313965
1601130664141,608,0.15942383,0.9088745,0.11102295
1601130664143,609,0.15722656,0.90960693,0.11102295
1601130664148,610,0.15673828,0.9064331,0.109313965
1601130664149,611,0.15771484,0.90618896,0.11590576
1601130664151,612,0.15942383,0.9088745,0.11102295
1601130664153,613,0.15771484,0.90618896,0.11590576
1601130664154,614,0.15795898,0.9052124,0.109313965
1601130664159,615,0.15795898,0.9052124,0.109313965
1601130664160,616,0.15722656,0.9069214,0.11102295
1601130664160,617,0.1574707,0.90496826,0.11004639
1601130664165,618,0.15722656,0.9069214,0.11102295
1601130664166,619,0.1574707,0.90496826,0.11004639
1601130664166,620,0.15625,0.90911865,0.109558105
1601130664167,621,0.15625,0.90911865,0.109558105
1601130664170,622,0.1538086,0.9093628,0.1083374
1601130664172,623,0.1586914,0.9059448,0.11273193
1601130664173,624,0.1538086,0.9093628,0.1083374
1601130664176,625,0.15161133,0.9081421,0.10101318
1601130664177,626,0.1586914,0.9059448,0.11273193
1601130664178,627,0.15478516,0.9105835,0.101989746
1601130664179,628,0.15161133,0.9081421,0.10101318
1601130664181,629,0.15258789,0.9098511,0.11126709
1601130664182,630,0.15478516,0.9105835,0.101989746
1601130664183,631,0.16040039,0.9088745,0.1083374
1601130664185,632,0.15258789,0.9098511,0.11126709
1601130664186,633,0.15478516,0.90618896,0.105163574
1601130664186,634,0.16040039,0.9088745,0.1083374
1601130664188,635,0.15478516,0.90618896,0.105163574
1601130664191,636,0.15795898,0.9032593,0.11199951
1601130664192,637,0.15795898,0.9032593,0.11199951
1601130664196,638,0.15795898,0.9086304,0.11004639
1601130664196,639,0.15795898,0.9086304,0.11004639
1601130666627,640,0.15673828,0.9069214,0.11004639
1601130666629,641,0.15673828,0.9069214,0.11004639
1601130666629,642,0.15820312,0.90618896,0.1083374
1601130666637,643,0.15820312,0.90618896,0.1083374
1601130666637,644,0.15551758,0.9076538,0.1149292
1601130666637,645,0.15551758,0.9076538,0.1149292
1601130666637,646,0.15942383,0.90740967,0.11175537
1601130666638,647,0.15942383,0.90740967,0.11175537
1601130666638,648,0.15942383,0.9064331,0.11444092
1601130666640,649,0.15942383,0.9064331,0.11444092
1601130666641,650,0.15698242,0.90301514,0.11419678
1601130666646,651,0.16064453,0.90618896,0.109313965
1601130666647,652,0.15698242,0.90301514,0.11419678
1601130666648,653,0.15625,0.9052124,0.10662842
1601130666649,654,0.16064453,0.90618896,0.109313965
1601130666650,655,0.15893555,0.90374756,0.109802246
1601130666650,656,0.15625,0.9052124,0.10662842
1601130666651,657,0.15795898,0.90667725,0.113464355
1601130666653,658,0.15893555,0.90789795,0.11273193
1601130666654,659,0.15893555,0.90374756,0.109802246
1601130666656,660,0.16113281,0.90960693,0.11199951
1601130666657,661,0.15844727,0.9047241,0.11444092
1601130666658,662,0.15795898,0.90667725,0.113464355
1601130666659,663,0.16015625,0.90667725,0.11273193
1601130666661,664,0.15405273,0.90496826,0.11224365
1601130666663,665,0.15893555,0.90789795,0.11273193
1601130666664,666,0.16113281,0.90960693,0.11199951
1601130666667,667,0.15844727,0.9047241,0.11444092
1601130666668,668,0.15991211,0.9088745,0.109558105
1601130666671,669,0.16015625,0.90667725,0.11273193
1601130666671,670,0.15405273,0.90496826,0.11224365
1601130666673,671,0.15991211,0.9088745,0.109558105
1601130666674,672,0.15722656,0.90496826,0.11199951
1601130666675,673,0.15722656,0.90496826,0.11199951
1601130666677,674,0.15771484,0.90496826,0.11151123
1601130666678,675,0.15429688,0.90545654,0.109313965
1601130666680,676,0.15771484,0.90496826,0.11151123
1601130666681,677,0.15966797,0.90740967,0.11004639
1601130666682,678,0.15429688,0.90545654,0.109313965
1601130666684,679,0.15966797,0.90740967,0.11004639
1601130666685,680,0.15551758,0.90667725,0.11126709
1601130666686,681,0.15551758,0.90667725,0.11126709
1601130666688,682,0.1574707,0.9071655,0.10736084
1601130666691,683,0.1574707,0.9071655,0.10736084
1601130666694,684,0.1538086,0.9064331,0.10858154
1601130666694,685,0.1538086,0.9064331,0.10858154
1601130666695,686,0.15917969,0.9088745,0.10736084
1601130666697,687,0.15917969,0.9088745,0.10736084
1601130666699,688,0.15576172,0.9032593,0.112976074
1601130666700,689,0.15576172,0.9032593,0.112976074
1601130666702,690,0.15820312,0.9039917,0.109558105
1601130666705,691,0.15820312,0.9039917,0.109558105
1601130666707,692,0.15673828,0.9064331,0.11273193
1601130666708,693,0.15673828,0.9064331,0.11273193
1601130666709,694,0.15600586,0.90423584,0.11053467
1601130666711,695,0.15600586,0.90423584,0.11053467
1601130666712,696,0.1550293,0.9047241,0.11102295
1601130666714,697,0.1550293,0.9047241,0.11102295
1601130666719,698,0.15844727,0.90423584,0.109069824
1601130666720,699,0.15844727,0.90423584,0.109069824
1601130666720,700,0.15844727,0.90740967,0.109313965
1601130666722,701,0.15844727,0.90740967,0.109313965
1601130666722,702,0.15576172,0.9064331,0.10736084
1601130666724,703,0.15576172,0.9064331,0.10736084
1601130669207,704,0.15673828,0.9057007,0.10809326
1601130669209,705,0.15673828,0.9057007,0.10809326
1601130669210,706,0.15307617,0.9088745,0.10736084
1601130669211,707,0.15307617,0.9088745,0.10736084
1601130669212,708,0.15771484,0.9076538,0.109558105
1601130669213,709,0.15771484,0.9076538,0.109558105
1601130669217,710,0.15356445,0.9113159,0.10736084
1601130669217,711,0.15356445,0.9113159,0.10736084
1601130669218,712,0.15893555,0.90789795,0.10882568
1601130669219,713,0.15893555,0.90789795,0.10882568
1601130669220,714,0.15258789,0.90740967,0.105163574
1601130669225,715,0.15258789,0.90740967,0.105163574
1601130669225,716,0.15332031,0.90960693,0.10662842
1601130669226,717,0.15307617,0.9081421,0.10882568
1601130669229,718,0.15332031,0.90960693,0.10662842
1601130669229,719,0.15478516,0.9130249,0.10467529
1601130669231,720,0.15942383,0.8998413,0.10809326
1601130669232,721,0.15307617,0.9081421,0.10882568
1601130669233,722,0.15917969,0.90740967,0.11956787
1601130669235,723,0.15478516,0.9130249,0.10467529
1601130669235,724,0.16064453,0.90130615,0.11663818
1601130669238,725,0.16186523,0.9032593,0.11541748
1601130669239,726,0.15942383,0.8998413,0.10809326
1601130669239,727,0.15917969,0.90496826,0.105407715
1601130669241,728,0.1459961,0.9105835,0.105163574
1601130669242,729,0.15917969,0.90740967,0.11956787
1601130669243,730,0.14746094,0.9122925,0.09979248
1601130669245,731,0.14575195,0.91278076,0.094177246
1601130669247,732,0.16064453,0.90130615,0.11663818
1601130669248,733,0.15234375,0.9088745,0.09979248
1601130669250,734,0.14428711,0.90911865,0.09857178
1601130669250,735,0.16186523,0.9032593,0.11541748
1601130669251,736,0.14526367,0.9093628,0.1005249
1601130669254,737,0.15917969,0.90496826,0.105407715
1601130669254,738,0.15258789,0.9088745,0.101257324
1601130669256,739,0.1508789,0.90911865,0.10394287
1601130669257,740,0.1459961,0.9105835,0.105163574
1601130669259,741,0.14746094,0.9122925,0.09979248
1601130669260,742,0.15014648,0.9093628,0.10321045
1601130669263,743,0.14575195,0.91278076,0.094177246
1601130669264,744,0.15283203,0.9093628,0.1005249
1601130669267,745,0.15209961,0.9076538,0.101745605
1601130669267,746,0.15234375,0.9088745,0.09979248
1601130669269,747,0.14428711,0.90911865,0.09857178
1601130669271,748,0.14648438,0.90911865,0.101257324
1601130669273,749,0.14526367,0.9093628,0.1005249
1601130669274,750,0.15258789,0.9088745,0.101257324
1601130669275,751,0.15429688,0.90789795,0.10443115
1601130669277,752,0.14892578,0.9113159,0.10614014
1601130669278,753,0.1508789,0.90911865,0.10394287
1601130669280,754,0.15600586,0.91082764,0.10443115
1601130669281,755,0.15014648,0.9093628,0.10321045
1601130669284,756,0.15234375,0.90667725,0.10736084
1601130669286,757,0.15283203,0.9093628,0.1005249
1601130669286,758,0.15722656,0.90252686,0.10736084
1601130669287,759,0.15209961,0.9076538,0.101745605
1601130669288,760,0.14648438,0.90911865,0.101257324
1601130669290,761,0.15429688,0.90789795,0.10443115
1601130669294,762,0.14892578,0.9113159,0.10614014
1601130669295,763,0.1586914,0.9064331,0.11102295
1601130669298,764,0.15600586,0.91082764,0.10443115
1601130669299,765,0.15234375,0.90667725,0.10736084
1601130669301,766,0.15722656,0.90252686,0.10736084
1601130669304,767,0.1586914,0.9064331,0.11102295
