# Sensor position: Chest
# Sensor side: Right
# Activity type: Sitting bent forward
# Activity code: 4
# Subject id: s1616573
timestamp,seq,accel_x,accel_y,accel_z
1601132058831,0,-0.54541016,-0.8821411,0.011413574
1601132058833,1,-0.546875,-0.88360596,0.018737793
1601132058835,2,-0.5390625,-0.87701416,0.029968262
1601132058838,3,-0.5449219,-0.88287354,0.035827637
1601132058840,4,-0.53637695,-0.8858032,0.027770996
1601132058842,5,-0.53637695,-0.8887329,0.025817871
1601132058845,6,-0.53637695,-0.8858032,0.032409668
1601132058848,7,-0.5383301,-0.8833618,0.032165527
1601132058850,8,-0.5437012,-0.88409424,0.026306152
1601132058852,9,-0.54174805,-0.88238525,0.03387451
1601132058855,10,-0.5390625,-0.8843384,0.030944824
1601132058857,11,-0.5419922,-0.8850708,0.03314209
1601132058860,12,-0.53686523,-0.87823486,0.039733887
1601132058862,13,-0.54248047,-0.88116455,0.035339355
1601132058864,14,-0.5361328,-0.8855591,0.036315918
1601132058867,15,-0.5378418,-0.8862915,0.032165527
1601132058869,16,-0.53759766,-0.8850708,0.03289795
1601132058872,17,-0.5407715,-0.8804321,0.03387451
1601132058875,18,-0.5427246,-0.8843384,0.03387451
1601132058877,19,-0.54125977,-0.8831177,0.035339355
1601132058879,20,-0.5419922,-0.88238525,0.030944824
1601132058881,21,-0.5410156,-0.8826294,0.031188965
1601132058884,22,-0.5422363,-0.88287354,0.034362793
1601132058897,23,-0.5432129,-0.8814087,0.031921387
1601132058903,24,-0.546875,-0.88116455,0.02947998
1601132058906,25,-0.5456543,-0.8814087,0.02508545
1601132058910,26,-0.545166,-0.8809204,0.026062012
1601132058913,27,-0.54296875,-0.87994385,0.026794434
1601132058915,28,-0.54589844,-0.87823486,0.0289917
1601132058918,29,-0.545166,-0.88067627,0.03314209
1601132058920,30,-0.54418945,-0.8796997,0.02923584
1601132058923,31,-0.54541016,-0.88165283,0.028503418
1601132061610,32,-0.54125977,-0.88165283,0.035339355
1601132061611,33,-0.5461426,-0.880188,0.036315918
1601132061613,34,-0.5419922,-0.881897,0.03363037
1601132061615,35,-0.54296875,-0.880188,0.035583496
1601132061617,36,-0.53881836,-0.8814087,0.032165527
1601132061619,37,-0.54052734,-0.88287354,0.0368042
1601132061622,38,-0.54418945,-0.8826294,0.038513184
1601132061623,39,-0.54248047,-0.8845825,0.03753662
1601132061626,40,-0.54174805,-0.88116455,0.036071777
1601132061628,41,-0.5422363,-0.88482666,0.038269043
1601132061630,42,-0.5410156,-0.8821411,0.041931152
1601132061632,43,-0.54248047,-0.88116455,0.04144287
1601132061635,44,-0.5390625,-0.88165283,0.04168701
1601132061637,45,-0.5395508,-0.88409424,0.039489746
1601132061637,46,-0.5385742,-0.88360596,0.04144287
1601132061639,47,-0.54003906,-0.88238525,0.039489746
1601132061642,48,-0.5410156,-0.8831177,0.040222168
1601132061643,49,-0.5378418,-0.88482666,0.042175293
1601132061645,50,-0.5383301,-0.8850708,0.042175293
1601132061647,51,-0.54052734,-0.8855591,0.04119873
1601132061648,52,-0.5407715,-0.8789673,0.043640137
1601132061650,53,-0.5463867,-0.8792114,0.04144287
1601132061652,54,-0.5437012,-0.88165283,0.039245605
1601132061654,55,-0.5407715,-0.8855591,0.03704834
1601132061655,56,-0.5373535,-0.8843384,0.042663574
1601132061657,57,-0.54296875,-0.880188,0.042663574
1601132061659,58,-0.54296875,-0.8804321,0.04534912
1601132061662,59,-0.54125977,-0.88360596,0.04168701
1601132061664,60,-0.54541016,-0.880188,0.034118652
1601132061665,61,-0.5410156,-0.88116455,0.038269043
1601132061667,62,-0.5461426,-0.87945557,0.039733887
1601132061669,63,-0.5463867,-0.8809204,0.039245605
1601132063994,64,-0.5407715,-0.8796997,0.043151855
1601132063997,65,-0.54003906,-0.8809204,0.04119873
1601132064002,66,-0.53881836,-0.87945557,0.04437256
1601132064004,67,-0.54418945,-0.8796997,0.043640137
1601132064010,68,-0.54174805,-0.880188,0.039978027
1601132064012,69,-0.53808594,-0.88482666,0.043884277
1601132064017,70,-0.5383301,-0.88604736,0.042419434
1601132064019,71,-0.54248047,-0.881897,0.039001465
1601132064021,72,-0.5415039,-0.88165283,0.039978027
1601132064023,73,-0.53930664,-0.88067627,0.0446167
1601132064025,74,-0.5397949,-0.88067627,0.04144287
1601132064027,75,-0.5402832,-0.88238525,0.043884277
1601132064029,76,-0.54174805,-0.8821411,0.043395996
1601132064031,77,-0.5378418,-0.8855591,0.04437256
1601132064033,78,-0.5407715,-0.8814087,0.042663574
1601132064035,79,-0.5378418,-0.8821411,0.044128418
1601132064037,80,-0.54003906,-0.88360596,0.04559326
1601132064039,81,-0.5402832,-0.88067627,0.044128418
1601132064042,82,-0.5383301,-0.8850708,0.04510498
1601132064044,83,-0.5378418,-0.8855591,0.044128418
1601132064046,84,-0.5373535,-0.8821411,0.046081543
1601132064048,85,-0.5419922,-0.88409424,0.04486084
1601132064050,86,-0.5390625,-0.8814087,0.047302246
1601132064053,87,-0.53930664,-0.8858032,0.0446167
1601132064055,88,-0.5366211,-0.88482666,0.046813965
1601132064056,89,-0.5385742,-0.88287354,0.0446167
1601132064059,90,-0.5402832,-0.8843384,0.046569824
1601132064061,91,-0.53515625,-0.8831177,0.051208496
1601132064063,92,-0.53881836,-0.8850708,0.044128418
1601132064066,93,-0.53759766,-0.88287354,0.04144287
1601132064068,94,-0.53881836,-0.881897,0.046325684
1601132064070,95,-0.5407715,-0.8821411,0.043395996
1601132066578,96,-0.54052734,-0.88238525,0.043640137
1601132066580,97,-0.53930664,-0.8831177,0.047302246
1601132066582,98,-0.54174805,-0.88238525,0.040222168
1601132066584,99,-0.53881836,-0.8831177,0.039733887
1601132066586,100,-0.5383301,-0.8826294,0.04486084
1601132066588,101,-0.54052734,-0.8833618,0.042419434
1601132066590,102,-0.5432129,-0.8804321,0.042175293
1601132066592,103,-0.5378418,-0.881897,0.04437256
1601132066594,104,-0.5378418,-0.8843384,0.04534912
1601132066596,105,-0.5385742,-0.8845825,0.04168701
1601132066598,106,-0.53759766,-0.881897,0.043640137
1601132066600,107,-0.5395508,-0.88409424,0.04534912
1601132066602,108,-0.5373535,-0.88482666,0.043640137
1601132066604,109,-0.53515625,-0.8855591,0.046325684
1601132066606,110,-0.5371094,-0.8843384,0.04144287
1601132066608,111,-0.5390625,-0.88287354,0.047546387
1601132066609,112,-0.5378418,-0.88409424,0.047302246
1601132066611,113,-0.53686523,-0.8845825,0.046081543
1601132066614,114,-0.5373535,-0.88482666,0.04437256
1601132066615,115,-0.5358887,-0.88287354,0.04876709
1601132066618,116,-0.5407715,-0.8843384,0.04852295
1601132066619,117,-0.5361328,-0.88360596,0.04876709
1601132066621,118,-0.5366211,-0.8855591,0.04437256
1601132066623,119,-0.53686523,-0.8862915,0.043640137
1601132066625,120,-0.5395508,-0.8814087,0.046569824
1601132066627,121,-0.54052734,-0.8833618,0.042907715
1601132066628,122,-0.53930664,-0.881897,0.043884277
1601132066630,123,-0.53686523,-0.88604736,0.04437256
1601132066632,124,-0.5336914,-0.8838501,0.048034668
1601132066633,125,-0.5383301,-0.8843384,0.043884277
1601132066635,126,-0.5371094,-0.88409424,0.046569824
1601132066637,127,-0.5371094,-0.8855591,0.042419434
1601132069162,128,-0.5373535,-0.8858032,0.042175293
1601132069163,129,-0.53881836,-0.88287354,0.041931152
1601132069165,130,-0.53930664,-0.88287354,0.04852295
1601132069167,131,-0.53881836,-0.88165283,0.04534912
1601132069169,132,-0.5407715,-0.88360596,0.043884277
1601132069171,133,-0.53881836,-0.88531494,0.042175293
1601132069172,134,-0.54003906,-0.88116455,0.04437256
1601132069175,135,-0.5427246,-0.8809204,0.043640137
1601132069177,136,-0.5397949,-0.88531494,0.04168701
1601132069179,137,-0.5419922,-0.8833618,0.039978027
1601132069181,138,-0.53930664,-0.88653564,0.04168701
1601132069182,139,-0.54125977,-0.88238525,0.04827881
1601132069184,140,-0.54125977,-0.8833618,0.04437256
1601132069187,141,-0.54052734,-0.88238525,0.04168701
1601132069189,142,-0.5390625,-0.8843384,0.04095459
1601132069190,143,-0.5371094,-0.8831177,0.0446167
1601132069191,144,-0.5383301,-0.8833618,0.04559326
1601132069193,145,-0.5358887,-0.8850708,0.04437256
1601132069195,146,-0.5378418,-0.8833618,0.043151855
1601132069197,147,-0.5383301,-0.88409424,0.046813965
1601132069199,148,-0.53686523,-0.8845825,0.046569824
1601132069201,149,-0.53515625,-0.8833618,0.04876709
1601132069202,150,-0.54003906,-0.88360596,0.048034668
1601132069204,151,-0.54003906,-0.88165283,0.04559326
1601132069206,152,-0.53881836,-0.88604736,0.042175293
1601132069209,153,-0.5354004,-0.8838501,0.04827881
1601132069211,154,-0.53686523,-0.8814087,0.044128418
1601132069213,155,-0.53344727,-0.88604736,0.05218506
1601132069214,156,-0.5397949,-0.88409424,0.048034668
1601132069216,157,-0.5407715,-0.88409424,0.043640137
1601132069218,158,-0.5358887,-0.8833618,0.05218506
1601132069220,159,-0.5390625,-0.8833618,0.049743652
1601132071746,160,-0.5371094,-0.8850708,0.04852295
1601132071747,161,-0.5361328,-0.88360596,0.04901123
1601132071750,162,-0.53759766,-0.8843384,0.050964355
1601132071753,163,-0.53686523,-0.88165283,0.054138184
1601132071755,164,-0.53466797,-0.88531494,0.04901123
1601132071757,165,-0.53808594,-0.8826294,0.050964355
1601132071760,166,-0.5402832,-0.8826294,0.04852295
1601132071761,167,-0.54003906,-0.8821411,0.050476074
1601132071763,168,-0.5419922,-0.8796997,0.05316162
1601132071765,169,-0.5397949,-0.88238525,0.05633545
1601132071767,170,-0.5402832,-0.8855591,0.05340576
1601132071769,171,-0.5410156,-0.8831177,0.050964355
1601132071771,172,-0.53759766,-0.8826294,0.051940918
1601132071772,173,-0.53881836,-0.880188,0.05267334
1601132071774,174,-0.532959,-0.880188,0.050476074
1601132071776,175,-0.53515625,-0.8850708,0.050476074
1601132071779,176,-0.53637695,-0.8845825,0.05291748
1601132071781,177,-0.5397949,-0.87994385,0.05291748
1601132071783,178,-0.5390625,-0.88165283,0.051696777
1601132071785,179,-0.53637695,-0.8814087,0.05316162
1601132071787,180,-0.5427246,-0.8796997,0.05657959
1601132071788,181,-0.5415039,-0.881897,0.04925537
1601132071790,182,-0.53881836,-0.8814087,0.057800293
1601132071792,183,-0.5361328,-0.8814087,0.050231934
1601132071793,184,-0.5336914,-0.88482666,0.047790527
1601132071795,185,-0.53808594,-0.8814087,0.04852295
1601132071797,186,-0.5383301,-0.8833618,0.049743652
1601132071799,187,-0.5395508,-0.87945557,0.04901123
1601132071800,188,-0.5373535,-0.8833618,0.047546387
1601132071803,189,-0.5390625,-0.8833618,0.04437256
1601132071804,190,-0.5415039,-0.88165283,0.04437256
1601132071805,191,-0.5361328,-0.88165283,0.054870605
1601132074528,192,-0.5415039,-0.881897,0.05218506
1601132074531,193,-0.5407715,-0.8843384,0.047546387
1601132074534,194,-0.54003906,-0.8821411,0.046081543
1601132074536,195,-0.5397949,-0.87945557,0.04901123
1601132074539,196,-0.54052734,-0.880188,0.050964355
1601132074541,197,-0.54052734,-0.88116455,0.051208496
1601132074544,198,-0.54467773,-0.87823486,0.046813965
1601132074547,199,-0.5427246,-0.880188,0.047058105
1601132074549,200,-0.5402832,-0.88409424,0.0524292
1601132074551,201,-0.54345703,-0.88067627,0.0524292
1601132074554,202,-0.54174805,-0.8804321,0.04534912
1601132074557,203,-0.5415039,-0.8809204,0.051208496
1601132074560,204,-0.53930664,-0.881897,0.047546387
1601132074562,205,-0.5410156,-0.87994385,0.047058105
1601132074565,206,-0.5415039,-0.8804321,0.050964355
1601132074568,207,-0.54003906,-0.87994385,0.05657959
1601132074571,208,-0.5422363,-0.8821411,0.051452637
1601132074574,209,-0.5390625,-0.88604736,0.04925537
1601132074576,210,-0.5395508,-0.88238525,0.051940918
1601132074579,211,-0.5432129,-0.87994385,0.048034668
1601132074581,212,-0.5410156,-0.8821411,0.04925537
1601132074583,213,-0.5371094,-0.8821411,0.047058105
1601132074586,214,-0.5366211,-0.88409424,0.05291748
1601132074589,215,-0.5422363,-0.88360596,0.055358887
1601132074591,216,-0.5415039,-0.8792114,0.046081543
1601132074594,217,-0.5385742,-0.88238525,0.050964355
1601132074596,218,-0.5402832,-0.880188,0.051208496
1601132074599,219,-0.53759766,-0.8831177,0.047058105
1601132074602,220,-0.5366211,-0.8814087,0.051940918
1601132074606,221,-0.53930664,-0.88360596,0.046325684
1601132074609,222,-0.53930664,-0.8814087,0.046081543
1601132074611,223,-0.5432129,-0.881897,0.04852295
1601132076913,224,-0.53808594,-0.8804321,0.049743652
1601132076917,225,-0.5410156,-0.88360596,0.05218506
1601132076920,226,-0.5402832,-0.880188,0.051696777
1601132076924,227,-0.5390625,-0.8814087,0.051940918
1601132076926,228,-0.5419922,-0.8809204,0.053649902
1601132076929,229,-0.5395508,-0.88238525,0.04925537
1601132076931,230,-0.54418945,-0.8804321,0.051452637
1601132076934,231,-0.5437012,-0.8809204,0.051940918
1601132076936,232,-0.5422363,-0.87945557,0.054626465
1601132076939,233,-0.5439453,-0.8796997,0.0524292
1601132076941,234,-0.54345703,-0.87994385,0.055847168
1601132076943,235,-0.54296875,-0.87823486,0.05657959
1601132076946,236,-0.54174805,-0.87994385,0.05633545
1601132076948,237,-0.5432129,-0.87945557,0.05267334
1601132076950,238,-0.54052734,-0.88287354,0.053649902
1601132076954,239,-0.5427246,-0.8804321,0.054138184
1601132076957,240,-0.5410156,-0.88067627,0.055358887
1601132076959,241,-0.5395508,-0.881897,0.054382324
1601132076962,242,-0.5410156,-0.8821411,0.051940918
1601132076964,243,-0.5397949,-0.8814087,0.051452637
1601132076966,244,-0.54125977,-0.88116455,0.05682373
1601132076967,245,-0.54174805,-0.8804321,0.054626465
1601132076970,246,-0.5390625,-0.8804321,0.05633545
1601132076971,247,-0.5373535,-0.88360596,0.05633545
1601132076973,248,-0.5378418,-0.8838501,0.051208496
1601132076975,249,-0.5407715,-0.88116455,0.055358887
1601132076977,250,-0.5410156,-0.88287354,0.05609131
1601132076979,251,-0.5402832,-0.8826294,0.053894043
1601132076980,252,-0.53686523,-0.8838501,0.051208496
1601132076982,253,-0.5358887,-0.8843384,0.053649902
1601132076984,254,-0.5361328,-0.88165283,0.05657959
1601132076986,255,-0.5361328,-0.8796997,0.057800293
1601132079497,256,-0.5361328,-0.88409424,0.054626465
1601132079499,257,-0.53759766,-0.8831177,0.053649902
1601132079501,258,-0.5371094,-0.88360596,0.05731201
1601132079502,259,-0.5378418,-0.88287354,0.058532715
1601132079503,260,-0.5385742,-0.8833618,0.05609131
1601132079506,261,-0.53808594,-0.8826294,0.05267334
1601132079508,262,-0.5383301,-0.8838501,0.04949951
1601132079511,263,-0.5383301,-0.88116455,0.055114746
1601132079514,264,-0.53930664,-0.8809204,0.05267334
1601132079516,265,-0.5410156,-0.8814087,0.054626465
1601132079519,266,-0.53930664,-0.88165283,0.050476074
1601132079521,267,-0.54248047,-0.8809204,0.049987793
1601132079524,268,-0.5383301,-0.88287354,0.05291748
1601132079527,269,-0.53930664,-0.8777466,0.054870605
1601132079529,270,-0.54125977,-0.88165283,0.054870605
1601132079532,271,-0.5373535,-0.8814087,0.058044434
1601132079535,272,-0.5390625,-0.88165283,0.051452637
1601132079537,273,-0.5366211,-0.8826294,0.05291748
1601132079540,274,-0.54003906,-0.8814087,0.054626465
1601132079542,275,-0.53808594,-0.87994385,0.054626465
1601132079545,276,-0.5390625,-0.8838501,0.051208496
1601132079547,277,-0.54052734,-0.87994385,0.050231934
1601132079550,278,-0.5395508,-0.881897,0.047790527
1601132079553,279,-0.54003906,-0.88067627,0.05291748
1601132079555,280,-0.53808594,-0.8809204,0.05291748
1601132079557,281,-0.53637695,-0.88360596,0.050231934
1601132079560,282,-0.5390625,-0.8833618,0.050476074
1601132079569,283,-0.5358887,-0.881897,0.051208496
1601132079571,284,-0.5407715,-0.88238525,0.055847168
1601132079573,285,-0.5378418,-0.88238525,0.055358887
1601132079575,286,-0.5358887,-0.88287354,0.055603027
1601132079578,287,-0.53881836,-0.88409424,0.054138184
1601132082279,288,-0.5373535,-0.88360596,0.055358887
1601132082281,289,-0.53564453,-0.88067627,0.0524292
1601132082283,290,-0.53759766,-0.881897,0.055114746
1601132082285,291,-0.5354004,-0.88360596,0.050476074
1601132082287,292,-0.53637695,-0.8843384,0.0524292
1601132082288,293,-0.53564453,-0.88409424,0.053894043
1601132082290,294,-0.5385742,-0.88067627,0.051696777
1601132082292,295,-0.5397949,-0.88360596,0.055847168
1601132082294,296,-0.5397949,-0.8826294,0.055358887
1601132082295,297,-0.53759766,-0.8826294,0.05291748
1601132082298,298,-0.5419922,-0.880188,0.04949951
1601132082300,299,-0.5378418,-0.8826294,0.051940918
1601132082301,300,-0.5422363,-0.880188,0.05731201
1601132082303,301,-0.54174805,-0.88116455,0.054382324
1601132082305,302,-0.5422363,-0.87994385,0.04901123
1601132082308,303,-0.54052734,-0.87750244,0.04876709
1601132082310,304,-0.5410156,-0.87945557,0.0524292
1601132082311,305,-0.54052734,-0.880188,0.054382324
1601132082313,306,-0.5410156,-0.8809204,0.057556152
1601132082315,307,-0.5415039,-0.8826294,0.051940918
1601132082318,308,-0.5407715,-0.881897,0.04827881
1601132082320,309,-0.53930664,-0.8796997,0.050720215
1601132082322,310,-0.5397949,-0.88165283,0.055358887
1601132082323,311,-0.5378418,-0.8821411,0.050231934
1601132082325,312,-0.5410156,-0.88360596,0.05218506
1601132082327,313,-0.54003906,-0.88287354,0.049987793
1601132082328,314,-0.53686523,-0.8838501,0.05291748
1601132082334,315,-0.53808594,-0.8814087,0.051696777
1601132082335,316,-0.5366211,-0.8850708,0.05731201
1601132082338,317,-0.53686523,-0.88116455,0.050231934
1601132082339,318,-0.5366211,-0.8843384,0.055358887
1601132082341,319,-0.53637695,-0.88165283,0.055603027
1601132084664,320,-0.53637695,-0.8821411,0.05316162
1601132084668,321,-0.5366211,-0.88482666,0.05291748
1601132084669,322,-0.53393555,-0.88409424,0.053649902
1601132084671,323,-0.53515625,-0.8833618,0.05633545
1601132084673,324,-0.53686523,-0.881897,0.053649902
1601132084675,325,-0.5371094,-0.88482666,0.05291748
1601132084677,326,-0.53686523,-0.8831177,0.049987793
1601132084679,327,-0.5385742,-0.88238525,0.046569824
1601132084680,328,-0.5383301,-0.8809204,0.050964355
1601132084682,329,-0.54125977,-0.8792114,0.04949951
1601132084685,330,-0.5415039,-0.8809204,0.045837402
1601132084687,331,-0.5407715,-0.88165283,0.043640137
1601132084689,332,-0.5395508,-0.8821411,0.047790527
1601132084690,333,-0.5419922,-0.880188,0.048034668
1601132084692,334,-0.5397949,-0.8796997,0.049743652
1601132084694,335,-0.5422363,-0.88287354,0.04876709
1601132084696,336,-0.54248047,-0.8821411,0.0446167
1601132084698,337,-0.54003906,-0.8804321,0.04949951
1601132084700,338,-0.5439453,-0.8814087,0.053894043
1601132084702,339,-0.54248047,-0.8809204,0.04827881
1601132084704,340,-0.5397949,-0.88238525,0.051452637
1601132084706,341,-0.53930664,-0.88360596,0.04901123
1601132084709,342,-0.54003906,-0.88116455,0.051696777
1601132084710,343,-0.53808594,-0.8838501,0.05291748
1601132084712,344,-0.54125977,-0.88067627,0.05267334
1601132084713,345,-0.5383301,-0.8855591,0.045837402
1601132084716,346,-0.53637695,-0.8850708,0.050964355
1601132084717,347,-0.5373535,-0.8826294,0.051452637
1601132084719,348,-0.53637695,-0.8845825,0.051940918
1601132084720,349,-0.5378418,-0.881897,0.05291748
1601132084722,350,-0.53686523,-0.8845825,0.05316162
1601132084724,351,-0.5383301,-0.8826294,0.055847168
1601132087248,352,-0.5378418,-0.8826294,0.05999756
1601132087251,353,-0.53759766,-0.8831177,0.04949951
1601132087254,354,-0.5378418,-0.88287354,0.0524292
1601132087263,355,-0.5336914,-0.88238525,0.059753418
1601132087267,356,-0.5336914,-0.8843384,0.06072998
1601132087269,357,-0.5354004,-0.88409424,0.059509277
1601132087272,358,-0.53564453,-0.88482666,0.05731201
1601132087275,359,-0.53637695,-0.88409424,0.061706543
1601132087278,360,-0.5361328,-0.88165283,0.059020996
1601132087281,361,-0.5349121,-0.88287354,0.059265137
1601132087285,362,-0.5373535,-0.88409424,0.055847168
1601132087287,363,-0.5378418,-0.88360596,0.051696777
1601132087290,364,-0.53466797,-0.8804321,0.05609131
1601132087290,365,-0.5410156,-0.8833618,0.058288574
1601132087293,366,-0.53686523,-0.8821411,0.055603027
1601132087294,367,-0.5383301,-0.8826294,0.05633545
1601132087296,368,-0.5349121,-0.8831177,0.05682373
1601132087298,369,-0.53637695,-0.8826294,0.059753418
1601132087300,370,-0.5354004,-0.8821411,0.062438965
1601132087302,371,-0.53808594,-0.88604736,0.05682373
1601132087305,372,-0.532959,-0.8858032,0.059509277
1601132087307,373,-0.53393555,-0.88409424,0.059265137
1601132087308,374,-0.5366211,-0.8838501,0.06048584
1601132087310,375,-0.5354004,-0.88482666,0.0602417
1601132087312,376,-0.5324707,-0.8843384,0.06048584
1601132087314,377,-0.5366211,-0.88409424,0.05706787
1601132087316,378,-0.532959,-0.8845825,0.06488037
1601132087318,379,-0.53686523,-0.8833618,0.06097412
1601132087319,380,-0.53222656,-0.8845825,0.06121826
1601132087321,381,-0.53100586,-0.8838501,0.06097412
1601132087323,382,-0.5341797,-0.88165283,0.06121826
1601132087324,383,-0.5300293,-0.8862915,0.061950684
