# Sensor position: Chest
# Sensor side: Left
# Activity type: Standing
# Activity code: 100
# Subject id: s1616573
timestamp,seq,accel_x,accel_y,accel_z
1605057834276,0,-0.09790039,-0.96661377,0.2662964
1605057834354,1,-0.10131836,-0.9680786,0.26190186
1605057834433,2,-0.10131836,-0.9668579,0.26068115
1605057834512,3,-0.09814453,-0.9680786,0.25750732
1605057834591,4,-0.09765625,-0.96661377,0.25701904
1605057834669,5,-0.09692383,-0.9678345,0.26385498
1605057834748,6,-0.09838867,-0.96759033,0.26068115
1605057834827,7,-0.09667969,-0.9668579,0.26385498
1605057834906,8,-0.10058594,-0.96588135,0.2579956
1605057834984,9,-0.099853516,-0.96588135,0.26409912
1605057835063,10,-0.09814453,-0.9656372,0.2597046
1605057835142,11,-0.09716797,-0.96588135,0.26312256
1605057835221,12,-0.096191406,-0.96539307,0.26019287
1605057835299,13,-0.095703125,-0.96539307,0.26361084
1605057835378,14,-0.09667969,-0.9661255,0.2645874
1605057835457,15,-0.09887695,-0.9661255,0.26141357
1605057835536,16,-0.09277344,-0.96832275,0.26507568
1605057835614,17,-0.092285156,-0.96661377,0.2592163
1605057835693,18,-0.09423828,-0.96881104,0.262146
1605057835772,19,-0.09692383,-0.9673462,0.262146
1605057835851,20,-0.099365234,-0.9673462,0.26556396
1605057835929,21,-0.092285156,-0.96759033,0.26483154
1605057836008,22,-0.095214844,-0.9668579,0.2645874
1605057836087,23,-0.08886719,-0.96466064,0.26849365
1605057836166,24,-0.08959961,-0.9644165,0.26727295
1605057836244,25,-0.09643555,-0.96417236,0.2616577
1605057836323,26,-0.092041016,-0.9656372,0.2694702
1605057836402,27,-0.09301758,-0.96661377,0.26483154
1605057836481,28,-0.095458984,-0.96588135,0.2675171
1605057836559,29,-0.09863281,-0.9631958,0.26531982
1605057836638,30,-0.09448242,-0.96759033,0.27020264
1605057836717,31,-0.09667969,-0.9644165,0.26678467
1605057836796,32,-0.10180664,-0.96417236,0.26409912
1605057836874,33,-0.095458984,-0.96710205,0.2662964
1605057836953,34,-0.09765625,-0.9663696,0.26654053
1605057837032,35,-0.103271484,-0.96417236,0.26434326
1605057837111,36,-0.09326172,-0.96881104,0.2687378
1605057837189,37,-0.099365234,-0.96954346,0.27044678
1605057837268,38,-0.104003906,-0.9644165,0.26531982
1605057837347,39,-0.1015625,-0.96710205,0.26605225
1605057837426,40,-0.09692383,-0.9639282,0.26849365
1605057837504,41,-0.100097656,-0.96588135,0.26312256
1605057837583,42,-0.09301758,-0.9619751,0.27166748
1605057837662,43,-0.10205078,-0.9656372,0.262146
1605057837741,44,-0.10107422,-0.96539307,0.2670288
1605057837819,45,-0.095947266,-0.9663696,0.2699585
1605057837898,46,-0.09765625,-0.96295166,0.26654053
1605057837977,47,-0.1003418,-0.9644165,0.26776123
1605057838056,48,-0.09887695,-0.96295166,0.26678467
1605057838134,49,-0.100097656,-0.9651489,0.26776123
1605057838213,50,-0.095458984,-0.9651489,0.26434326
1605057838292,51,-0.1003418,-0.9656372,0.25994873
1605057838371,52,-0.09716797,-0.9680786,0.27191162
1605057838449,53,-0.0949707,-0.9656372,0.26385498
1605057838528,54,-0.099853516,-0.96588135,0.26654053
1605057838607,55,-0.09301758,-0.96661377,0.2682495
1605057838686,56,-0.095214844,-0.9656372,0.26971436
1605057838764,57,-0.09716797,-0.9663696,0.2675171
1605057838843,58,-0.095703125,-0.9644165,0.26898193
1605057838922,59,-0.09350586,-0.9651489,0.27044678
1605057839001,60,-0.092041016,-0.9651489,0.27313232
1605057839079,61,-0.09277344,-0.9612427,0.26971436
1605057839158,62,-0.09106445,-0.96466064,0.276062
1605057839237,63,-0.08984375,-0.9651489,0.26263428
1605057839316,64,-0.091796875,-0.9668579,0.2699585
1605057839394,65,-0.091796875,-0.9656372,0.27020264
1605057839473,66,-0.088134766,-0.9636841,0.2675171
1605057839552,67,-0.09326172,-0.96710205,0.27093506
1605057839631,68,-0.09008789,-0.96343994,0.27288818
1605057839709,69,-0.09082031,-0.9651489,0.27288818
1605057839788,70,-0.08959961,-0.9663696,0.27069092
1605057839867,71,-0.09423828,-0.9636841,0.26849365
1605057839946,72,-0.09326172,-0.9661255,0.2765503
1605057840024,73,-0.0949707,-0.96588135,0.26507568
1605057840103,74,-0.09643555,-0.9639282,0.27557373
1605057840182,75,-0.095947266,-0.96466064,0.2789917
1605057840261,76,-0.09643555,-0.96173096,0.2736206
1605057840339,77,-0.10131836,-0.9636841,0.2748413
1605057840418,78,-0.09887695,-0.96417236,0.2736206
1605057840497,79,-0.10107422,-0.96466064,0.2741089
1605057840576,80,-0.09887695,-0.9661255,0.27191162
1605057840654,81,-0.10131836,-0.96588135,0.2723999
1605057840733,82,-0.10253906,-0.96295166,0.26727295
1605057840812,83,-0.099121094,-0.9673462,0.2694702
1605057840891,84,-0.100097656,-0.9631958,0.27508545
1605057840969,85,-0.10083008,-0.96466064,0.27313232
1605057841048,86,-0.10083008,-0.9661255,0.27508545
1605057841127,87,-0.10107422,-0.9578247,0.27947998
1605057841206,88,-0.107421875,-0.960022,0.27703857
1605057841284,89,-0.10644531,-0.96295166,0.27679443
1605057841363,90,-0.10668945,-0.9619751,0.27923584
1605057841442,91,-0.10620117,-0.96173096,0.28118896
1605057841521,92,-0.103759766,-0.96466064,0.27679443
1605057841599,93,-0.1081543,-0.9595337,0.28411865
1605057841678,94,-0.10522461,-0.9614868,0.27508545
1605057841757,95,-0.1027832,-0.9602661,0.2814331
1605057841836,96,-0.10595703,-0.956604,0.27996826
1605057841914,97,-0.103271484,-0.96343994,0.28094482
1605057841993,98,-0.10522461,-0.96466064,0.28631592
1605057842072,99,-0.10449219,-0.95758057,0.2765503
1605057842151,100,-0.10668945,-0.9607544,0.28289795
1605057842229,101,-0.1015625,-0.9614868,0.28411865
1605057842308,102,-0.1003418,-0.960022,0.28656006
1605057842387,103,-0.104003906,-0.96099854,0.2789917
1605057842466,104,-0.1015625,-0.95928955,0.2814331
1605057842544,105,-0.103271484,-0.9595337,0.2789917
1605057842623,106,-0.10473633,-0.9619751,0.277771
1605057842702,107,-0.10229492,-0.96466064,0.2789917
1605057842781,108,-0.10424805,-0.9612427,0.2814331
1605057842859,109,-0.10498047,-0.96099854,0.28118896
1605057842938,110,-0.10644531,-0.95928955,0.27752686
1605057843017,111,-0.107421875,-0.9619751,0.28289795
1605057843096,112,-0.107421875,-0.95977783,0.28216553
1605057843174,113,-0.107666016,-0.9624634,0.28094482
1605057843253,114,-0.10864258,-0.95977783,0.2765503
1605057843332,115,-0.10424805,-0.96295166,0.27703857
1605057843411,116,-0.10668945,-0.96173096,0.27996826
1605057843489,117,-0.111572266,-0.96099854,0.2843628
1605057843568,118,-0.106933594,-0.960022,0.277771
1605057843647,119,-0.1105957,-0.9602661,0.28607178
1605057843726,120,-0.11010742,-0.9612427,0.2748413
1605057843804,121,-0.10913086,-0.96417236,0.27972412
1605057843883,122,-0.107666016,-0.9607544,0.27947998
1605057843962,123,-0.107666016,-0.9636841,0.27874756
1605057844041,124,-0.10839844,-0.9607544,0.277771
1605057844119,125,-0.10668945,-0.9612427,0.2819214
1605057844198,126,-0.10424805,-0.9595337,0.27825928
1605057844277,127,-0.11035156,-0.9627075,0.2789917
1605057844356,128,-0.104003906,-0.96295166,0.28094482
1605057844434,129,-0.10229492,-0.9614868,0.27947998
1605057844513,130,-0.1105957,-0.96221924,0.27825928
1605057844592,131,-0.103515625,-0.9607544,0.277771
1605057844671,132,-0.10449219,-0.96295166,0.2789917
1605057844749,133,-0.10522461,-0.96417236,0.277771
1605057844828,134,-0.10498047,-0.96051025,0.2765503
1605057844907,135,-0.10205078,-0.96051025,0.28533936
1605057844986,136,-0.10180664,-0.9639282,0.2765503
1605057845064,137,-0.10449219,-0.9612427,0.2831421
1605057845143,138,-0.10131836,-0.96295166,0.28460693
1605057845222,139,-0.09765625,-0.9573364,0.28289795
1605057845301,140,-0.10083008,-0.9602661,0.2826538
1605057845379,141,-0.1003418,-0.96051025,0.27801514
1605057845458,142,-0.10229492,-0.96099854,0.28656006
1605057845537,143,-0.10131836,-0.95928955,0.28485107
1605057845616,144,-0.10083008,-0.95806885,0.28631592
1605057845694,145,-0.100097656,-0.96221924,0.2838745
1605057845773,146,-0.099853516,-0.96221924,0.27459717
1605057845852,147,-0.10131836,-0.9624634,0.2831421
1605057845931,148,-0.10229492,-0.96343994,0.27825928
1605057846009,149,-0.10107422,-0.96099854,0.277771
1605057846088,150,-0.10546875,-0.9619751,0.28045654
1605057846167,151,-0.10546875,-0.960022,0.27850342
1605057846246,152,-0.10473633,-0.9627075,0.27972412
1605057846324,153,-0.10253906,-0.96173096,0.28118896
1605057846403,154,-0.10522461,-0.9595337,0.27679443
1605057846482,155,-0.10424805,-0.9627075,0.27972412
1605057846561,156,-0.10498047,-0.9590454,0.2753296
1605057846639,157,-0.107910156,-0.9649048,0.27972412
1605057846718,158,-0.10571289,-0.9627075,0.27679443
1605057846797,159,-0.1015625,-0.9644165,0.2789917
1605057846876,160,-0.10473633,-0.96466064,0.276062
1605057846968,161,-0.110839844,-0.9636841,0.27020264
1605057847061,162,-0.10595703,-0.96173096,0.276062
1605057847154,163,-0.10595703,-0.96417236,0.27801514
1605057847247,164,-0.103515625,-0.9619751,0.27850342
1605057847340,165,-0.10864258,-0.9649048,0.27850342
1605057847433,166,-0.10449219,-0.9619751,0.27459717
1605057847526,167,-0.10961914,-0.9627075,0.27459717
1605057847619,168,-0.10644531,-0.96343994,0.27752686
1605057847711,169,-0.10473633,-0.9627075,0.27801514
1605057847804,170,-0.10839844,-0.9636841,0.27508545
1605057847897,171,-0.10668945,-0.96173096,0.27874756
1605057847990,172,-0.10913086,-0.9624634,0.27850342
1605057848083,173,-0.107910156,-0.9627075,0.2748413
1605057848176,174,-0.107666016,-0.9649048,0.276062
1605057848269,175,-0.10498047,-0.9602661,0.27459717
1605057848362,176,-0.10253906,-0.96466064,0.27557373
1605057848454,177,-0.103515625,-0.96051025,0.2838745
1605057848547,178,-0.10571289,-0.9649048,0.2789917
1605057848640,179,-0.1003418,-0.96343994,0.277771
1605057848733,180,-0.09838867,-0.96051025,0.28240967
1605057848826,181,-0.10424805,-0.96099854,0.2802124
1605057848919,182,-0.103027344,-0.96099854,0.27923584
1605057849012,183,-0.10229492,-0.9614868,0.277771
1605057849105,184,-0.10205078,-0.96051025,0.27947998
1605057849197,185,-0.09863281,-0.9619751,0.27752686
1605057849290,186,-0.09838867,-0.9614868,0.28363037
1605057849383,187,-0.10058594,-0.96417236,0.27337646
1605057849476,188,-0.10449219,-0.9624634,0.27581787
1605057849569,189,-0.1015625,-0.96417236,0.27801514
1605057849662,190,-0.103027344,-0.9639282,0.27557373
1605057849755,191,-0.103515625,-0.96588135,0.276062
1605057849848,192,-0.1003418,-0.9607544,0.2741089
1605057849926,193,-0.09887695,-0.96221924,0.2748413
1605057850005,194,-0.099853516,-0.9656372,0.27337646
1605057850084,195,-0.09765625,-0.9639282,0.26776123
1605057850163,196,-0.10058594,-0.96661377,0.26971436
1605057850241,197,-0.100097656,-0.96588135,0.27288818
1605057850320,198,-0.095458984,-0.9631958,0.2748413
1605057850399,199,-0.099853516,-0.9673462,0.27313232
1605057850478,200,-0.09692383,-0.96539307,0.27044678
1605057850556,201,-0.095703125,-0.9649048,0.27044678
1605057850635,202,-0.10083008,-0.96539307,0.26776123
1605057850714,203,-0.09887695,-0.9649048,0.27093506
1605057850793,204,-0.099853516,-0.96173096,0.27557373
1605057850871,205,-0.103027344,-0.9636841,0.27337646
1605057850950,206,-0.1015625,-0.9624634,0.2711792
1605057851029,207,-0.1027832,-0.96417236,0.27508545
1605057851108,208,-0.103759766,-0.9644165,0.27020264
1605057851186,209,-0.10180664,-0.9624634,0.27459717
1605057851265,210,-0.103027344,-0.96466064,0.277771
1605057851344,211,-0.104003906,-0.9636841,0.27191162
1605057851423,212,-0.1015625,-0.96221924,0.27825928
1605057851501,213,-0.103515625,-0.96173096,0.27508545
1605057851580,214,-0.103515625,-0.96295166,0.27996826
1605057851659,215,-0.100097656,-0.9614868,0.27947998
1605057851738,216,-0.099365234,-0.96221924,0.277771
1605057851816,217,-0.099121094,-0.9612427,0.27557373
1605057851895,218,-0.09716797,-0.9636841,0.28216553
1605057851974,219,-0.09814453,-0.9627075,0.27166748
1605057852053,220,-0.09399414,-0.9639282,0.27264404
1605057852131,221,-0.09399414,-0.96343994,0.27996826
1605057852210,222,-0.095703125,-0.9624634,0.2789917
1605057852289,223,-0.099609375,-0.96539307,0.2802124
1605057852368,224,-0.09472656,-0.9614868,0.27386475
1605057852446,225,-0.10107422,-0.9624634,0.27825928
1605057852525,226,-0.09863281,-0.9627075,0.27703857
1605057852604,227,-0.09838867,-0.96417236,0.27752686
1605057852683,228,-0.10253906,-0.96295166,0.276062
1605057852761,229,-0.100097656,-0.96539307,0.2694702
1605057852840,230,-0.10253906,-0.9631958,0.27264404
1605057852919,231,-0.10595703,-0.9619751,0.2699585
1605057852998,232,-0.10424805,-0.96417236,0.27459717
1605057853076,233,-0.11230469,-0.9639282,0.27679443
1605057853155,234,-0.10913086,-0.9612427,0.2753296
1605057853234,235,-0.10986328,-0.96539307,0.27581787
1605057853313,236,-0.10961914,-0.9624634,0.27630615
1605057853391,237,-0.11010742,-0.96539307,0.27215576
1605057853470,238,-0.10864258,-0.9636841,0.2699585
1605057853549,239,-0.11206055,-0.96466064,0.2748413
1605057853628,240,-0.110839844,-0.9612427,0.27337646
1605057853706,241,-0.11743164,-0.9636841,0.27508545
1605057853785,242,-0.11621094,-0.9595337,0.27386475
1605057853864,243,-0.111083984,-0.96295166,0.2789917
1605057853943,244,-0.119384766,-0.96099854,0.2736206
1605057854021,245,-0.11645508,-0.9624634,0.2748413
1605057854100,246,-0.11303711,-0.9644165,0.27459717
1605057854179,247,-0.11230469,-0.96539307,0.2736206
1605057854258,248,-0.111816406,-0.96343994,0.26898193
1605057854336,249,-0.10986328,-0.96221924,0.27703857
1605057854415,250,-0.10986328,-0.9619751,0.26727295
1605057854494,251,-0.107421875,-0.9619751,0.27386475
1605057854573,252,-0.111083984,-0.96466064,0.27557373
1605057854651,253,-0.10449219,-0.96221924,0.27020264
1605057854730,254,-0.10546875,-0.96539307,0.27972412
1605057854809,255,-0.107421875,-0.9624634,0.26776123
1605057854888,256,-0.10961914,-0.9651489,0.27264404
1605057854966,257,-0.10668945,-0.9627075,0.27435303
1605057855045,258,-0.107421875,-0.96343994,0.26922607
1605057855124,259,-0.10913086,-0.96295166,0.27264404
1605057855203,260,-0.10595703,-0.96221924,0.2694702
1605057855281,261,-0.10498047,-0.9624634,0.27264404
1605057855360,262,-0.11035156,-0.9631958,0.27288818
1605057855439,263,-0.106933594,-0.9649048,0.27313232
1605057855518,264,-0.10620117,-0.96343994,0.27288818
1605057855596,265,-0.10986328,-0.96588135,0.27313232
1605057855675,266,-0.111083984,-0.96295166,0.27337646
1605057855754,267,-0.11010742,-0.96539307,0.27313232
1605057855833,268,-0.107910156,-0.9644165,0.27215576
1605057855911,269,-0.111328125,-0.96417236,0.26800537
1605057855990,270,-0.107177734,-0.9627075,0.2765503
1605057856069,271,-0.106933594,-0.9585571,0.2694702
1605057856148,272,-0.11035156,-0.9644165,0.2765503
1605057856226,273,-0.10864258,-0.96466064,0.27337646
1605057856305,274,-0.106933594,-0.96051025,0.27508545
1605057856384,275,-0.10644531,-0.96173096,0.27435303
1605057856463,276,-0.10571289,-0.9595337,0.27020264
1605057856541,277,-0.10546875,-0.96051025,0.2753296
1605057856620,278,-0.10595703,-0.96588135,0.27337646
1605057856699,279,-0.10620117,-0.9614868,0.27874756
1605057856778,280,-0.107910156,-0.96099854,0.26898193
1605057856856,281,-0.10986328,-0.96588135,0.27191162
1605057856935,282,-0.10913086,-0.9614868,0.27679443
1605057857014,283,-0.11279297,-0.9663696,0.2736206
1605057857093,284,-0.11035156,-0.9644165,0.2723999
1605057857171,285,-0.111572266,-0.95977783,0.27313232
1605057857250,286,-0.114746094,-0.9612427,0.2736206
1605057857329,287,-0.11010742,-0.95977783,0.27557373
1605057857408,288,-0.10620117,-0.96466064,0.2753296
1605057857486,289,-0.107666016,-0.9619751,0.2748413
1605057857565,290,-0.10205078,-0.9636841,0.27996826
1605057857644,291,-0.107666016,-0.96173096,0.28070068
1605057857723,292,-0.11254883,-0.9661255,0.2670288
1605057857801,293,-0.10913086,-0.9614868,0.26654053
1605057857880,294,-0.107421875,-0.9680786,0.277771
1605057857959,295,-0.10644531,-0.960022,0.27386475
1605057858038,296,-0.10668945,-0.960022,0.2741089
1605057858116,297,-0.1081543,-0.9602661,0.27386475
1605057858195,298,-0.10839844,-0.9585571,0.276062
1605057858274,299,-0.107177734,-0.9663696,0.2802124
1605057858353,300,-0.103271484,-0.96099854,0.27435303
1605057858431,301,-0.1081543,-0.9644165,0.28289795
1605057858510,302,-0.11230469,-0.9585571,0.27801514
1605057858589,303,-0.11621094,-0.9651489,0.28216553
1605057858668,304,-0.10644531,-0.9619751,0.27508545
1605057858746,305,-0.110839844,-0.96099854,0.27874756
1605057858825,306,-0.110839844,-0.9614868,0.2772827
1605057858904,307,-0.11230469,-0.9614868,0.28289795
1605057858983,308,-0.110839844,-0.96221924,0.27679443
1605057859061,309,-0.107177734,-0.9624634,0.28167725
1605057859140,310,-0.111328125,-0.9607544,0.27581787
1605057859219,311,-0.103271484,-0.96221924,0.27874756
1605057859298,312,-0.10864258,-0.9624634,0.27825928
1605057859376,313,-0.109375,-0.96173096,0.27923584
1605057859455,314,-0.10595703,-0.9636841,0.2772827
1605057859534,315,-0.10913086,-0.96295166,0.28338623
1605057859613,316,-0.11376953,-0.96051025,0.27801514
1605057859691,317,-0.111572266,-0.96343994,0.2819214
1605057859770,318,-0.11230469,-0.9602661,0.28240967
1605057859849,319,-0.10888672,-0.958313,0.2819214
1605057859928,320,-0.11010742,-0.9578247,0.2843628
1605057860006,321,-0.106933594,-0.9619751,0.2748413
1605057860085,322,-0.106933594,-0.960022,0.2838745
1605057860164,323,-0.107177734,-0.9585571,0.28656006
1605057860243,324,-0.10620117,-0.958313,0.28289795
1605057860321,325,-0.10839844,-0.960022,0.28485107
1605057860400,326,-0.10644531,-0.9585571,0.2814331
1605057860479,327,-0.104003906,-0.96343994,0.2826538
1605057860558,328,-0.10498047,-0.960022,0.28460693
1605057860636,329,-0.103271484,-0.9590454,0.27801514
1605057860715,330,-0.103759766,-0.96295166,0.277771
1605057860794,331,-0.10424805,-0.96051025,0.27630615
1605057860873,332,-0.10839844,-0.96221924,0.2736206
1605057860951,333,-0.103271484,-0.9619751,0.2789917
1605057861030,334,-0.10668945,-0.9631958,0.27947998
1605057861109,335,-0.10839844,-0.96295166,0.2748413
1605057861188,336,-0.107666016,-0.96221924,0.27093506
1605057861266,337,-0.10913086,-0.96466064,0.27557373
1605057861345,338,-0.106933594,-0.9627075,0.27435303
1605057861424,339,-0.10620117,-0.9644165,0.27630615
1605057861503,340,-0.10839844,-0.9644165,0.27191162
1605057861581,341,-0.107177734,-0.96173096,0.27679443
1605057861660,342,-0.107421875,-0.96221924,0.27459717
1605057861739,343,-0.10449219,-0.9631958,0.27264404
1605057861818,344,-0.10595703,-0.9668579,0.27850342
1605057861896,345,-0.107421875,-0.9612427,0.27093506
1605057861975,346,-0.10864258,-0.96221924,0.276062
1605057862054,347,-0.10571289,-0.9612427,0.27703857
1605057862133,348,-0.10473633,-0.96588135,0.2765503
1605057862211,349,-0.103271484,-0.9607544,0.27972412
1605057862290,350,-0.10546875,-0.9590454,0.2687378
1605057862369,351,-0.10424805,-0.9631958,0.27679443
1605057862448,352,-0.10180664,-0.96466064,0.28118896
1605057862526,353,-0.104003906,-0.96173096,0.2772827
1605057862605,354,-0.10546875,-0.9639282,0.2826538
1605057862684,355,-0.103515625,-0.960022,0.27801514
1605057862763,356,-0.103515625,-0.9636841,0.27752686
1605057862841,357,-0.10058594,-0.96417236,0.27874756
1605057862920,358,-0.100097656,-0.9619751,0.2736206
1605057862999,359,-0.09838867,-0.9636841,0.2814331
1605057863078,360,-0.099853516,-0.95977783,0.2789917
1605057863156,361,-0.10253906,-0.96539307,0.2723999
1605057863235,362,-0.09887695,-0.96343994,0.277771
1605057863314,363,-0.10180664,-0.96221924,0.2741089
1605057863393,364,-0.103759766,-0.96221924,0.27874756
1605057863471,365,-0.10571289,-0.95806885,0.27166748
1605057863550,366,-0.103759766,-0.96173096,0.2772827
1605057863629,367,-0.10180664,-0.96343994,0.27508545
1605057863708,368,-0.10131836,-0.96343994,0.27288818
1605057863786,369,-0.103027344,-0.9649048,0.27703857
1605057863865,370,-0.10180664,-0.9636841,0.27069092
1605057863944,371,-0.106933594,-0.9656372,0.27435303
1605057864023,372,-0.09033203,-0.9614868,0.2687378
1605057864101,373,-0.10253906,-0.96295166,0.27020264
1605057864180,374,-0.09863281,-0.9649048,0.27703857
1605057864259,375,-0.09790039,-0.96417236,0.26776123
1605057864338,376,-0.111083984,-0.9585571,0.27069092
1605057864416,377,-0.09741211,-0.96051025,0.27752686
1605057864495,378,-0.103515625,-0.9717407,0.26971436
1605057864574,379,-0.1015625,-0.9624634,0.2682495
1605057864653,380,-0.099121094,-0.9644165,0.2662964
1605057864731,381,-0.103027344,-0.9644165,0.26776123
1605057864810,382,-0.103515625,-0.9668579,0.2633667
1605057864889,383,-0.09887695,-0.9668579,0.2699585
