# Sensor position: Wrist
# Sensor side: Right
# Activity type: Standing
# Activity code: 100
# Subject id: s1735229
timestamp,seq,accel_x,accel_y,accel_z
1601133241490,0,-1.0507812,-0.39215088,0.15740967
1601133241490,1,-1.0507812,-0.39215088,0.15740967
1601133241498,2,-1.0507812,-0.39215088,0.15740967
1601133241499,3,-1.0507812,-0.39215088,0.15740967
1601133241499,4,-1.0097656,-0.39117432,0.12445068
1601133241499,5,-1.0507812,-0.39215088,0.15740967
1601133241499,6,-1.0507812,-0.39215088,0.15740967
1601133241499,7,-1.0507812,-0.39215088,0.15740967
1601133241499,8,-1.0507812,-0.39215088,0.15740967
1601133241499,9,-1.0185547,-0.3682251,0.12030029
1601133241499,10,-1.0097656,-0.39117432,0.12445068
1601133241499,11,-1.0507812,-0.39215088,0.15740967
1601133241500,12,-0.9897461,-0.42437744,0.12322998
1601133241500,13,-1.0097656,-0.39117432,0.12445068
1601133241500,14,-1.0097656,-0.39117432,0.12445068
1601133241500,15,-1.0097656,-0.39117432,0.12445068
1601133241500,16,-1.0097656,-0.39117432,0.12445068
1601133241500,17,-1.0507812,-0.39215088,0.15740967
1601133241500,18,-1.0097656,-0.39117432,0.12445068
1601133241500,19,-1.0097656,-0.39117432,0.12445068
1601133241512,20,-1.0185547,-0.3682251,0.12030029
1601133241512,21,-1.0097656,-0.39117432,0.12445068
1601133241512,22,-1.0212402,-0.3423462,0.13079834
1601133241512,23,-1.0185547,-0.3682251,0.12030029
1601133241513,24,-1.0185547,-0.3682251,0.12030029
1601133241513,25,-1.0185547,-0.3682251,0.12030029
1601133241513,26,-0.9897461,-0.42437744,0.12322998
1601133241513,27,-1.0097656,-0.39117432,0.12445068
1601133241513,28,-0.9897461,-0.42437744,0.12322998
1601133241513,29,-1.0185547,-0.3682251,0.12030029
1601133241513,30,-0.9897461,-0.42437744,0.12322998
1601133241513,31,-1.0185547,-0.3682251,0.12030029
1601133241513,32,-1.0185547,-0.3682251,0.12030029
1601133241514,33,-0.9897461,-0.42437744,0.12322998
1601133241514,34,-1.0212402,-0.3423462,0.13079834
1601133241514,35,-0.9897461,-0.42437744,0.12322998
1601133241514,36,-0.9897461,-0.42437744,0.12322998
1601133241516,37,-1.0058594,-0.31304932,0.1071167
1601133241516,38,-0.9897461,-0.42437744,0.12322998
1601133241516,39,-1.0185547,-0.3682251,0.12030029
1601133241516,40,-1.0212402,-0.3423462,0.13079834
1601133241516,41,-1.0212402,-0.3423462,0.13079834
1601133241516,42,-1.0212402,-0.3423462,0.13079834
1601133241516,43,-1.0212402,-0.3423462,0.13079834
1601133241516,44,-1.0185547,-0.3682251,0.12030029
1601133241517,45,-1.0212402,-0.3423462,0.13079834
1601133241517,46,-1.0058594,-0.31304932,0.1071167
1601133241517,47,-1.0058594,-0.31304932,0.1071167
1601133241517,48,-1.0212402,-0.3423462,0.13079834
1601133241517,49,-1.0058594,-0.31304932,0.1071167
1601133241517,50,-1.0058594,-0.31304932,0.1071167
1601133241519,51,-0.9741211,-0.3411255,0.0770874
1601133241526,52,-0.9741211,-0.3411255,0.0770874
1601133241526,53,-0.9741211,-0.3411255,0.0770874
1601133241526,54,-0.9741211,-0.3411255,0.0770874
1601133241527,55,-0.96655273,-0.29595947,0.14569092
1601133241527,56,-1.0058594,-0.31304932,0.1071167
1601133241527,57,-0.9741211,-0.3411255,0.0770874
1601133241527,58,-1.0058594,-0.31304932,0.1071167
1601133241527,59,-1.0058594,-0.31304932,0.1071167
1601133241527,60,-0.9897461,-0.42437744,0.12322998
1601133241527,61,-0.9741211,-0.3411255,0.0770874
1601133241528,62,-0.96655273,-0.29595947,0.14569092
1601133241528,63,-0.9897461,-0.42437744,0.12322998
1601133241532,64,-1.0212402,-0.3423462,0.13079834
1601133241533,65,-0.96655273,-0.29595947,0.14569092
1601133241533,66,-0.9741211,-0.3411255,0.0770874
1601133241533,67,-1.0212402,-0.3423462,0.13079834
1601133241533,68,-0.96655273,-0.29595947,0.14569092
1601133241533,69,-0.96655273,-0.29595947,0.14569092
1601133241533,70,-0.96606445,-0.29718018,0.14202881
1601133241533,71,-0.96606445,-0.29718018,0.14202881
1601133241533,72,-0.96606445,-0.29718018,0.14202881
1601133241534,73,-0.96655273,-0.28399658,0.16253662
1601133241534,74,-0.96655273,-0.29595947,0.14569092
1601133241556,75,-1.0058594,-0.31304932,0.1071167
1601133241556,76,-0.96606445,-0.29718018,0.14202881
1601133241556,77,-0.9741211,-0.3411255,0.0770874
1601133241556,78,-1.0058594,-0.31304932,0.1071167
1601133241556,79,-0.96606445,-0.29718018,0.14202881
1601133241556,80,-0.96655273,-0.28399658,0.16253662
1601133241556,81,-0.95214844,-0.29644775,0.19451904
1601133241557,82,-0.95214844,-0.29644775,0.19451904
1601133241557,83,-0.96655273,-0.29595947,0.14569092
1601133241557,84,-0.96606445,-0.29718018,0.14202881
1601133241557,85,-0.986084,-0.30621338,0.1984253
1601133241557,86,-0.9741211,-0.3411255,0.0770874
1601133241557,87,-0.96655273,-0.28399658,0.16253662
1601133241557,88,-0.96655273,-0.28399658,0.16253662
1601133241558,89,-0.9741211,-0.3411255,0.0770874
1601133241558,90,-0.96655273,-0.29595947,0.14569092
1601133241558,91,-0.986084,-0.30621338,0.1984253
1601133241558,92,-0.96655273,-0.28399658,0.16253662
1601133241558,93,-0.96606445,-0.29718018,0.14202881
1601133241558,94,-0.96606445,-0.29718018,0.14202881
1601133241558,95,-0.96655273,-0.29595947,0.14569092
1601133241559,96,-0.96655273,-0.28399658,0.16253662
1601133241559,97,-0.95214844,-0.29644775,0.19451904
1601133241559,98,-1.0588379,-0.3369751,0.18206787
1601133241559,99,-0.95214844,-0.29644775,0.19451904
1601133241559,100,-0.96655273,-0.28399658,0.16253662
1601133241559,101,-0.95214844,-0.29644775,0.19451904
1601133241559,102,-0.95214844,-0.29644775,0.19451904
1601133241560,103,-0.95214844,-0.29644775,0.19451904
1601133241560,104,-0.96655273,-0.29595947,0.14569092
1601133241560,105,-0.96606445,-0.29718018,0.14202881
1601133241567,106,-0.986084,-0.30621338,0.1984253
1601133241569,107,-0.96655273,-0.28399658,0.16253662
1601133241569,108,-1.0712891,-0.3604126,0.14788818
1601133241569,109,-0.986084,-0.30621338,0.1984253
1601133241569,110,-0.986084,-0.30621338,0.1984253
1601133241569,111,-0.986084,-0.30621338,0.1984253
1601133241569,112,-1.0588379,-0.3369751,0.18206787
1601133241569,113,-0.96655273,-0.28399658,0.16253662
1601133241569,114,-0.986084,-0.30621338,0.1984253
1601133241569,115,-1.0712891,-0.3604126,0.14788818
1601133241569,116,-1.0588379,-0.3369751,0.18206787
1601133241579,117,-0.9733887,-0.3743286,0.13323975
1601133241580,118,-1.0588379,-0.3369751,0.18206787
1601133241580,119,-1.0588379,-0.3369751,0.18206787
1601133241580,120,-1.0588379,-0.3369751,0.18206787
1601133241580,121,-0.96606445,-0.29718018,0.14202881
1601133241580,122,-1.0712891,-0.3604126,0.14788818
1601133241580,123,-0.9733887,-0.3743286,0.13323975
1601133241580,124,-1.0588379,-0.3369751,0.18206787
1601133241580,125,-0.95214844,-0.29644775,0.19451904
1601133241580,126,-1.0712891,-0.3604126,0.14788818
1601133241580,127,-0.986084,-0.30621338,0.1984253
1601133241581,128,-0.9584961,-0.34210205,0.17449951
1601133241581,129,-1.0712891,-0.3604126,0.14788818
1601133241581,130,-1.0712891,-0.3604126,0.14788818
1601133241581,131,-0.95214844,-0.29644775,0.19451904
1601133241581,132,-0.96655273,-0.28399658,0.16253662
1601133241581,133,-0.9733887,-0.3743286,0.13323975
1601133241581,134,-1.0712891,-0.3604126,0.14788818
1601133241589,135,-0.9584961,-0.34210205,0.17449951
1601133241589,136,-1.0588379,-0.3369751,0.18206787
1601133241590,137,-0.9460449,-0.31451416,0.2230835
1601133241590,138,-0.9733887,-0.3743286,0.13323975
1601133241590,139,-0.9733887,-0.3743286,0.13323975
1601133241590,140,-0.986084,-0.30621338,0.1984253
1601133241590,141,-0.95214844,-0.29644775,0.19451904
1601133241590,142,-0.9584961,-0.34210205,0.17449951
1601133241591,143,-0.9584961,-0.34210205,0.17449951
1601133241591,144,-0.9733887,-0.3743286,0.13323975
1601133241591,145,-0.9460449,-0.31451416,0.2230835
1601133241592,146,-0.9584961,-0.34210205,0.17449951
1601133241592,147,-0.9460449,-0.31451416,0.2230835
1601133241592,148,-0.9733887,-0.3743286,0.13323975
1601133241592,149,-0.9460449,-0.31451416,0.2230835
1601133241592,150,-1.0588379,-0.3369751,0.18206787
1601133241593,151,-0.9584961,-0.34210205,0.17449951
1601133241593,152,-1.0712891,-0.3604126,0.14788818
1601133241594,153,-0.92749023,-0.286438,0.24090576
1601133241608,154,-0.9584961,-0.34210205,0.17449951
1601133241608,155,-0.92749023,-0.286438,0.24090576
1601133241608,156,-0.9460449,-0.31451416,0.2230835
1601133241609,157,-0.9460449,-0.31451416,0.2230835
1601133241609,158,-0.92749023,-0.286438,0.24090576
1601133241609,159,-1.0712891,-0.3604126,0.14788818
1601133241609,160,-0.986084,-0.30621338,0.1984253
1601133241609,161,-0.9733887,-0.3743286,0.13323975
1601133241609,162,-0.9733887,-0.3743286,0.13323975
1601133241609,163,-0.91796875,-0.26202393,0.23382568
1601133241609,164,-1.0588379,-0.3369751,0.18206787
1601133241609,165,-0.9584961,-0.34210205,0.17449951
1601133241609,166,-0.9584961,-0.34210205,0.17449951
1601133241609,167,-0.92749023,-0.286438,0.24090576
1601133241610,168,-0.9460449,-0.31451416,0.2230835
1601133241610,169,-0.9460449,-0.31451416,0.2230835
1601133241610,170,-0.91796875,-0.26202393,0.23382568
1601133241610,171,-0.92749023,-0.286438,0.24090576
1601133241610,172,-0.92749023,-0.286438,0.24090576
1601133241610,173,-0.9255371,-0.2786255,0.23480225
1601133241610,174,-0.91796875,-0.26202393,0.23382568
1601133241610,175,-1.0712891,-0.3604126,0.14788818
1601133241610,176,-0.91796875,-0.26202393,0.23382568
1601133241610,177,-0.92749023,-0.286438,0.24090576
1601133241610,178,-0.92749023,-0.286438,0.24090576
1601133241610,179,-0.91796875,-0.26202393,0.23382568
1601133241612,180,-0.9460449,-0.31451416,0.2230835
1601133241612,181,-0.9255371,-0.2786255,0.23480225
1601133241612,182,-0.91796875,-0.26202393,0.23382568
1601133241612,183,-0.9433594,-0.27667236,0.23626709
1601133241613,184,-0.9255371,-0.2786255,0.23480225
1601133241613,185,-0.9255371,-0.2786255,0.23480225
1601133241613,186,-0.9255371,-0.2786255,0.23480225
1601133241613,187,-0.91796875,-0.26202393,0.23382568
1601133241613,188,-0.9433594,-0.27667236,0.23626709
1601133241614,189,-0.91796875,-0.26202393,0.23382568
1601133241614,190,-0.92749023,-0.286438,0.24090576
1601133241622,191,-0.9733887,-0.3743286,0.13323975
1601133241622,192,-0.9433594,-0.27667236,0.23626709
1601133241622,193,-0.9255371,-0.2786255,0.23480225
1601133241622,194,-0.9584961,-0.34210205,0.17449951
1601133241622,195,-0.96435547,-0.27838135,0.22015381
1601133241622,196,-0.9255371,-0.2786255,0.23480225
1601133241622,197,-1.0219727,-0.2871704,0.1918335
1601133241623,198,-0.9255371,-0.2786255,0.23480225
1601133241623,199,-0.9433594,-0.27667236,0.23626709
1601133241623,200,-0.91796875,-0.26202393,0.23382568
1601133241623,201,-0.9433594,-0.27667236,0.23626709
1601133241623,202,-0.96435547,-0.27838135,0.22015381
1601133241623,203,-0.9433594,-0.27667236,0.23626709
1601133241623,204,-0.9255371,-0.2786255,0.23480225
1601133241623,205,-0.9460449,-0.31451416,0.2230835
1601133241623,206,-0.9433594,-0.27667236,0.23626709
1601133241623,207,-0.9433594,-0.27667236,0.23626709
1601133241623,208,-0.9914551,-0.2925415,0.15692139
1601133241627,209,-0.96435547,-0.27838135,0.22015381
1601133241627,210,-0.96435547,-0.27838135,0.22015381
1601133241627,211,-1.0219727,-0.2871704,0.1918335
1601133241627,212,-0.96435547,-0.27838135,0.22015381
1601133241627,213,-1.0219727,-0.2871704,0.1918335
1601133241627,214,-0.9433594,-0.27667236,0.23626709
1601133241627,215,-0.92749023,-0.286438,0.24090576
1601133241628,216,-0.96435547,-0.27838135,0.22015381
1601133241628,217,-0.9916992,-0.34088135,0.13787842
1601133241628,218,-0.96435547,-0.27838135,0.22015381
1601133241643,219,-1.0219727,-0.2871704,0.1918335
1601133241643,220,-0.96435547,-0.27838135,0.22015381
1601133241643,221,-1.0219727,-0.2871704,0.1918335
1601133241643,222,-0.9914551,-0.2925415,0.15692139
1601133241643,223,-0.96435547,-0.27838135,0.22015381
1601133241643,224,-1.0219727,-0.2871704,0.1918335
1601133241643,225,-1.0219727,-0.2871704,0.1918335
1601133241643,226,-0.91796875,-0.26202393,0.23382568
1601133241643,227,-1.0219727,-0.2871704,0.1918335
1601133241643,228,-0.9914551,-0.2925415,0.15692139
1601133241643,229,-0.9914551,-0.2925415,0.15692139
1601133241643,230,-0.9914551,-0.2925415,0.15692139
1601133241643,231,-1.0219727,-0.2871704,0.1918335
1601133241644,232,-0.9916992,-0.34088135,0.13787842
1601133241644,233,-0.9916992,-0.34088135,0.13787842
1601133241644,234,-0.9914551,-0.2925415,0.15692139
1601133241644,235,-0.9682617,-0.33795166,0.1383667
1601133241644,236,-0.9682617,-0.33795166,0.1383667
1601133241644,237,-0.9284668,-0.3484497,0.11932373
1601133241644,238,-0.9255371,-0.2786255,0.23480225
1601133241645,239,-0.9284668,-0.3484497,0.11932373
1601133241645,240,-0.9914551,-0.2925415,0.15692139
1601133241645,241,-0.9916992,-0.34088135,0.13787842
1601133241645,242,-0.9914551,-0.2925415,0.15692139
1601133241645,243,-0.9682617,-0.33795166,0.1383667
1601133241645,244,-0.9682617,-0.33795166,0.1383667
1601133241645,245,-0.9914551,-0.2925415,0.15692139
1601133241645,246,-0.9916992,-0.34088135,0.13787842
1601133241645,247,-0.9433594,-0.27667236,0.23626709
1601133241646,248,-0.9916992,-0.34088135,0.13787842
1601133241646,249,-0.94873047,-0.45977783,0.10638428
1601133241646,250,-0.9682617,-0.33795166,0.1383667
1601133241647,251,-0.9916992,-0.34088135,0.13787842
1601133241647,252,-0.94873047,-0.45977783,0.10638428
1601133241647,253,-0.9682617,-0.33795166,0.1383667
1601133241653,254,-0.9916992,-0.34088135,0.13787842
1601133241653,255,-0.9916992,-0.34088135,0.13787842
1601133241654,256,-0.96435547,-0.27838135,0.22015381
1601133241654,257,-1.0405273,-0.47027588,0.10345459
1601133241654,258,-0.9284668,-0.3484497,0.11932373
1601133241654,259,-0.9284668,-0.3484497,0.11932373
1601133241654,260,-0.9682617,-0.33795166,0.1383667
1601133241654,261,-0.9284668,-0.3484497,0.11932373
1601133241654,262,-0.94873047,-0.45977783,0.10638428
1601133241654,263,-1.0405273,-0.47027588,0.10345459
1601133241654,264,-0.94873047,-0.45977783,0.10638428
1601133241654,265,-0.9682617,-0.33795166,0.1383667
1601133241654,266,-1.1098633,-0.43218994,0.10467529
1601133241655,267,-1.0405273,-0.47027588,0.10345459
1601133241655,268,-0.8730469,-0.409729,0.101989746
1601133241655,269,-0.9284668,-0.3484497,0.11932373
1601133241655,270,-1.1098633,-0.43218994,0.10467529
1601133241655,271,-0.94873047,-0.45977783,0.10638428
1601133241660,272,-0.9284668,-0.3484497,0.11932373
1601133241660,273,-0.9682617,-0.33795166,0.1383667
1601133241660,274,-0.94873047,-0.45977783,0.10638428
1601133241660,275,-0.94873047,-0.45977783,0.10638428
1601133241661,276,-1.1098633,-0.43218994,0.10467529
1601133241661,277,-1.0405273,-0.47027588,0.10345459
1601133241661,278,-0.8730469,-0.409729,0.101989746
1601133241661,279,-0.80371094,-0.43292236,0.0770874
1601133241661,280,-0.8730469,-0.409729,0.101989746
1601133241661,281,-1.1098633,-0.43218994,0.10467529
1601133241662,282,-1.0219727,-0.2871704,0.1918335
1601133241665,283,-1.0405273,-0.47027588,0.10345459
1601133241665,284,-1.0405273,-0.47027588,0.10345459
1601133241666,285,-1.1098633,-0.43218994,0.10467529
1601133241666,286,-1.0405273,-0.47027588,0.10345459
1601133241666,287,-0.8730469,-0.409729,0.101989746
1601133241666,288,-0.9284668,-0.3484497,0.11932373
1601133241666,289,-0.80371094,-0.43292236,0.0770874
1601133241666,290,-0.9914551,-0.2925415,0.15692139
1601133241667,291,-0.9284668,-0.3484497,0.11932373
1601133241667,292,-0.80371094,-0.43292236,0.0770874
1601133241667,293,-0.80371094,-0.43292236,0.0770874
1601133241673,294,-1.1098633,-0.43218994,0.10467529
1601133241673,295,-0.8730469,-0.409729,0.101989746
1601133241673,296,-0.94873047,-0.45977783,0.10638428
1601133241673,297,-0.9916992,-0.34088135,0.13787842
1601133241674,298,-0.94873047,-0.45977783,0.10638428
1601133241674,299,-0.9682617,-0.33795166,0.1383667
1601133241674,300,-1.0405273,-0.47027588,0.10345459
1601133241674,301,-0.9284668,-0.3484497,0.11932373
1601133241674,302,-1.1098633,-0.43218994,0.10467529
1601133241675,303,-0.94873047,-0.45977783,0.10638428
1601133241675,304,-1.0405273,-0.47027588,0.10345459
1601133241675,305,-1.1098633,-0.43218994,0.10467529
1601133241675,306,-0.8730469,-0.409729,0.101989746
1601133241675,307,-0.80371094,-0.43292236,0.0770874
1601133241677,308,-1.0405273,-0.47027588,0.10345459
1601133241677,309,-0.80371094,-0.43292236,0.0770874
1601133241677,310,-0.8730469,-0.409729,0.101989746
1601133241678,311,-0.8730469,-0.409729,0.101989746
1601133241678,312,-1.1098633,-0.43218994,0.10467529
1601133241678,313,-0.80371094,-0.43292236,0.0770874
1601133241679,314,-1.1098633,-0.43218994,0.10467529
1601133241683,315,-0.80371094,-0.43292236,0.0770874
1601133241683,316,-0.8730469,-0.409729,0.101989746
1601133241683,317,-0.8730469,-0.409729,0.101989746
1601133241683,318,-0.80371094,-0.43292236,0.0770874
1601133241683,319,-0.80371094,-0.43292236,0.0770874
1601133244007,320,-1.0129395,-0.4619751,0.050720215
1601133244007,321,-1.0129395,-0.4619751,0.050720215
1601133244007,322,-1.0129395,-0.4619751,0.050720215
1601133244016,323,-1.0129395,-0.4619751,0.050720215
1601133244016,324,-1.0063477,-0.47955322,0.06463623
1601133244016,325,-1.0129395,-0.4619751,0.050720215
1601133244017,326,-1.0063477,-0.47955322,0.06463623
1601133244017,327,-1.0129395,-0.4619751,0.050720215
1601133244017,328,-1.0129395,-0.4619751,0.050720215
1601133244017,329,-1.0129395,-0.4619751,0.050720215
1601133244017,330,-0.93359375,-0.49053955,0.0836792
1601133244017,331,-1.0063477,-0.47955322,0.06463623
1601133244017,332,-1.0063477,-0.47955322,0.06463623
1601133244017,333,-0.93359375,-0.49053955,0.0836792
1601133244017,334,-1.0063477,-0.47955322,0.06463623
1601133244017,335,-1.0129395,-0.4619751,0.050720215
1601133244018,336,-0.93359375,-0.49053955,0.0836792
1601133244021,337,-1.0063477,-0.47955322,0.06463623
1601133244022,338,-1.0063477,-0.47955322,0.06463623
1601133244022,339,-0.9794922,-0.4212036,0.06414795
1601133244022,340,-0.93359375,-0.49053955,0.0836792
1601133244022,341,-1.0129395,-0.4619751,0.050720215
1601133244022,342,-0.93359375,-0.49053955,0.0836792
1601133244022,343,-0.9794922,-0.4212036,0.06414795
1601133244022,344,-0.9794922,-0.4212036,0.06414795
1601133244023,345,-1.0063477,-0.47955322,0.06463623
1601133244024,346,-0.9794922,-0.4212036,0.06414795
1601133244026,347,-1.0063477,-0.47955322,0.06463623
1601133244026,348,-0.93359375,-0.49053955,0.0836792
1601133244026,349,-0.93359375,-0.49053955,0.0836792
1601133244027,350,-0.9794922,-0.4212036,0.06414795
1601133244027,351,-1.0063477,-0.47955322,0.06463623
1601133244027,352,-0.9794922,-0.4212036,0.06414795
1601133244027,353,-1.0180664,-0.43023682,0.070739746
1601133244027,354,-0.93359375,-0.49053955,0.0836792
1601133244027,355,-1.0180664,-0.43023682,0.070739746
1601133244027,356,-1.0180664,-0.43023682,0.070739746
1601133244031,357,-0.9794922,-0.4212036,0.06414795
1601133244031,358,-0.93359375,-0.49053955,0.0836792
1601133244031,359,-1.0180664,-0.43023682,0.070739746
1601133244031,360,-1.0180664,-0.43023682,0.070739746
1601133244031,361,-0.9794922,-0.4212036,0.06414795
1601133244032,362,-0.9411621,-0.44830322,0.07928467
1601133244032,363,-0.9411621,-0.44830322,0.07928467
1601133244032,364,-0.9794922,-0.4212036,0.06414795
1601133244032,365,-0.9411621,-0.44830322,0.07928467
1601133244032,366,-0.9411621,-0.44830322,0.07928467
1601133244032,367,-1.0180664,-0.43023682,0.070739746
1601133244037,368,-0.93359375,-0.49053955,0.0836792
1601133244037,369,-1.0180664,-0.43023682,0.070739746
1601133244037,370,-1.0180664,-0.43023682,0.070739746
1601133244037,371,-0.9436035,-0.4343872,0.0927124
1601133244037,372,-1.0180664,-0.43023682,0.070739746
1601133244037,373,-0.9411621,-0.44830322,0.07928467
1601133244037,374,-0.9436035,-0.4343872,0.0927124
1601133244037,375,-0.9436035,-0.4343872,0.0927124
1601133244038,376,-0.9411621,-0.44830322,0.07928467
1601133244038,377,-0.94555664,-0.42071533,0.105651855
1601133244038,378,-0.9411621,-0.44830322,0.07928467
1601133244038,379,-0.9794922,-0.4212036,0.06414795
1601133244046,380,-0.9436035,-0.4343872,0.0927124
1601133244046,381,-0.94555664,-0.42071533,0.105651855
1601133244047,382,-0.9411621,-0.44830322,0.07928467
1601133244047,383,-0.9436035,-0.4343872,0.0927124
1601133244047,384,-0.97216797,-0.43585205,0.1486206
1601133244047,385,-0.9436035,-0.4343872,0.0927124
1601133244047,386,-0.97216797,-0.43585205,0.1486206
1601133244047,387,-0.9436035,-0.4343872,0.0927124
1601133244048,388,-0.9436035,-0.4343872,0.0927124
1601133244048,389,-0.94555664,-0.42071533,0.105651855
1601133244048,390,-0.94555664,-0.42071533,0.105651855
1601133244048,391,-0.94555664,-0.42071533,0.105651855
1601133244048,392,-0.9411621,-0.44830322,0.07928467
1601133244048,393,-0.94555664,-0.42071533,0.105651855
1601133244048,394,-0.97216797,-0.43585205,0.1486206
1601133244048,395,-0.9436035,-0.4343872,0.0927124
1601133244049,396,-1.0180664,-0.43023682,0.070739746
1601133244049,397,-1.0270996,-0.41558838,0.13568115
1601133244049,398,-0.97216797,-0.43585205,0.1486206
1601133244049,399,-1.0270996,-0.41558838,0.13568115
1601133244049,400,-0.9411621,-0.44830322,0.07928467
1601133244049,401,-0.94555664,-0.42071533,0.105651855
1601133244050,402,-1.0270996,-0.41558838,0.13568115
1601133244056,403,-0.97216797,-0.43585205,0.1486206
1601133244056,404,-0.94555664,-0.42071533,0.105651855
1601133244056,405,-1.0270996,-0.41558838,0.13568115
1601133244056,406,-1.0270996,-0.41558838,0.13568115
1601133244056,407,-0.9555664,-0.4668579,0.1005249
1601133244057,408,-0.9436035,-0.4343872,0.0927124
1601133244057,409,-0.97216797,-0.43585205,0.1486206
1601133244057,410,-0.94555664,-0.42071533,0.105651855
1601133244057,411,-0.9555664,-0.4668579,0.1005249
1601133244057,412,-0.97216797,-0.43585205,0.1486206
1601133244057,413,-0.97216797,-0.43585205,0.1486206
1601133244057,414,-0.9555664,-0.4668579,0.1005249
1601133244057,415,-0.9511719,-0.43585205,0.08905029
1601133244060,416,-0.9555664,-0.4668579,0.1005249
1601133244060,417,-0.94555664,-0.42071533,0.105651855
1601133244060,418,-1.0270996,-0.41558838,0.13568115
1601133244060,419,-0.97216797,-0.43585205,0.1486206
1601133244061,420,-0.97216797,-0.43585205,0.1486206
1601133244061,421,-1.0270996,-0.41558838,0.13568115
1601133244061,422,-0.9555664,-0.4668579,0.1005249
1601133244061,423,-1.0270996,-0.41558838,0.13568115
1601133244061,424,-0.9555664,-0.4668579,0.1005249
1601133244061,425,-0.93237305,-0.43536377,0.07684326
1601133244061,426,-0.9511719,-0.43585205,0.08905029
1601133244062,427,-0.9555664,-0.4668579,0.1005249
1601133244063,428,-1.0270996,-0.41558838,0.13568115
1601133244063,429,-0.9511719,-0.43585205,0.08905029
1601133244068,430,-0.9555664,-0.4668579,0.1005249
1601133244068,431,-0.9511719,-0.43585205,0.08905029
1601133244068,432,-0.93774414,-0.41412354,0.08685303
1601133244068,433,-0.9511719,-0.43585205,0.08905029
1601133244069,434,-0.93237305,-0.43536377,0.07684326
1601133244069,435,-1.0270996,-0.41558838,0.13568115
1601133244069,436,-0.93237305,-0.43536377,0.07684326
1601133244069,437,-0.9555664,-0.4668579,0.1005249
1601133244069,438,-0.9511719,-0.43585205,0.08905029
1601133244069,439,-0.93774414,-0.41412354,0.08685303
1601133244069,440,-0.9511719,-0.43585205,0.08905029
1601133244075,441,-0.9511719,-0.43585205,0.08905029
1601133244075,442,-0.93237305,-0.43536377,0.07684326
1601133244075,443,-0.93237305,-0.43536377,0.07684326
1601133244075,444,-0.9555664,-0.4668579,0.1005249
1601133244075,445,-0.9511719,-0.43585205,0.08905029
1601133244075,446,-0.9121094,-0.41778564,0.1618042
1601133244075,447,-0.93237305,-0.43536377,0.07684326
1601133244076,448,-0.9511719,-0.43585205,0.08905029
1601133244076,449,-0.9121094,-0.41778564,0.1618042
1601133244076,450,-0.93774414,-0.41412354,0.08685303
1601133244076,451,-0.93237305,-0.43536377,0.07684326
1601133244076,452,-0.93774414,-0.41412354,0.08685303
1601133244076,453,-0.93774414,-0.41412354,0.08685303
1601133244076,454,-0.93237305,-0.43536377,0.07684326
1601133244076,455,-0.93237305,-0.43536377,0.07684326
1601133244076,456,-0.9851074,-0.36260986,0.17889404
1601133244076,457,-0.93237305,-0.43536377,0.07684326
1601133244076,458,-0.93774414,-0.41412354,0.08685303
1601133244077,459,-0.93774414,-0.41412354,0.08685303
1601133244077,460,-0.93774414,-0.41412354,0.08685303
1601133244077,461,-0.9851074,-0.36260986,0.17889404
1601133244077,462,-0.9121094,-0.41778564,0.1618042
1601133244077,463,-0.9121094,-0.41778564,0.1618042
1601133244081,464,-0.93774414,-0.41412354,0.08685303
1601133244081,465,-0.97753906,-0.36968994,0.1630249
1601133244081,466,-0.93774414,-0.41412354,0.08685303
1601133244081,467,-0.9121094,-0.41778564,0.1618042
1601133244081,468,-0.9121094,-0.41778564,0.1618042
1601133244082,469,-0.9851074,-0.36260986,0.17889404
1601133244082,470,-0.9121094,-0.41778564,0.1618042
1601133244082,471,-0.97753906,-0.36968994,0.1630249
1601133244082,472,-0.9851074,-0.36260986,0.17889404
1601133244082,473,-0.9851074,-0.36260986,0.17889404
1601133244082,474,-0.92749023,-0.41558838,0.13934326
1601133244086,475,-0.9121094,-0.41778564,0.1618042
1601133244086,476,-0.9121094,-0.41778564,0.1618042
1601133244086,477,-0.97753906,-0.36968994,0.1630249
1601133244086,478,-0.9851074,-0.36260986,0.17889404
1601133244086,479,-0.9851074,-0.36260986,0.17889404
1601133244086,480,-0.92749023,-0.41558838,0.13934326
1601133244087,481,-0.97753906,-0.36968994,0.1630249
1601133244087,482,-0.97753906,-0.36968994,0.1630249
1601133244087,483,-0.9121094,-0.41778564,0.1618042
1601133244087,484,-0.9616699,-0.37872314,0.14642334
1601133244087,485,-0.92749023,-0.41558838,0.13934326
1601133244102,486,-0.9851074,-0.36260986,0.17889404
1601133244102,487,-0.92749023,-0.41558838,0.13934326
1601133244103,488,-0.97753906,-0.36968994,0.1630249
1601133244103,489,-0.97753906,-0.36968994,0.1630249
1601133244103,490,-0.9616699,-0.37872314,0.14642334
1601133244103,491,-0.9851074,-0.36260986,0.17889404
1601133244103,492,-0.9807129,-0.40899658,0.13128662
1601133244103,493,-0.92749023,-0.41558838,0.13934326
1601133244103,494,-0.9616699,-0.37872314,0.14642334
1601133244103,495,-0.9616699,-0.37872314,0.14642334
1601133244103,496,-0.9807129,-0.40899658,0.13128662
1601133244103,497,-0.9616699,-0.37872314,0.14642334
1601133244103,498,-0.9807129,-0.40899658,0.13128662
1601133244104,499,-0.9580078,-0.43023682,0.1227417
1601133244104,500,-0.92749023,-0.41558838,0.13934326
1601133244104,501,-0.9851074,-0.36260986,0.17889404
1601133244104,502,-0.97753906,-0.36968994,0.1630249
1601133244104,503,-0.9616699,-0.37872314,0.14642334
1601133244104,504,-0.97753906,-0.36968994,0.1630249
1601133244104,505,-0.97753906,-0.36968994,0.1630249
1601133244104,506,-0.92749023,-0.41558838,0.13934326
1601133244104,507,-0.92749023,-0.41558838,0.13934326
1601133244104,508,-0.9614258,-0.4085083,0.12371826
1601133244105,509,-0.9580078,-0.43023682,0.1227417
1601133244105,510,-0.9616699,-0.37872314,0.14642334
1601133244106,511,-0.9616699,-0.37872314,0.14642334
1601133244106,512,-0.9580078,-0.43023682,0.1227417
1601133244106,513,-0.9807129,-0.40899658,0.13128662
1601133244106,514,-0.92749023,-0.41558838,0.13934326
1601133244106,515,-0.9807129,-0.40899658,0.13128662
1601133244109,516,-0.95703125,-0.38116455,0.12908936
1601133244109,517,-0.9616699,-0.37872314,0.14642334
1601133244110,518,-0.9580078,-0.43023682,0.1227417
1601133244110,519,-0.9807129,-0.40899658,0.13128662
1601133244110,520,-0.9614258,-0.4085083,0.12371826
1601133244111,521,-0.9614258,-0.4085083,0.12371826
1601133244111,522,-0.92749023,-0.41558838,0.13934326
1601133244111,523,-0.9807129,-0.40899658,0.13128662
1601133244112,524,-0.9580078,-0.43023682,0.1227417
1601133244120,525,-0.9614258,-0.4085083,0.12371826
1601133244120,526,-0.95947266,-0.38165283,0.12347412
1601133244121,527,-0.9807129,-0.40899658,0.13128662
1601133244121,528,-0.9580078,-0.43023682,0.1227417
1601133244121,529,-0.9580078,-0.43023682,0.1227417
1601133244121,530,-0.95703125,-0.38116455,0.12908936
1601133244121,531,-0.9580078,-0.43023682,0.1227417
1601133244121,532,-0.95703125,-0.38116455,0.12908936
1601133244121,533,-0.9614258,-0.4085083,0.12371826
1601133244121,534,-0.95947266,-0.38165283,0.12347412
1601133244121,535,-0.9614258,-0.4085083,0.12371826
1601133244121,536,-0.9562988,-0.3867798,0.11566162
1601133244121,537,-0.95703125,-0.38116455,0.12908936
1601133244122,538,-0.9807129,-0.40899658,0.13128662
1601133244122,539,-0.9614258,-0.4085083,0.12371826
1601133244122,540,-0.9614258,-0.4085083,0.12371826
1601133244122,541,-0.9616699,-0.37872314,0.14642334
1601133244122,542,-0.95703125,-0.38116455,0.12908936
1601133244122,543,-0.9807129,-0.40899658,0.13128662
1601133244122,544,-0.9562988,-0.3867798,0.11566162
1601133244122,545,-0.951416,-0.39727783,0.11859131
1601133244127,546,-0.95947266,-0.38165283,0.12347412
1601133244127,547,-0.95947266,-0.38165283,0.12347412
1601133244127,548,-0.95703125,-0.38116455,0.12908936
1601133244127,549,-0.9580078,-0.43023682,0.1227417
1601133244127,550,-0.95703125,-0.38116455,0.12908936
1601133244127,551,-0.9614258,-0.4085083,0.12371826
1601133244127,552,-0.9580078,-0.43023682,0.1227417
1601133244128,553,-0.95703125,-0.38116455,0.12908936
1601133244128,554,-0.951416,-0.39727783,0.11859131
1601133244128,555,-0.9614258,-0.4085083,0.12371826
1601133244130,556,-0.9562988,-0.3867798,0.11566162
1601133244134,557,-0.95947266,-0.38165283,0.12347412
1601133244135,558,-0.9572754,-0.40924072,0.11883545
1601133244135,559,-0.95947266,-0.38165283,0.12347412
1601133244135,560,-0.95947266,-0.38165283,0.12347412
1601133244135,561,-0.9604492,-0.41949463,0.11956787
1601133244135,562,-0.95703125,-0.38116455,0.12908936
1601133244135,563,-0.95947266,-0.38165283,0.12347412
1601133244135,564,-0.95703125,-0.38116455,0.12908936
1601133244135,565,-0.9562988,-0.3867798,0.11566162
1601133244135,566,-0.9562988,-0.3867798,0.11566162
1601133244139,567,-0.9562988,-0.3867798,0.11566162
1601133244140,568,-0.951416,-0.39727783,0.11859131
1601133244140,569,-0.9602051,-0.42608643,0.12054443
1601133244140,570,-0.9572754,-0.40924072,0.11883545
1601133244140,571,-0.9562988,-0.3867798,0.11566162
1601133244140,572,-0.951416,-0.39727783,0.11859131
1601133244140,573,-0.9604492,-0.41949463,0.11956787
1601133244140,574,-0.951416,-0.39727783,0.11859131
1601133244145,575,-0.9572754,-0.40924072,0.11883545
1601133244145,576,-0.9562988,-0.3867798,0.11566162
1601133244145,577,-0.95947266,-0.38165283,0.12347412
1601133244145,578,-0.951416,-0.39727783,0.11859131
1601133244145,579,-0.951416,-0.39727783,0.11859131
1601133244145,580,-0.9572754,-0.40924072,0.11883545
1601133244146,581,-0.9572754,-0.40924072,0.11883545
1601133244146,582,-0.95947266,-0.38165283,0.12347412
1601133244146,583,-0.9604492,-0.41949463,0.11956787
1601133244146,584,-0.951416,-0.39727783,0.11859131
1601133244146,585,-0.9604492,-0.41949463,0.11956787
1601133244148,586,-0.96069336,-0.4307251,0.117370605
1601133244148,587,-0.9572754,-0.40924072,0.11883545
1601133244148,588,-0.9572754,-0.40924072,0.11883545
1601133244148,589,-0.9602051,-0.42608643,0.12054443
1601133244149,590,-0.9562988,-0.3867798,0.11566162
1601133244160,591,-0.9604492,-0.41949463,0.11956787
1601133244161,592,-0.9562988,-0.3867798,0.11566162
1601133244161,593,-0.9602051,-0.42608643,0.12054443
1601133244161,594,-0.9604492,-0.41949463,0.11956787
1601133244161,595,-0.9602051,-0.42608643,0.12054443
1601133244161,596,-0.951416,-0.39727783,0.11859131
1601133244161,597,-0.9572754,-0.40924072,0.11883545
1601133244161,598,-0.951416,-0.39727783,0.11859131
1601133244161,599,-0.9602051,-0.42608643,0.12054443
1601133244161,600,-0.96069336,-0.4307251,0.117370605
1601133244161,601,-0.9572754,-0.40924072,0.11883545
1601133244161,602,-0.96069336,-0.4307251,0.117370605
1601133244161,603,-0.9604492,-0.41949463,0.11956787
1601133244161,604,-0.9602051,-0.42608643,0.12054443
1601133244161,605,-0.96069336,-0.4307251,0.117370605
1601133244161,606,-0.9572754,-0.40924072,0.11883545
1601133244162,607,-0.9560547,-0.43023682,0.1149292
1601133244162,608,-0.96069336,-0.4307251,0.117370605
1601133244162,609,-0.9560547,-0.43023682,0.1149292
1601133244163,610,-0.9602051,-0.42608643,0.12054443
1601133244163,611,-0.9543457,-0.42755127,0.11248779
1601133244163,612,-0.9560547,-0.43023682,0.1149292
1601133244163,613,-0.9604492,-0.41949463,0.11956787
1601133244163,614,-0.9560547,-0.43023682,0.1149292
1601133244163,615,-0.9604492,-0.41949463,0.11956787
1601133244163,616,-0.9543457,-0.42755127,0.11248779
1601133244163,617,-0.96069336,-0.4307251,0.117370605
1601133244163,618,-0.9560547,-0.43023682,0.1149292
1601133244164,619,-0.9604492,-0.41949463,0.11956787
1601133244167,620,-0.9602051,-0.42608643,0.12054443
1601133244167,621,-0.9543457,-0.42755127,0.11248779
1601133244167,622,-0.9602051,-0.42608643,0.12054443
1601133244168,623,-0.9602051,-0.42608643,0.12054443
1601133244168,624,-0.96069336,-0.4307251,0.117370605
1601133244168,625,-0.9543457,-0.42755127,0.11248779
1601133244168,626,-0.9560547,-0.43023682,0.1149292
1601133244168,627,-0.96069336,-0.4307251,0.117370605
1601133244168,628,-0.9543457,-0.42755127,0.11248779
1601133244168,629,-0.96069336,-0.4307251,0.117370605
1601133244175,630,-0.9560547,-0.43023682,0.1149292
1601133244175,631,-0.9543457,-0.42755127,0.11248779
1601133244175,632,-0.9560547,-0.43023682,0.1149292
1601133244175,633,-0.96069336,-0.4307251,0.117370605
1601133244175,634,-0.9543457,-0.42755127,0.11248779
1601133244175,635,-0.9560547,-0.43023682,0.1149292
1601133244175,636,-0.9560547,-0.43023682,0.1149292
1601133244175,637,-0.9543457,-0.42755127,0.11248779
1601133244175,638,-0.9543457,-0.42755127,0.11248779
1601133244175,639,-0.9543457,-0.42755127,0.11248779
1601133246762,640,-0.9633789,-0.42218018,0.11029053
1601133246763,641,-0.9633789,-0.42218018,0.11029053
1601133246763,642,-0.9633789,-0.42218018,0.11029053
1601133246763,643,-0.9633789,-0.42218018,0.11029053
1601133246763,644,-0.96118164,-0.42095947,0.10662842
1601133246763,645,-0.9633789,-0.42218018,0.11029053
1601133246763,646,-0.9633789,-0.42218018,0.11029053
1601133246775,647,-0.96118164,-0.42095947,0.10662842
1601133246775,648,-0.9633789,-0.42218018,0.11029053
1601133246775,649,-0.9633789,-0.42218018,0.11029053
1601133246775,650,-0.9633789,-0.42218018,0.11029053
1601133246775,651,-0.9633789,-0.42218018,0.11029053
1601133246775,652,-0.96118164,-0.42095947,0.10662842
1601133246776,653,-0.96240234,-0.41705322,0.09832764
1601133246776,654,-0.96118164,-0.42095947,0.10662842
1601133246776,655,-0.96118164,-0.42095947,0.10662842
1601133246776,656,-0.96118164,-0.42095947,0.10662842
1601133246776,657,-0.96118164,-0.42095947,0.10662842
1601133246776,658,-0.96118164,-0.42095947,0.10662842
1601133246785,659,-0.96240234,-0.41705322,0.09832764
1601133246785,660,-0.95825195,-0.41290283,0.093933105
1601133246785,661,-0.96118164,-0.42095947,0.10662842
1601133246785,662,-0.96240234,-0.41705322,0.09832764
1601133246786,663,-0.95996094,-0.41436768,0.09051514
1601133246786,664,-0.95825195,-0.41290283,0.093933105
1601133246786,665,-0.96240234,-0.41705322,0.09832764
1601133246786,666,-0.96118164,-0.42095947,0.10662842
1601133246786,667,-0.96240234,-0.41705322,0.09832764
1601133246786,668,-0.96240234,-0.41705322,0.09832764
1601133246786,669,-0.95825195,-0.41290283,0.093933105
1601133246786,670,-0.95825195,-0.41290283,0.093933105
1601133246787,671,-0.96240234,-0.41705322,0.09832764
1601133246787,672,-0.95825195,-0.41290283,0.093933105
1601133246787,673,-0.95996094,-0.41436768,0.09051514
1601133246787,674,-0.95996094,-0.41436768,0.09051514
1601133246788,675,-0.95996094,-0.41436768,0.09051514
1601133246788,676,-0.9633789,-0.41558838,0.08807373
1601133246788,677,-0.96240234,-0.41705322,0.09832764
1601133246788,678,-0.95874023,-0.41851807,0.09222412
1601133246788,679,-0.96240234,-0.41705322,0.09832764
1601133246798,680,-0.95825195,-0.41290283,0.093933105
1601133246798,681,-0.9584961,-0.41656494,0.097351074
1601133246798,682,-0.96240234,-0.41705322,0.09832764
1601133246799,683,-0.9633789,-0.41558838,0.08807373
1601133246799,684,-0.9597168,-0.41656494,0.10321045
1601133246800,685,-0.95825195,-0.41290283,0.093933105
1601133246800,686,-0.95825195,-0.41290283,0.093933105
1601133246800,687,-0.95996094,-0.41436768,0.09051514
1601133246800,688,-0.95996094,-0.41436768,0.09051514
1601133246800,689,-0.9633789,-0.41558838,0.08807373
1601133246800,690,-0.9633789,-0.41558838,0.08807373
1601133246800,691,-0.9633789,-0.41558838,0.08807373
1601133246800,692,-0.95825195,-0.41290283,0.093933105
1601133246800,693,-0.95996094,-0.41436768,0.09051514
1601133246800,694,-0.9577637,-0.41973877,0.10882568
1601133246801,695,-0.95874023,-0.41851807,0.09222412
1601133246801,696,-0.95996094,-0.41436768,0.09051514
1601133246801,697,-0.95996094,-0.41436768,0.09051514
1601133246801,698,-0.9633789,-0.41558838,0.08807373
1601133246801,699,-0.9633789,-0.41558838,0.08807373
1601133246801,700,-0.9633789,-0.41558838,0.08807373
1601133246801,701,-0.95874023,-0.41851807,0.09222412
1601133246801,702,-0.95825195,-0.41290283,0.093933105
1601133246801,703,-0.9633789,-0.41558838,0.08807373
1601133246804,704,-0.95874023,-0.41851807,0.09222412
1601133246804,705,-0.9584961,-0.41656494,0.097351074
1601133246804,706,-0.95874023,-0.41851807,0.09222412
1601133246804,707,-0.95874023,-0.41851807,0.09222412
1601133246804,708,-0.95874023,-0.41851807,0.09222412
1601133246804,709,-0.9592285,-0.4241333,0.1083374
1601133246805,710,-0.9584961,-0.41656494,0.097351074
1601133246805,711,-0.95874023,-0.41851807,0.09222412
1601133246805,712,-0.95996094,-0.41436768,0.09051514
1601133246805,713,-0.95874023,-0.41851807,0.09222412
1601133246806,714,-0.9584961,-0.41656494,0.097351074
1601133246811,715,-0.9584961,-0.41656494,0.097351074
1601133246812,716,-0.9584961,-0.41656494,0.097351074
1601133246812,717,-0.96118164,-0.42559814,0.11224365
1601133246812,718,-0.9597168,-0.41656494,0.10321045
1601133246812,719,-0.9597168,-0.41656494,0.10321045
1601133246812,720,-0.9633789,-0.41558838,0.08807373
1601133246812,721,-0.9584961,-0.41656494,0.097351074
1601133246812,722,-0.9584961,-0.41656494,0.097351074
1601133246812,723,-0.9597168,-0.41656494,0.10321045
1601133246815,724,-0.9597168,-0.41656494,0.10321045
1601133246815,725,-0.9597168,-0.41656494,0.10321045
1601133246815,726,-0.9584961,-0.41656494,0.097351074
1601133246815,727,-0.9577637,-0.41973877,0.10882568
1601133246815,728,-0.9577637,-0.41973877,0.10882568
1601133246815,729,-0.9577637,-0.41973877,0.10882568
1601133246815,730,-0.9592285,-0.4241333,0.1083374
1601133246815,731,-0.9592285,-0.4241333,0.1083374
1601133246816,732,-0.9577637,-0.41973877,0.10882568
1601133246816,733,-0.9597168,-0.41656494,0.10321045
1601133246817,734,-0.9628906,-0.42315674,0.109558105
1601133246817,735,-0.9577637,-0.41973877,0.10882568
1601133246817,736,-0.9597168,-0.41656494,0.10321045
1601133246817,737,-0.9592285,-0.4241333,0.1083374
1601133246818,738,-0.96118164,-0.42559814,0.11224365
1601133246818,739,-0.96118164,-0.42559814,0.11224365
1601133246819,740,-0.9597168,-0.41656494,0.10321045
1601133246831,741,-0.9577637,-0.41973877,0.10882568
1601133246831,742,-0.96118164,-0.42559814,0.11224365
1601133246832,743,-0.9628906,-0.4175415,0.10736084
1601133246832,744,-0.9592285,-0.4241333,0.1083374
1601133246832,745,-0.9592285,-0.4241333,0.1083374
1601133246832,746,-0.9628906,-0.42315674,0.109558105
1601133246833,747,-0.96118164,-0.42559814,0.11224365
1601133246833,748,-0.9602051,-0.4109497,0.10467529
1601133246833,749,-0.9628906,-0.4175415,0.10736084
1601133246833,750,-0.9577637,-0.41973877,0.10882568
1601133246833,751,-0.9589844,-0.411438,0.10345459
1601133246833,752,-0.9577637,-0.41973877,0.10882568
1601133246833,753,-0.95458984,-0.41290283,0.101989746
1601133246833,754,-0.9592285,-0.4241333,0.1083374
1601133246833,755,-0.95874023,-0.41851807,0.09222412
1601133246833,756,-0.9560547,-0.4121704,0.101257324
1601133246833,757,-0.9592285,-0.4241333,0.1083374
1601133246834,758,-0.9628906,-0.42315674,0.109558105
1601133246834,759,-0.9584961,-0.41656494,0.097351074
1601133246834,760,-0.9628906,-0.42315674,0.109558105
1601133246834,761,-0.9592285,-0.4241333,0.1083374
1601133246834,762,-0.96118164,-0.42559814,0.11224365
1601133246834,763,-0.96118164,-0.42559814,0.11224365
1601133246834,764,-0.96118164,-0.42559814,0.11224365
1601133246834,765,-0.9628906,-0.42315674,0.109558105
1601133246834,766,-0.95166016,-0.4133911,0.101501465
1601133246834,767,-0.9628906,-0.42315674,0.109558105
1601133246834,768,-0.9628906,-0.4175415,0.10736084
1601133246835,769,-0.9628906,-0.4175415,0.10736084
1601133246835,770,-0.9628906,-0.4175415,0.10736084
1601133246835,771,-0.96118164,-0.42559814,0.11224365
1601133246835,772,-0.9602051,-0.4109497,0.10467529
1601133246835,773,-0.9628906,-0.42315674,0.109558105
1601133246835,774,-0.9589844,-0.411438,0.10345459
1601133246835,775,-0.9628906,-0.4175415,0.10736084
1601133246836,776,-0.9543457,-0.41436768,0.09588623
1601133246836,777,-0.9597168,-0.41656494,0.10321045
1601133246836,778,-0.9602051,-0.4109497,0.10467529
1601133246840,779,-0.9602051,-0.4109497,0.10467529
1601133246840,780,-0.9628906,-0.42315674,0.109558105
1601133246840,781,-0.9628906,-0.42315674,0.109558105
1601133246840,782,-0.95458984,-0.41290283,0.101989746
1601133246840,783,-0.9628906,-0.4175415,0.10736084
1601133246840,784,-0.9602051,-0.4109497,0.10467529
1601133246840,785,-0.9577637,-0.41973877,0.10882568
1601133246841,786,-0.95825195,-0.4192505,0.09686279
1601133246841,787,-0.9589844,-0.411438,0.10345459
1601133246841,788,-0.9589844,-0.411438,0.10345459
1601133246841,789,-0.95458984,-0.41290283,0.101989746
1601133246845,790,-0.9602051,-0.4109497,0.10467529
1601133246845,791,-0.9628906,-0.4175415,0.10736084
1601133246846,792,-0.9602051,-0.4109497,0.10467529
1601133246846,793,-0.96118164,-0.41827393,0.10418701
1601133246846,794,-0.95458984,-0.41290283,0.101989746
1601133246846,795,-0.9592285,-0.4241333,0.1083374
1601133246846,796,-0.9628906,-0.4175415,0.10736084
1601133246846,797,-0.9560547,-0.4121704,0.101257324
1601133246846,798,-0.9560547,-0.4121704,0.101257324
1601133246846,799,-0.95166016,-0.4133911,0.101501465
1601133246846,800,-0.9604492,-0.41583252,0.1071167
1601133246850,801,-0.9589844,-0.411438,0.10345459
1601133246850,802,-0.9602051,-0.4109497,0.10467529
1601133246850,803,-0.9589844,-0.411438,0.10345459
1601133246850,804,-0.9560547,-0.4121704,0.101257324
1601133246850,805,-0.96118164,-0.42559814,0.11224365
1601133246850,806,-0.95458984,-0.41290283,0.101989746
1601133246851,807,-0.9589844,-0.411438,0.10345459
1601133246851,808,-0.9597168,-0.41705322,0.10223389
1601133246851,809,-0.9602051,-0.4109497,0.10467529
1601133246851,810,-0.9589844,-0.411438,0.10345459
1601133246856,811,-0.95458984,-0.41290283,0.101989746
1601133246856,812,-0.95166016,-0.4133911,0.101501465
1601133246856,813,-0.9543457,-0.41436768,0.09588623
1601133246856,814,-0.9560547,-0.4121704,0.101257324
1601133246856,815,-0.9543457,-0.41436768,0.09588623
1601133246856,816,-0.9628906,-0.41412354,0.09661865
1601133246857,817,-0.95825195,-0.4192505,0.09686279
1601133246857,818,-0.9589844,-0.411438,0.10345459
1601133246857,819,-0.95825195,-0.4192505,0.09686279
1601133246865,820,-0.95458984,-0.41290283,0.101989746
1601133246866,821,-0.9560547,-0.4121704,0.101257324
1601133246866,822,-0.9628906,-0.42315674,0.109558105
1601133246866,823,-0.95458984,-0.41290283,0.101989746
1601133246866,824,-0.95166016,-0.4133911,0.101501465
1601133246866,825,-0.9560547,-0.4121704,0.101257324
1601133246866,826,-0.9562988,-0.41485596,0.09539795
1601133246866,827,-0.96118164,-0.41827393,0.10418701
1601133246866,828,-0.96118164,-0.41827393,0.10418701
1601133246866,829,-0.95458984,-0.41290283,0.101989746
1601133246866,830,-0.9604492,-0.41583252,0.1071167
1601133246866,831,-0.9560547,-0.4121704,0.101257324
1601133246867,832,-0.95166016,-0.4133911,0.101501465
1601133246867,833,-0.9628906,-0.4175415,0.10736084
1601133246867,834,-0.95166016,-0.4133911,0.101501465
1601133246867,835,-0.95166016,-0.4133911,0.101501465
1601133246867,836,-0.9543457,-0.41436768,0.09588623
1601133246867,837,-0.9675293,-0.41461182,0.097351074
1601133246867,838,-0.9602051,-0.4109497,0.10467529
1601133246867,839,-0.9560547,-0.4121704,0.101257324
1601133246867,840,-0.9580078,-0.4163208,0.09637451
1601133246867,841,-0.9543457,-0.41436768,0.09588623
1601133246867,842,-0.9597168,-0.41705322,0.10223389
1601133246867,843,-0.95581055,-0.4216919,0.09832764
1601133246868,844,-0.9543457,-0.41436768,0.09588623
1601133246872,845,-0.9543457,-0.41436768,0.09588623
1601133246872,846,-0.95825195,-0.4192505,0.09686279
1601133246872,847,-0.9589844,-0.411438,0.10345459
1601133246872,848,-0.9604492,-0.41583252,0.1071167
1601133246872,849,-0.95166016,-0.4133911,0.101501465
1601133246872,850,-0.95825195,-0.4192505,0.09686279
1601133246872,851,-0.9597168,-0.41705322,0.10223389
1601133246873,852,-0.9543457,-0.41436768,0.09588623
1601133246873,853,-0.9753418,-0.42218018,0.113220215
1601133246873,854,-0.95825195,-0.4192505,0.09686279
1601133246879,855,-0.95825195,-0.4192505,0.09686279
1601133246879,856,-0.95458984,-0.41290283,0.101989746
1601133246879,857,-0.96118164,-0.41827393,0.10418701
1601133246879,858,-0.95166016,-0.4133911,0.101501465
1601133246880,859,-0.9628906,-0.41412354,0.09661865
1601133246880,860,-0.96118164,-0.41827393,0.10418701
1601133246880,861,-0.9560547,-0.4121704,0.101257324
1601133246880,862,-0.9543457,-0.41973877,0.10003662
1601133246880,863,-0.96118164,-0.41827393,0.10418701
1601133246880,864,-0.9628906,-0.41412354,0.09661865
1601133246880,865,-0.95166016,-0.4133911,0.101501465
1601133246880,866,-0.96118164,-0.41827393,0.10418701
1601133246880,867,-0.95825195,-0.4192505,0.09686279
1601133246881,868,-0.9604492,-0.41583252,0.1071167
1601133246881,869,-0.9304199,-0.41558838,0.0914917
1601133246881,870,-0.9562988,-0.41485596,0.09539795
1601133246881,871,-0.9604492,-0.41583252,0.1071167
1601133246881,872,-0.9597168,-0.41705322,0.10223389
1601133246884,873,-0.9543457,-0.41436768,0.09588623
1601133246884,874,-0.9562988,-0.41485596,0.09539795
1601133246884,875,-0.9543457,-0.41436768,0.09588623
1601133246884,876,-0.9604492,-0.41583252,0.1071167
1601133246884,877,-0.9604492,-0.41583252,0.1071167
1601133246884,878,-0.9675293,-0.41461182,0.097351074
1601133246884,879,-0.96118164,-0.41827393,0.10418701
1601133246885,880,-0.9597168,-0.41705322,0.10223389
1601133246885,881,-0.9628906,-0.41412354,0.09661865
1601133246885,882,-0.9580078,-0.4163208,0.09637451
1601133246888,883,-0.9675293,-0.41461182,0.097351074
1601133246888,884,-0.95825195,-0.4192505,0.09686279
1601133246888,885,-0.9597168,-0.41705322,0.10223389
1601133246889,886,-0.9597168,-0.41705322,0.10223389
1601133246889,887,-0.95825195,-0.4192505,0.09686279
1601133246889,888,-0.9604492,-0.41583252,0.1071167
1601133246889,889,-0.9562988,-0.41485596,0.09539795
1601133246889,890,-0.96118164,-0.41827393,0.10418701
1601133246889,891,-0.9628906,-0.41412354,0.09661865
1601133246889,892,-0.9675293,-0.41461182,0.097351074
1601133246893,893,-0.9628906,-0.41412354,0.09661865
1601133246893,894,-0.96118164,-0.41827393,0.10418701
1601133246893,895,-0.9628906,-0.41412354,0.09661865
1601133246893,896,-0.95581055,-0.4216919,0.09832764
1601133246893,897,-0.9597168,-0.41705322,0.10223389
1601133246893,898,-0.9562988,-0.41485596,0.09539795
1601133246893,899,-0.9562988,-0.41485596,0.09539795
1601133246893,900,-0.9580078,-0.4163208,0.09637451
1601133246893,901,-0.9604492,-0.41583252,0.1071167
1601133246896,902,-0.9562988,-0.41485596,0.09539795
1601133246896,903,-0.9604492,-0.41583252,0.1071167
1601133246896,904,-0.9628906,-0.41412354,0.09661865
1601133246897,905,-0.9753418,-0.42218018,0.113220215
1601133246897,906,-0.9597168,-0.41705322,0.10223389
1601133246897,907,-0.9675293,-0.41461182,0.097351074
1601133246897,908,-0.9562988,-0.41485596,0.09539795
1601133246897,909,-0.9628906,-0.41412354,0.09661865
1601133246897,910,-0.9597168,-0.41705322,0.10223389
1601133246898,911,-0.9675293,-0.41461182,0.097351074
1601133246898,912,-0.9675293,-0.41461182,0.097351074
1601133246899,913,-0.95581055,-0.4216919,0.09832764
1601133246900,914,-0.9580078,-0.4163208,0.09637451
1601133246902,915,-0.9562988,-0.41485596,0.09539795
1601133246903,916,-0.9628906,-0.41412354,0.09661865
1601133246903,917,-0.95581055,-0.4216919,0.09832764
1601133246903,918,-0.9580078,-0.4163208,0.09637451
1601133246903,919,-0.9543457,-0.41973877,0.10003662
1601133246904,920,-0.9675293,-0.41461182,0.097351074
1601133246904,921,-0.9580078,-0.4163208,0.09637451
1601133246904,922,-0.95581055,-0.4216919,0.09832764
1601133246909,923,-0.9580078,-0.4163208,0.09637451
1601133246909,924,-0.9675293,-0.41461182,0.097351074
1601133246909,925,-0.95581055,-0.4216919,0.09832764
1601133246909,926,-0.9304199,-0.41558838,0.0914917
1601133246909,927,-0.9753418,-0.42218018,0.113220215
1601133246909,928,-0.9753418,-0.42218018,0.113220215
1601133246909,929,-0.9753418,-0.42218018,0.113220215
1601133246910,930,-0.95581055,-0.4216919,0.09832764
1601133246910,931,-0.9580078,-0.4163208,0.09637451
1601133246910,932,-0.9562988,-0.41485596,0.09539795
1601133246910,933,-0.95581055,-0.4216919,0.09832764
1601133246910,934,-0.9753418,-0.42218018,0.113220215
1601133246910,935,-0.9543457,-0.41973877,0.10003662
1601133246910,936,-0.9543457,-0.41973877,0.10003662
1601133246910,937,-0.9543457,-0.41973877,0.10003662
1601133246911,938,-0.9543457,-0.41973877,0.10003662
1601133246919,939,-0.9580078,-0.4163208,0.09637451
1601133246919,940,-0.9675293,-0.41461182,0.097351074
1601133246920,941,-0.9753418,-0.42218018,0.113220215
1601133246920,942,-0.9304199,-0.41558838,0.0914917
1601133246920,943,-0.9753418,-0.42218018,0.113220215
1601133246920,944,-0.9304199,-0.41558838,0.0914917
1601133246920,945,-0.9304199,-0.41558838,0.0914917
1601133246920,946,-0.95581055,-0.4216919,0.09832764
1601133246920,947,-0.9304199,-0.41558838,0.0914917
1601133246920,948,-0.9580078,-0.4163208,0.09637451
1601133246920,949,-0.9543457,-0.41973877,0.10003662
1601133246920,950,-0.9543457,-0.41973877,0.10003662
1601133246920,951,-0.9753418,-0.42218018,0.113220215
1601133246920,952,-0.95581055,-0.4216919,0.09832764
1601133246920,953,-0.9543457,-0.41973877,0.10003662
1601133246920,954,-0.9753418,-0.42218018,0.113220215
1601133246920,955,-0.9304199,-0.41558838,0.0914917
1601133246921,956,-0.9304199,-0.41558838,0.0914917
1601133246921,957,-0.9304199,-0.41558838,0.0914917
1601133246921,958,-0.9543457,-0.41973877,0.10003662
1601133246922,959,-0.9304199,-0.41558838,0.0914917
1601133249079,960,-0.9506836,-0.4265747,0.10076904
1601133249080,961,-0.9506836,-0.4265747,0.10076904
1601133249080,962,-0.9506836,-0.4265747,0.10076904
1601133249080,963,-0.9506836,-0.4265747,0.10076904
1601133249080,964,-0.9506836,-0.4265747,0.10076904
1601133249080,965,-0.9506836,-0.4265747,0.10076904
1601133249080,966,-0.9506836,-0.4265747,0.10076904
1601133249080,967,-0.998291,-0.4343872,0.105651855
1601133249081,968,-0.998291,-0.4343872,0.105651855
1601133249081,969,-0.95043945,-0.4336548,0.09466553
1601133249081,970,-0.9506836,-0.4265747,0.10076904
1601133249081,971,-0.9506836,-0.4265747,0.10076904
1601133249081,972,-0.998291,-0.4343872,0.105651855
1601133249081,973,-0.998291,-0.4343872,0.105651855
1601133249081,974,-0.9506836,-0.4265747,0.10076904
1601133249082,975,-0.998291,-0.4343872,0.105651855
1601133249082,976,-0.95043945,-0.4336548,0.09466553
1601133249082,977,-0.998291,-0.4343872,0.105651855
1601133249082,978,-0.9499512,-0.41070557,0.10369873
1601133249082,979,-0.95043945,-0.4336548,0.09466553
1601133249082,980,-0.95043945,-0.4336548,0.09466553
1601133249082,981,-0.998291,-0.4343872,0.105651855
1601133249083,982,-0.998291,-0.4343872,0.105651855
1601133249083,983,-0.9694824,-0.42315674,0.10223389
1601133249083,984,-0.95043945,-0.4336548,0.09466553
1601133249084,985,-0.95043945,-0.4336548,0.09466553
1601133249084,986,-0.9499512,-0.41070557,0.10369873
1601133249084,987,-0.9499512,-0.41070557,0.10369873
1601133249084,988,-0.998291,-0.4343872,0.105651855
1601133249086,989,-0.998291,-0.4343872,0.105651855
1601133249087,990,-0.9663086,-0.42486572,0.09881592
1601133249087,991,-0.9499512,-0.41070557,0.10369873
1601133249087,992,-0.95043945,-0.4336548,0.09466553
1601133249087,993,-0.9499512,-0.41070557,0.10369873
1601133249087,994,-0.9733887,-0.41119385,0.10223389
1601133249087,995,-0.9499512,-0.41070557,0.10369873
1601133249087,996,-0.9694824,-0.42315674,0.10223389
1601133249087,997,-0.9694824,-0.42315674,0.10223389
1601133249087,998,-0.95043945,-0.4336548,0.09466553
1601133249087,999,-0.95043945,-0.4336548,0.09466553
1601133249088,1000,-0.95043945,-0.4336548,0.09466553
1601133249092,1001,-0.9694824,-0.42315674,0.10223389
1601133249092,1002,-0.95947266,-0.41119385,0.10028076
1601133249093,1003,-0.9499512,-0.41070557,0.10369873
1601133249093,1004,-0.9663086,-0.42486572,0.09881592
1601133249093,1005,-0.9663086,-0.42486572,0.09881592
1601133249093,1006,-0.9675293,-0.41119385,0.10467529
1601133249093,1007,-0.9694824,-0.42315674,0.10223389
1601133249093,1008,-0.9499512,-0.41070557,0.10369873
1601133249093,1009,-0.9499512,-0.41070557,0.10369873
1601133249093,1010,-0.9663086,-0.42486572,0.09881592
1601133249098,1011,-0.9733887,-0.41119385,0.10223389
1601133249099,1012,-0.9733887,-0.41119385,0.10223389
1601133249099,1013,-0.9694824,-0.42315674,0.10223389
1601133249099,1014,-0.95947266,-0.41119385,0.10028076
1601133249099,1015,-0.9733887,-0.41119385,0.10223389
1601133249099,1016,-0.9663086,-0.42486572,0.09881592
1601133249099,1017,-0.9694824,-0.42315674,0.10223389
1601133249099,1018,-0.95947266,-0.41119385,0.10028076
1601133249099,1019,-0.9675293,-0.41119385,0.10467529
1601133249100,1020,-0.9499512,-0.41070557,0.10369873
1601133249100,1021,-0.9663086,-0.42486572,0.09881592
1601133249102,1022,-0.95947266,-0.41119385,0.10028076
1601133249113,1023,-0.9733887,-0.41119385,0.10223389
1601133249113,1024,-0.9733887,-0.41119385,0.10223389
1601133249113,1025,-0.9663086,-0.42486572,0.09881592
1601133249113,1026,-0.9694824,-0.42315674,0.10223389
1601133249113,1027,-0.9675293,-0.42218018,0.10491943
1601133249117,1028,-0.9733887,-0.41119385,0.10223389
1601133249118,1029,-0.9694824,-0.42315674,0.10223389
1601133249120,1030,-0.9675293,-0.42218018,0.10491943
1601133249120,1031,-0.95947266,-0.41119385,0.10028076
1601133249121,1032,-0.9675293,-0.41119385,0.10467529
1601133249121,1033,-0.93408203,-0.42559814,0.11273193
1601133249121,1034,-0.9663086,-0.42486572,0.09881592
1601133249121,1035,-0.95947266,-0.41119385,0.10028076
1601133249121,1036,-0.9675293,-0.42218018,0.10491943
1601133249121,1037,-0.9675293,-0.41119385,0.10467529
1601133249121,1038,-0.9675293,-0.41119385,0.10467529
1601133249121,1039,-0.9694824,-0.42315674,0.10223389
1601133249121,1040,-0.93408203,-0.42559814,0.11273193
1601133249122,1041,-0.95947266,-0.41119385,0.10028076
1601133249122,1042,-0.9675293,-0.41119385,0.10467529
1601133249122,1043,-0.9489746,-0.4331665,0.12640381
1601133249122,1044,-0.9663086,-0.42486572,0.09881592
1601133249122,1045,-0.9663086,-0.42633057,0.13494873
1601133249122,1046,-0.9675293,-0.42218018,0.10491943
1601133249122,1047,-0.9733887,-0.41119385,0.10223389
1601133249122,1048,-0.9663086,-0.42486572,0.09881592
1601133249125,1049,-0.9489746,-0.4331665,0.12640381
1601133249125,1050,-0.9675293,-0.41119385,0.10467529
1601133249125,1051,-0.9675293,-0.42218018,0.10491943
1601133249125,1052,-0.93408203,-0.42559814,0.11273193
1601133249125,1053,-0.94018555,-0.41949463,0.121276855
1601133249126,1054,-0.9733887,-0.41119385,0.10223389
1601133249133,1055,-0.93408203,-0.42559814,0.11273193
1601133249135,1056,-0.95947266,-0.41119385,0.10028076
1601133249135,1057,-0.9675293,-0.42218018,0.10491943
1601133249146,1058,-0.9733887,-0.41119385,0.10223389
1601133249155,1059,-0.93408203,-0.42559814,0.11273193
1601133249155,1060,-0.9489746,-0.4331665,0.12640381
1601133249155,1061,-0.9675293,-0.42218018,0.10491943
1601133249155,1062,-0.9675293,-0.41119385,0.10467529
1601133249155,1063,-0.95947266,-0.41119385,0.10028076
1601133249155,1064,-0.9489746,-0.4331665,0.12640381
1601133249155,1065,-0.94921875,-0.42877197,0.12054443
1601133249155,1066,-0.9663086,-0.42633057,0.13494873
1601133249157,1067,-0.93408203,-0.42559814,0.11273193
1601133249162,1068,-0.9675293,-0.42218018,0.10491943
1601133249162,1069,-0.9663086,-0.42633057,0.13494873
1601133249162,1070,-0.9663086,-0.42633057,0.13494873
1601133249162,1071,-0.9675293,-0.41119385,0.10467529
1601133249162,1072,-0.93408203,-0.42559814,0.11273193
1601133249162,1073,-0.94018555,-0.41949463,0.121276855
1601133249162,1074,-0.93408203,-0.42559814,0.11273193
1601133249162,1075,-0.95947266,-0.41119385,0.10028076
1601133249162,1076,-0.954834,-0.42681885,0.12884521
1601133249162,1077,-0.9675293,-0.41119385,0.10467529
1601133249162,1078,-0.9675293,-0.42218018,0.10491943
1601133249162,1079,-0.94018555,-0.41949463,0.121276855
1601133249162,1080,-0.94018555,-0.41949463,0.121276855
1601133249162,1081,-0.9489746,-0.4331665,0.12640381
1601133249162,1082,-0.9663086,-0.42633057,0.13494873
1601133249162,1083,-0.94921875,-0.42877197,0.12054443
1601133249162,1084,-0.9489746,-0.4331665,0.12640381
1601133249163,1085,-0.9489746,-0.4331665,0.12640381
1601133249163,1086,-0.9675293,-0.42218018,0.10491943
1601133249163,1087,-0.94921875,-0.42877197,0.12054443
1601133249163,1088,-0.94921875,-0.42877197,0.12054443
1601133249163,1089,-0.93408203,-0.42559814,0.11273193
1601133249163,1090,-0.954834,-0.42681885,0.12884521
1601133249163,1091,-0.954834,-0.42681885,0.12884521
1601133249163,1092,-0.9663086,-0.42633057,0.13494873
1601133249163,1093,-0.94018555,-0.41949463,0.121276855
1601133249163,1094,-0.9663086,-0.42633057,0.13494873
1601133249163,1095,-0.92700195,-0.4109497,0.12908936
1601133249163,1096,-0.93408203,-0.42559814,0.11273193
1601133249163,1097,-0.94921875,-0.42877197,0.12054443
1601133249163,1098,-0.954834,-0.42681885,0.12884521
1601133249163,1099,-0.9489746,-0.4331665,0.12640381
1601133249163,1100,-0.9489746,-0.4331665,0.12640381
1601133249163,1101,-0.92700195,-0.4109497,0.12908936
1601133249163,1102,-0.92700195,-0.4109497,0.12908936
1601133249163,1103,-0.94018555,-0.41949463,0.121276855
1601133249164,1104,-0.94018555,-0.41949463,0.121276855
1601133249164,1105,-0.9489746,-0.4331665,0.12640381
1601133249164,1106,-0.954834,-0.42681885,0.12884521
1601133249164,1107,-0.9663086,-0.42633057,0.13494873
1601133249164,1108,-0.9199219,-0.4019165,0.12908936
1601133249164,1109,-0.9199219,-0.4019165,0.12908936
1601133249165,1110,-0.94921875,-0.42877197,0.12054443
1601133249165,1111,-0.94921875,-0.42877197,0.12054443
1601133249168,1112,-0.9663086,-0.42633057,0.13494873
1601133249168,1113,-0.92700195,-0.4109497,0.12908936
1601133249168,1114,-0.9199219,-0.4019165,0.12908936
1601133249168,1115,-0.92700195,-0.4109497,0.12908936
1601133249168,1116,-0.9199219,-0.4019165,0.12908936
1601133249168,1117,-0.9572754,-0.4265747,0.13470459
1601133249168,1118,-0.94018555,-0.41949463,0.121276855
1601133249176,1119,-0.954834,-0.42681885,0.12884521
1601133249177,1120,-0.94018555,-0.41949463,0.121276855
1601133249177,1121,-0.954834,-0.42681885,0.12884521
1601133249177,1122,-0.9663086,-0.42633057,0.13494873
1601133249177,1123,-0.9572754,-0.4265747,0.13470459
1601133249177,1124,-0.9572754,-0.4265747,0.13470459
1601133249177,1125,-0.94921875,-0.42877197,0.12054443
1601133249177,1126,-0.94921875,-0.42877197,0.12054443
1601133249177,1127,-0.9572754,-0.4265747,0.13470459
1601133249177,1128,-0.94506836,-0.43243408,0.1383667
1601133249177,1129,-0.954834,-0.42681885,0.12884521
1601133249177,1130,-0.92700195,-0.4109497,0.12908936
1601133249177,1131,-0.94018555,-0.41949463,0.121276855
1601133249177,1132,-0.94506836,-0.43243408,0.1383667
1601133249177,1133,-0.92700195,-0.4109497,0.12908936
1601133249180,1134,-0.954834,-0.42681885,0.12884521
1601133249180,1135,-0.92700195,-0.4109497,0.12908936
1601133249180,1136,-0.9199219,-0.4019165,0.12908936
1601133249180,1137,-0.92700195,-0.4109497,0.12908936
1601133249180,1138,-0.9199219,-0.4019165,0.12908936
1601133249180,1139,-0.94506836,-0.43243408,0.1383667
1601133249180,1140,-0.94921875,-0.42877197,0.12054443
1601133249180,1141,-0.96435547,-0.4277954,0.13983154
1601133249180,1142,-0.9199219,-0.4019165,0.12908936
1601133249180,1143,-0.9199219,-0.4019165,0.12908936
1601133249180,1144,-0.9572754,-0.4265747,0.13470459
1601133249180,1145,-0.96435547,-0.4277954,0.13983154
1601133249180,1146,-0.94506836,-0.43243408,0.1383667
1601133249180,1147,-0.9199219,-0.4019165,0.12908936
1601133249181,1148,-0.9572754,-0.4265747,0.13470459
1601133249181,1149,-0.96435547,-0.4277954,0.13983154
1601133249182,1150,-0.9494629,-0.42462158,0.13739014
1601133249182,1151,-0.9572754,-0.4265747,0.13470459
1601133249182,1152,-0.9494629,-0.42462158,0.13739014
1601133249187,1153,-0.94506836,-0.43243408,0.1383667
1601133249187,1154,-0.96435547,-0.4277954,0.13983154
1601133249187,1155,-0.9572754,-0.4265747,0.13470459
1601133249187,1156,-0.954834,-0.42681885,0.12884521
1601133249187,1157,-0.9494629,-0.42462158,0.13739014
1601133249187,1158,-0.94506836,-0.43243408,0.1383667
1601133249187,1159,-0.9572754,-0.4265747,0.13470459
1601133249187,1160,-0.9506836,-0.4258423,0.14447021
1601133249187,1161,-0.9506836,-0.4258423,0.14447021
1601133249187,1162,-0.94506836,-0.43243408,0.1383667
1601133249188,1163,-0.96435547,-0.4277954,0.13983154
1601133249188,1164,-0.9494629,-0.42462158,0.13739014
1601133249193,1165,-0.94506836,-0.43243408,0.1383667
1601133249193,1166,-0.96435547,-0.4277954,0.13983154
1601133249194,1167,-0.9506836,-0.4258423,0.14447021
1601133249194,1168,-0.96435547,-0.4277954,0.13983154
1601133249194,1169,-0.94506836,-0.43243408,0.1383667
1601133249194,1170,-0.9494629,-0.42462158,0.13739014
1601133249194,1171,-0.96435547,-0.4277954,0.13983154
1601133249194,1172,-0.9506836,-0.4258423,0.14447021
1601133249194,1173,-0.92700195,-0.4109497,0.12908936
1601133249194,1174,-0.9506836,-0.4258423,0.14447021
1601133249194,1175,-0.9199219,-0.4019165,0.12908936
1601133249194,1176,-0.9538574,-0.42681885,0.14202881
1601133249194,1177,-0.9494629,-0.42462158,0.13739014
1601133249194,1178,-0.9538574,-0.42681885,0.14202881
1601133249194,1179,-0.9538574,-0.42681885,0.14202881
1601133249194,1180,-0.9538574,-0.42681885,0.14202881
1601133249194,1181,-0.94921875,-0.42755127,0.13372803
1601133249195,1182,-0.94921875,-0.42755127,0.13372803
1601133249195,1183,-0.9538574,-0.42681885,0.14202881
1601133249199,1184,-0.9494629,-0.42462158,0.13739014
1601133249199,1185,-0.96435547,-0.4277954,0.13983154
1601133249199,1186,-0.9506836,-0.4258423,0.14447021
1601133249199,1187,-0.9494629,-0.42462158,0.13739014
1601133249199,1188,-0.94921875,-0.42755127,0.13372803
1601133249200,1189,-0.94921875,-0.42755127,0.13372803
1601133249200,1190,-0.9572754,-0.4265747,0.13470459
1601133249200,1191,-0.9421387,-0.4282837,0.13323975
1601133249200,1192,-0.9421387,-0.4282837,0.13323975
1601133249200,1193,-0.9421387,-0.4282837,0.13323975
1601133249200,1194,-0.9538574,-0.42681885,0.14202881
1601133249200,1195,-0.9707031,-0.442688,0.12713623
1601133249200,1196,-0.9506836,-0.4258423,0.14447021
1601133249200,1197,-0.94921875,-0.42755127,0.13372803
1601133249200,1198,-0.9482422,-0.43658447,0.13128662
1601133249206,1199,-0.9506836,-0.4258423,0.14447021
1601133249207,1200,-0.9707031,-0.442688,0.12713623
1601133249207,1201,-0.9494629,-0.42462158,0.13739014
1601133249207,1202,-0.9421387,-0.4282837,0.13323975
1601133249207,1203,-0.9482422,-0.43658447,0.13128662
1601133249207,1204,-0.9506836,-0.4258423,0.14447021
1601133249207,1205,-0.94506836,-0.43243408,0.1383667
1601133249207,1206,-0.9538574,-0.42681885,0.14202881
1601133249207,1207,-0.9421387,-0.4282837,0.13323975
1601133249207,1208,-0.94921875,-0.42755127,0.13372803
1601133249207,1209,-0.94750977,-0.41436768,0.1239624
1601133249207,1210,-0.9421387,-0.4282837,0.13323975
1601133249207,1211,-0.9707031,-0.442688,0.12713623
1601133249207,1212,-0.94921875,-0.42755127,0.13372803
1601133249207,1213,-0.9707031,-0.442688,0.12713623
1601133249207,1214,-0.94750977,-0.41436768,0.1239624
1601133249207,1215,-0.9538574,-0.42681885,0.14202881
1601133249207,1216,-0.96435547,-0.4277954,0.13983154
1601133249211,1217,-0.9538574,-0.42681885,0.14202881
1601133249211,1218,-0.9707031,-0.442688,0.12713623
1601133249211,1219,-0.9494629,-0.42462158,0.13739014
1601133249211,1220,-0.94506836,-0.42218018,0.10443115
1601133249211,1221,-0.9482422,-0.43658447,0.13128662
1601133249211,1222,-0.9506836,-0.4258423,0.14447021
1601133249211,1223,-0.9482422,-0.43658447,0.13128662
1601133249212,1224,-0.94506836,-0.42218018,0.10443115
1601133249212,1225,-0.94921875,-0.42755127,0.13372803
1601133249214,1226,-0.9707031,-0.442688,0.12713623
1601133249215,1227,-0.9482422,-0.43658447,0.13128662
1601133249215,1228,-0.94750977,-0.41436768,0.1239624
1601133249215,1229,-0.9482422,-0.43658447,0.13128662
1601133249215,1230,-0.94750977,-0.41436768,0.1239624
1601133249215,1231,-0.94750977,-0.41436768,0.1239624
1601133249215,1232,-0.94506836,-0.42218018,0.10443115
1601133249215,1233,-0.9538574,-0.43414307,0.11151123
1601133249215,1234,-0.9538574,-0.43414307,0.11151123
1601133249216,1235,-0.94921875,-0.42755127,0.13372803
1601133249216,1236,-0.9538574,-0.42681885,0.14202881
1601133249219,1237,-0.94506836,-0.42218018,0.10443115
1601133249219,1238,-0.9421387,-0.4282837,0.13323975
1601133249219,1239,-0.94750977,-0.41436768,0.1239624
1601133249220,1240,-0.94506836,-0.42218018,0.10443115
1601133249220,1241,-0.9538574,-0.43414307,0.11151123
1601133249220,1242,-0.9538574,-0.43414307,0.11151123
1601133249220,1243,-0.9650879,-0.42144775,0.121032715
1601133249220,1244,-0.9421387,-0.4282837,0.13323975
1601133249220,1245,-0.9421387,-0.4282837,0.13323975
1601133249223,1246,-0.9707031,-0.442688,0.12713623
1601133249223,1247,-0.94506836,-0.42218018,0.10443115
1601133249224,1248,-0.9538574,-0.43414307,0.11151123
1601133249224,1249,-0.9650879,-0.42144775,0.121032715
1601133249224,1250,-0.9538574,-0.43414307,0.11151123
1601133249224,1251,-0.9482422,-0.43658447,0.13128662
1601133249224,1252,-0.94921875,-0.42755127,0.13372803
1601133249224,1253,-0.9650879,-0.42144775,0.121032715
1601133249224,1254,-0.9707031,-0.442688,0.12713623
1601133249230,1255,-0.9650879,-0.42144775,0.121032715
1601133249231,1256,-0.9650879,-0.42144775,0.121032715
1601133249231,1257,-0.94750977,-0.41436768,0.1239624
1601133249231,1258,-0.9650879,-0.42144775,0.121032715
1601133249233,1259,-0.9482422,-0.43658447,0.13128662
1601133249234,1260,-0.9707031,-0.442688,0.12713623
1601133249234,1261,-0.9482422,-0.43658447,0.13128662
1601133249234,1262,-0.9421387,-0.4282837,0.13323975
1601133249234,1263,-0.94750977,-0.41436768,0.1239624
1601133249234,1264,-0.94750977,-0.41436768,0.1239624
1601133249236,1265,-0.94506836,-0.42218018,0.10443115
1601133249236,1266,-0.94506836,-0.42218018,0.10443115
1601133249236,1267,-0.9707031,-0.442688,0.12713623
1601133249237,1268,-0.9538574,-0.43414307,0.11151123
1601133249237,1269,-0.9538574,-0.43414307,0.11151123
1601133249237,1270,-0.9482422,-0.43658447,0.13128662
1601133249237,1271,-0.9650879,-0.42144775,0.121032715
1601133249240,1272,-0.9650879,-0.42144775,0.121032715
1601133249240,1273,-0.94750977,-0.41436768,0.1239624
1601133249240,1274,-0.94506836,-0.42218018,0.10443115
1601133249240,1275,-0.94506836,-0.42218018,0.10443115
1601133249240,1276,-0.9538574,-0.43414307,0.11151123
1601133249241,1277,-0.9650879,-0.42144775,0.121032715
1601133249242,1278,-0.9538574,-0.43414307,0.11151123
1601133249243,1279,-0.9650879,-0.42144775,0.121032715
1601133251639,1280,-0.93969727,-0.4216919,0.13787842
1601133251640,1281,-0.93969727,-0.4216919,0.13787842
1601133251643,1282,-0.9343262,-0.42315674,0.15203857
1601133251645,1283,-0.93969727,-0.4216919,0.13787842
1601133251674,1284,-0.93969727,-0.4216919,0.13787842
1601133251674,1285,-0.93969727,-0.4216919,0.13787842
1601133251675,1286,-0.93969727,-0.4216919,0.13787842
1601133251675,1287,-0.93969727,-0.4216919,0.13787842
1601133251675,1288,-0.9343262,-0.42315674,0.15203857
1601133251675,1289,-0.9343262,-0.42315674,0.15203857
1601133251675,1290,-0.93969727,-0.4216919,0.13787842
1601133251675,1291,-0.94921875,-0.4595337,0.14520264
1601133251675,1292,-0.9343262,-0.42315674,0.15203857
1601133251675,1293,-0.9343262,-0.42315674,0.15203857
1601133251675,1294,-0.93969727,-0.4216919,0.13787842
1601133251676,1295,-0.9343262,-0.42315674,0.15203857
1601133251676,1296,-0.94921875,-0.4595337,0.14520264
1601133251676,1297,-0.9343262,-0.42315674,0.15203857
1601133251676,1298,-0.9343262,-0.42315674,0.15203857
1601133251676,1299,-0.9343262,-0.42315674,0.15203857
1601133251676,1300,-0.94921875,-0.4595337,0.14520264
1601133251677,1301,-0.94921875,-0.4595337,0.14520264
1601133251678,1302,-0.93969727,-0.4216919,0.13787842
1601133251678,1303,-0.96533203,-0.44854736,0.13421631
1601133251678,1304,-0.96533203,-0.44854736,0.13421631
1601133251678,1305,-0.9592285,-0.42022705,0.14691162
1601133251680,1306,-0.96533203,-0.44854736,0.13421631
1601133251680,1307,-0.94921875,-0.4595337,0.14520264
1601133251680,1308,-0.94921875,-0.4595337,0.14520264
1601133251680,1309,-0.9592285,-0.42022705,0.14691162
1601133251680,1310,-0.96533203,-0.44854736,0.13421631
1601133251680,1311,-0.96484375,-0.41851807,0.13934326
1601133251680,1312,-0.94921875,-0.4595337,0.14520264
1601133251681,1313,-0.94921875,-0.4595337,0.14520264
1601133251681,1314,-0.9592285,-0.42022705,0.14691162
1601133251681,1315,-0.96533203,-0.44854736,0.13421631
1601133251681,1316,-0.96484375,-0.41851807,0.13934326
1601133251681,1317,-0.9343262,-0.42315674,0.15203857
1601133251681,1318,-0.9592285,-0.42022705,0.14691162
1601133251681,1319,-0.96533203,-0.44854736,0.13421631
1601133251681,1320,-0.96484375,-0.41851807,0.13934326
1601133251681,1321,-0.96533203,-0.44854736,0.13421631
1601133251681,1322,-0.94921875,-0.4595337,0.14520264
1601133251681,1323,-0.9592285,-0.42022705,0.14691162
1601133251681,1324,-0.96484375,-0.41851807,0.13934326
1601133251681,1325,-0.96484375,-0.41851807,0.13934326
1601133251712,1326,-0.9536133,-0.40460205,0.1317749
1601133251712,1327,-0.96533203,-0.44854736,0.13421631
1601133251713,1328,-0.9592285,-0.42022705,0.14691162
1601133251713,1329,-0.94921875,-0.4595337,0.14520264
1601133251713,1330,-0.9536133,-0.40460205,0.1317749
1601133251713,1331,-0.96533203,-0.44854736,0.13421631
1601133251713,1332,-0.9592285,-0.42022705,0.14691162
1601133251714,1333,-0.9536133,-0.40460205,0.1317749
1601133251714,1334,-0.9592285,-0.42022705,0.14691162
1601133251714,1335,-0.9536133,-0.40460205,0.1317749
1601133251715,1336,-0.93188477,-0.40093994,0.1305542
1601133251715,1337,-0.9592285,-0.42022705,0.14691162
1601133251715,1338,-0.96655273,-0.41827393,0.13885498
1601133251715,1339,-0.93188477,-0.40093994,0.1305542
1601133251715,1340,-0.96533203,-0.44854736,0.13421631
1601133251716,1341,-0.96484375,-0.41851807,0.13934326
1601133251717,1342,-0.9536133,-0.40460205,0.1317749
1601133251717,1343,-0.96655273,-0.41827393,0.13885498
1601133251718,1344,-0.93188477,-0.40093994,0.1305542
1601133251718,1345,-0.96484375,-0.41851807,0.13934326
1601133251718,1346,-0.93188477,-0.40093994,0.1305542
1601133251718,1347,-0.96484375,-0.41851807,0.13934326
1601133251719,1348,-0.96655273,-0.41827393,0.13885498
1601133251719,1349,-0.93603516,-0.4060669,0.13568115
1601133251719,1350,-0.9536133,-0.40460205,0.1317749
1601133251719,1351,-0.96484375,-0.41851807,0.13934326
1601133251719,1352,-0.9592285,-0.42022705,0.14691162
1601133251719,1353,-0.93603516,-0.4060669,0.13568115
1601133251719,1354,-0.9536133,-0.40460205,0.1317749
1601133251719,1355,-0.96655273,-0.41827393,0.13885498
1601133251719,1356,-0.93188477,-0.40093994,0.1305542
1601133251719,1357,-0.93188477,-0.40093994,0.1305542
1601133251719,1358,-0.9536133,-0.40460205,0.1317749
1601133251719,1359,-0.9628906,-0.42926025,0.12762451
1601133251719,1360,-0.93188477,-0.40093994,0.1305542
1601133251719,1361,-0.93603516,-0.4060669,0.13568115
1601133251720,1362,-0.93188477,-0.40093994,0.1305542
1601133251720,1363,-0.96484375,-0.41851807,0.13934326
1601133251720,1364,-0.9536133,-0.40460205,0.1317749
1601133251720,1365,-0.96655273,-0.41827393,0.13885498
1601133251720,1366,-0.93603516,-0.4060669,0.13568115
1601133251720,1367,-0.9628906,-0.42926025,0.12762451
1601133251720,1368,-0.96655273,-0.41827393,0.13885498
1601133251720,1369,-0.96655273,-0.41827393,0.13885498
1601133251720,1370,-0.967041,-0.43048096,0.12908936
1601133251720,1371,-0.967041,-0.43048096,0.12908936
1601133251720,1372,-0.9494629,-0.42242432,0.14984131
1601133251720,1373,-0.96655273,-0.41827393,0.13885498
1601133251720,1374,-0.9628906,-0.42926025,0.12762451
1601133251720,1375,-0.9313965,-0.41607666,0.15130615
1601133251721,1376,-0.93603516,-0.4060669,0.13568115
1601133251721,1377,-0.93603516,-0.4060669,0.13568115
1601133251721,1378,-0.94555664,-0.41534424,0.15179443
1601133251721,1379,-0.9628906,-0.42926025,0.12762451
1601133251721,1380,-0.9536133,-0.40460205,0.1317749
1601133251721,1381,-0.9494629,-0.42242432,0.14984131
1601133251721,1382,-0.967041,-0.43048096,0.12908936
1601133251721,1383,-0.93188477,-0.40093994,0.1305542
1601133251721,1384,-0.93603516,-0.4060669,0.13568115
1601133251721,1385,-0.93603516,-0.4060669,0.13568115
1601133251721,1386,-0.967041,-0.43048096,0.12908936
1601133251721,1387,-0.93188477,-0.40093994,0.1305542
1601133251721,1388,-0.9609375,-0.42071533,0.13494873
1601133251721,1389,-0.9628906,-0.42926025,0.12762451
1601133251722,1390,-0.9494629,-0.42242432,0.14984131
1601133251722,1391,-0.9628906,-0.42926025,0.12762451
1601133251722,1392,-0.9313965,-0.41607666,0.15130615
1601133251722,1393,-0.967041,-0.43048096,0.12908936
1601133251722,1394,-0.96655273,-0.41827393,0.13885498
1601133251723,1395,-0.9313965,-0.41607666,0.15130615
1601133251723,1396,-0.9628906,-0.42926025,0.12762451
1601133251723,1397,-0.9494629,-0.42242432,0.14984131
1601133251723,1398,-0.9797363,-0.43341064,0.12786865
1601133251723,1399,-0.96655273,-0.41827393,0.13885498
1601133251724,1400,-0.94555664,-0.41534424,0.15179443
1601133251724,1401,-0.9628906,-0.42926025,0.12762451
1601133251724,1402,-0.9494629,-0.42242432,0.14984131
1601133251724,1403,-0.967041,-0.43048096,0.12908936
1601133251736,1404,-0.94555664,-0.41534424,0.15179443
1601133251736,1405,-0.967041,-0.43048096,0.12908936
1601133251736,1406,-0.93603516,-0.4060669,0.13568115
1601133251736,1407,-0.9609375,-0.42071533,0.13494873
1601133251737,1408,-0.9313965,-0.41607666,0.15130615
1601133251737,1409,-0.9609375,-0.42071533,0.13494873
1601133251737,1410,-0.93603516,-0.4060669,0.13568115
1601133251737,1411,-0.967041,-0.43048096,0.12908936
1601133251737,1412,-0.9313965,-0.41607666,0.15130615
1601133251737,1413,-0.94555664,-0.41534424,0.15179443
1601133251737,1414,-0.9494629,-0.42242432,0.14984131
1601133251737,1415,-0.93603516,-0.40045166,0.14959717
1601133251737,1416,-0.9313965,-0.41607666,0.15130615
1601133251737,1417,-0.9628906,-0.42926025,0.12762451
1601133251737,1418,-0.9797363,-0.43341064,0.12786865
1601133251738,1419,-0.9797363,-0.43341064,0.12786865
1601133251738,1420,-0.94555664,-0.41534424,0.15179443
1601133251738,1421,-0.9628906,-0.42926025,0.12762451
1601133251738,1422,-0.967041,-0.43048096,0.12908936
1601133251738,1423,-0.9609375,-0.42071533,0.13494873
1601133251738,1424,-0.9494629,-0.42242432,0.14984131
1601133251743,1425,-0.9494629,-0.42242432,0.14984131
1601133251744,1426,-0.94555664,-0.41534424,0.15179443
1601133251744,1427,-0.93603516,-0.40045166,0.14959717
1601133251744,1428,-0.9494629,-0.42242432,0.14984131
1601133251744,1429,-0.93603516,-0.40045166,0.14959717
1601133251744,1430,-0.9484863,-0.38580322,0.15667725
1601133251744,1431,-0.9484863,-0.38580322,0.15667725
1601133251744,1432,-0.9313965,-0.41607666,0.15130615
1601133251744,1433,-0.9560547,-0.4212036,0.15106201
1601133251745,1434,-0.9484863,-0.38580322,0.15667725
1601133251745,1435,-0.9313965,-0.41607666,0.15130615
1601133251748,1436,-0.9797363,-0.43341064,0.12786865
1601133251748,1437,-0.9313965,-0.41607666,0.15130615
1601133251748,1438,-0.9560547,-0.4212036,0.15106201
1601133251748,1439,-0.967041,-0.43048096,0.12908936
1601133251748,1440,-0.95214844,-0.4277954,0.1239624
1601133251748,1441,-0.93603516,-0.40045166,0.14959717
1601133251749,1442,-0.9494629,-0.42242432,0.14984131
1601133251749,1443,-0.94555664,-0.41534424,0.15179443
1601133251749,1444,-0.9484863,-0.38580322,0.15667725
1601133251750,1445,-0.9609375,-0.42071533,0.13494873
1601133251751,1446,-0.94555664,-0.41534424,0.15179443
1601133251757,1447,-0.9560547,-0.4212036,0.15106201
1601133251758,1448,-0.96875,-0.42877197,0.12347412
1601133251758,1449,-0.94555664,-0.41534424,0.15179443
1601133251758,1450,-0.9313965,-0.41607666,0.15130615
1601133251758,1451,-0.9560547,-0.4212036,0.15106201
1601133251758,1452,-0.9609375,-0.42071533,0.13494873
1601133251758,1453,-0.94555664,-0.41534424,0.15179443
1601133251758,1454,-0.95214844,-0.4277954,0.1239624
1601133251759,1455,-0.9609375,-0.42071533,0.13494873
1601133251759,1456,-0.9609375,-0.42071533,0.13494873
1601133251759,1457,-0.95214844,-0.4277954,0.1239624
1601133251772,1458,-0.9609375,-0.42071533,0.13494873
1601133251772,1459,-0.9797363,-0.43341064,0.12786865
1601133251772,1460,-0.95214844,-0.4277954,0.1239624
1601133251773,1461,-0.9797363,-0.43341064,0.12786865
1601133251773,1462,-0.96875,-0.42877197,0.12347412
1601133251775,1463,-0.93603516,-0.40045166,0.14959717
1601133251776,1464,-0.9797363,-0.43341064,0.12786865
1601133251776,1465,-0.9797363,-0.43341064,0.12786865
1601133251777,1466,-0.9970703,-0.42755127,0.13372803
1601133251777,1467,-0.93603516,-0.40045166,0.14959717
1601133251777,1468,-0.93603516,-0.40045166,0.14959717
1601133251777,1469,-0.9797363,-0.43341064,0.12786865
1601133251777,1470,-0.9484863,-0.38580322,0.15667725
1601133251777,1471,-0.9609375,-0.42071533,0.13494873
1601133251777,1472,-0.93603516,-0.40045166,0.14959717
1601133251780,1473,-0.93603516,-0.40045166,0.14959717
1601133251780,1474,-0.9797363,-0.43341064,0.12786865
1601133251780,1475,-0.96875,-0.42877197,0.12347412
1601133251780,1476,-0.9484863,-0.38580322,0.15667725
1601133251780,1477,-0.9484863,-0.38580322,0.15667725
1601133251780,1478,-0.9970703,-0.42755127,0.13372803
1601133251780,1479,-0.96875,-0.42877197,0.12347412
1601133251780,1480,-0.9560547,-0.4212036,0.15106201
1601133251780,1481,-0.96728516,-0.41314697,0.11224365
1601133251781,1482,-0.9970703,-0.42755127,0.13372803
1601133251781,1483,-0.96728516,-0.41314697,0.11224365
1601133251781,1484,-0.9970703,-0.42755127,0.13372803
1601133251781,1485,-0.9484863,-0.38580322,0.15667725
1601133251781,1486,-0.9560547,-0.4212036,0.15106201
1601133251787,1487,-0.9484863,-0.38580322,0.15667725
1601133251788,1488,-0.9370117,-0.4024048,0.10662842
1601133251788,1489,-0.95214844,-0.4277954,0.1239624
1601133251788,1490,-0.93359375,-0.3809204,0.15203857
1601133251788,1491,-0.9370117,-0.4024048,0.10662842
1601133251788,1492,-0.96728516,-0.41314697,0.11224365
1601133251788,1493,-0.96728516,-0.41314697,0.11224365
1601133251788,1494,-1.0178223,-0.38458252,0.15667725
1601133251788,1495,-0.9370117,-0.4024048,0.10662842
1601133251788,1496,-0.95214844,-0.4277954,0.1239624
1601133251789,1497,-0.93359375,-0.3809204,0.15203857
1601133251789,1498,-0.96875,-0.42877197,0.12347412
1601133251789,1499,-1.0178223,-0.38458252,0.15667725
1601133251789,1500,-0.96875,-0.42877197,0.12347412
1601133251789,1501,-0.9560547,-0.4212036,0.15106201
1601133251790,1502,-1.0327148,-0.4006958,0.13201904
1601133251790,1503,-0.9970703,-0.42755127,0.13372803
1601133251790,1504,-0.9370117,-0.4024048,0.10662842
1601133251791,1505,-0.96728516,-0.41314697,0.11224365
1601133251791,1506,-0.93359375,-0.3809204,0.15203857
1601133251791,1507,-0.9560547,-0.4212036,0.15106201
1601133251791,1508,-0.9970703,-0.42755127,0.13372803
1601133251791,1509,-1.0178223,-0.38458252,0.15667725
1601133251791,1510,-1.0327148,-0.4006958,0.13201904
1601133251792,1511,-0.96728516,-0.41314697,0.11224365
1601133251792,1512,-0.9560547,-0.4212036,0.15106201
1601133251792,1513,-0.97631836,-0.41973877,0.13470459
1601133251792,1514,-1.0327148,-0.4006958,0.13201904
1601133251792,1515,-0.9370117,-0.4024048,0.10662842
1601133251793,1516,-0.95214844,-0.4277954,0.1239624
1601133251793,1517,-0.93603516,-0.40045166,0.14959717
1601133251810,1518,-0.97631836,-0.41973877,0.13470459
1601133251810,1519,-0.9370117,-0.4024048,0.10662842
1601133251810,1520,-0.93359375,-0.3809204,0.15203857
1601133251810,1521,-0.95214844,-0.4277954,0.1239624
1601133251810,1522,-0.9584961,-0.37408447,0.16986084
1601133251810,1523,-0.93359375,-0.3809204,0.15203857
1601133251811,1524,-0.96875,-0.42877197,0.12347412
1601133251811,1525,-0.97631836,-0.41973877,0.13470459
1601133251811,1526,-0.95214844,-0.4277954,0.1239624
1601133251811,1527,-0.9987793,-0.31427002,0.18597412
1601133251811,1528,-0.9970703,-0.42755127,0.13372803
1601133251811,1529,-0.96875,-0.42877197,0.12347412
1601133251811,1530,-0.9584961,-0.37408447,0.16986084
1601133251811,1531,-0.96875,-0.42877197,0.12347412
1601133251811,1532,-0.99316406,-0.2793579,0.18060303
1601133251811,1533,-0.9484863,-0.38580322,0.15667725
1601133251811,1534,-0.9584961,-0.37408447,0.16986084
1601133251811,1535,-0.93359375,-0.3809204,0.15203857
1601133251811,1536,-0.96728516,-0.41314697,0.11224365
1601133251811,1537,-1.0178223,-0.38458252,0.15667725
1601133251812,1538,-1.0178223,-0.38458252,0.15667725
1601133251812,1539,-0.9987793,-0.31427002,0.18597412
1601133251812,1540,-0.9970703,-0.42755127,0.13372803
1601133251812,1541,-1.0327148,-0.4006958,0.13201904
1601133251812,1542,-0.9560547,-0.4212036,0.15106201
1601133251812,1543,-0.9987793,-0.31427002,0.18597412
1601133251812,1544,-0.96728516,-0.41314697,0.11224365
1601133251812,1545,-1.0178223,-0.38458252,0.15667725
1601133251812,1546,-0.9370117,-0.4024048,0.10662842
1601133251812,1547,-0.9370117,-0.4024048,0.10662842
1601133251812,1548,-0.97631836,-0.41973877,0.13470459
1601133251812,1549,-1.0327148,-0.4006958,0.13201904
1601133251812,1550,-0.95214844,-0.4277954,0.1239624
1601133251812,1551,-0.9584961,-0.37408447,0.16986084
1601133251813,1552,-1.0327148,-0.4006958,0.13201904
1601133251813,1553,-0.99316406,-0.2793579,0.18060303
1601133251813,1554,-0.99316406,-0.2793579,0.18060303
1601133251813,1555,-0.9970703,-0.42755127,0.13372803
1601133251813,1556,-0.93359375,-0.3809204,0.15203857
1601133251813,1557,-0.96728516,-0.41314697,0.11224365
1601133251813,1558,-0.96875,-0.42877197,0.12347412
1601133251813,1559,-1.0178223,-0.38458252,0.15667725
1601133251813,1560,-0.97631836,-0.41973877,0.13470459
1601133251813,1561,-0.9970703,-0.42755127,0.13372803
1601133251813,1562,-0.93359375,-0.3809204,0.15203857
1601133251813,1563,-0.9584961,-0.37408447,0.16986084
1601133251813,1564,-0.9987793,-0.31427002,0.18597412
1601133251814,1565,-1.0327148,-0.4006958,0.13201904
1601133251814,1566,-0.99316406,-0.2793579,0.18060303
1601133251814,1567,-0.9370117,-0.4024048,0.10662842
1601133251814,1568,-1.0178223,-0.38458252,0.15667725
1601133251814,1569,-0.9987793,-0.31427002,0.18597412
1601133251814,1570,-0.93359375,-0.3809204,0.15203857
1601133251814,1571,-0.97631836,-0.41973877,0.13470459
1601133251815,1572,-0.97631836,-0.41973877,0.13470459
1601133251815,1573,-1.0327148,-0.4006958,0.13201904
1601133251817,1574,-0.99316406,-0.2793579,0.18060303
1601133251817,1575,-0.97631836,-0.41973877,0.13470459
1601133251817,1576,-1.0178223,-0.38458252,0.15667725
1601133251818,1577,-0.96728516,-0.41314697,0.11224365
1601133251818,1578,-1.0327148,-0.4006958,0.13201904
1601133251818,1579,-0.9584961,-0.37408447,0.16986084
1601133251820,1580,-0.9584961,-0.37408447,0.16986084
1601133251820,1581,-0.9370117,-0.4024048,0.10662842
1601133251821,1582,-0.97631836,-0.41973877,0.13470459
1601133251821,1583,-0.9987793,-0.31427002,0.18597412
1601133251821,1584,-0.9987793,-0.31427002,0.18597412
1601133251821,1585,-0.93359375,-0.3809204,0.15203857
1601133251821,1586,-0.9584961,-0.37408447,0.16986084
1601133251821,1587,-0.99316406,-0.2793579,0.18060303
1601133251822,1588,-0.9987793,-0.31427002,0.18597412
1601133251823,1589,-0.99316406,-0.2793579,0.18060303
1601133251826,1590,-1.0178223,-0.38458252,0.15667725
1601133251826,1591,-0.9584961,-0.37408447,0.16986084
1601133251826,1592,-1.0327148,-0.4006958,0.13201904
1601133251826,1593,-0.99316406,-0.2793579,0.18060303
1601133251826,1594,-0.97631836,-0.41973877,0.13470459
1601133251826,1595,-0.9987793,-0.31427002,0.18597412
1601133251827,1596,-0.99316406,-0.2793579,0.18060303
1601133251829,1597,-0.9584961,-0.37408447,0.16986084
1601133251830,1598,-0.9987793,-0.31427002,0.18597412
1601133251830,1599,-0.99316406,-0.2793579,0.18060303
1601133254170,1600,-0.96777344,-0.33843994,0.17181396
1601133254170,1601,-0.96777344,-0.33843994,0.17181396
1601133254174,1602,-0.96777344,-0.33843994,0.17181396
1601133254183,1603,-0.96777344,-0.33843994,0.17181396
1601133254184,1604,-0.93652344,-0.30548096,0.18475342
1601133254184,1605,-0.96777344,-0.33843994,0.17181396
1601133254185,1606,-0.93481445,-0.27130127,0.19500732
1601133254185,1607,-0.96777344,-0.33843994,0.17181396
1601133254185,1608,-0.96777344,-0.33843994,0.17181396
1601133254185,1609,-0.93652344,-0.30548096,0.18475342
1601133254185,1610,-0.93652344,-0.30548096,0.18475342
1601133254185,1611,-0.93652344,-0.30548096,0.18475342
1601133254185,1612,-0.96777344,-0.33843994,0.17181396
1601133254185,1613,-0.93652344,-0.30548096,0.18475342
1601133254186,1614,-0.96777344,-0.33843994,0.17181396
1601133254186,1615,-0.93652344,-0.30548096,0.18475342
1601133254191,1616,-0.96777344,-0.33843994,0.17181396
1601133254191,1617,-0.95092773,-0.27471924,0.21429443
1601133254191,1618,-0.93652344,-0.30548096,0.18475342
1601133254191,1619,-0.93481445,-0.27130127,0.19500732
1601133254191,1620,-0.93652344,-0.30548096,0.18475342
1601133254191,1621,-0.93481445,-0.27130127,0.19500732
1601133254192,1622,-0.93481445,-0.27130127,0.19500732
1601133254192,1623,-0.93481445,-0.27130127,0.19500732
1601133254192,1624,-0.95092773,-0.27471924,0.21429443
1601133254192,1625,-0.95092773,-0.27471924,0.21429443
1601133254202,1626,-0.97021484,-0.27667236,0.25628662
1601133254202,1627,-0.97021484,-0.27667236,0.25628662
1601133254203,1628,-0.93481445,-0.27130127,0.19500732
1601133254203,1629,-0.93652344,-0.30548096,0.18475342
1601133254203,1630,-0.98999023,-0.26715088,0.291687
1601133254203,1631,-0.93481445,-0.27130127,0.19500732
1601133254204,1632,-0.95092773,-0.27471924,0.21429443
1601133254204,1633,-0.95092773,-0.27471924,0.21429443
1601133254204,1634,-0.97021484,-0.27667236,0.25628662
1601133254204,1635,-0.93652344,-0.30548096,0.18475342
1601133254204,1636,-0.97021484,-0.27667236,0.25628662
1601133254204,1637,-0.93481445,-0.27130127,0.19500732
1601133254204,1638,-0.97021484,-0.27667236,0.25628662
1601133254204,1639,-0.95092773,-0.27471924,0.21429443
1601133254204,1640,-0.98999023,-0.26715088,0.291687
1601133254205,1641,-0.95092773,-0.27471924,0.21429443
1601133254205,1642,-0.9807129,-0.23394775,0.27972412
1601133254205,1643,-0.98999023,-0.26715088,0.291687
1601133254205,1644,-0.98999023,-0.26715088,0.291687
1601133254205,1645,-0.9328613,-0.26593018,0.2555542
1601133254205,1646,-0.98999023,-0.26715088,0.291687
1601133254205,1647,-0.93481445,-0.27130127,0.19500732
1601133254205,1648,-0.93481445,-0.27130127,0.19500732
1601133254207,1649,-0.97021484,-0.27667236,0.25628662
1601133254218,1650,-0.97021484,-0.27667236,0.25628662
1601133254218,1651,-0.9807129,-0.23394775,0.27972412
1601133254218,1652,-0.93896484,-0.28009033,0.26483154
1601133254218,1653,-0.9807129,-0.23394775,0.27972412
1601133254218,1654,-0.9807129,-0.23394775,0.27972412
1601133254218,1655,-0.95092773,-0.27471924,0.21429443
1601133254219,1656,-0.9328613,-0.26593018,0.2555542
1601133254219,1657,-0.95092773,-0.27471924,0.21429443
1601133254219,1658,-0.9328613,-0.26593018,0.2555542
1601133254219,1659,-0.93896484,-0.28009033,0.26483154
1601133254219,1660,-0.93896484,-0.28009033,0.26483154
1601133254219,1661,-0.97021484,-0.2781372,0.27947998
1601133254219,1662,-0.9328613,-0.26593018,0.2555542
1601133254219,1663,-0.97021484,-0.2781372,0.27947998
1601133254219,1664,-0.95092773,-0.27471924,0.21429443
1601133254220,1665,-0.98999023,-0.26715088,0.291687
1601133254220,1666,-0.97021484,-0.27667236,0.25628662
1601133254220,1667,-0.97021484,-0.27667236,0.25628662
1601133254220,1668,-0.9807129,-0.23394775,0.27972412
1601133254220,1669,-0.98999023,-0.26715088,0.291687
1601133254220,1670,-0.9328613,-0.26593018,0.2555542
1601133254220,1671,-0.97436523,-0.28033447,0.28729248
1601133254221,1672,-0.97021484,-0.2781372,0.27947998
1601133254221,1673,-0.98999023,-0.26715088,0.291687
1601133254221,1674,-0.97436523,-0.28033447,0.28729248
1601133254222,1675,-0.98999023,-0.26715088,0.291687
1601133254222,1676,-0.9807129,-0.23394775,0.27972412
1601133254223,1677,-0.9328613,-0.26593018,0.2555542
1601133254223,1678,-0.93896484,-0.28009033,0.26483154
1601133254247,1679,-0.97436523,-0.28033447,0.28729248
1601133254248,1680,-0.9807129,-0.23394775,0.27972412
1601133254248,1681,-1.0036621,-0.25274658,0.29901123
1601133254248,1682,-0.97021484,-0.27667236,0.25628662
1601133254248,1683,-0.9807129,-0.23394775,0.27972412
1601133254248,1684,-0.9328613,-0.26593018,0.2555542
1601133254248,1685,-0.9699707,-0.2276001,0.29315186
1601133254248,1686,-0.93896484,-0.28009033,0.26483154
1601133254248,1687,-1.0036621,-0.25274658,0.29901123
1601133254249,1688,-0.93359375,-0.2390747,0.27947998
1601133254249,1689,-0.97021484,-0.2781372,0.27947998
1601133254249,1690,-0.97021484,-0.2781372,0.27947998
1601133254249,1691,-0.93896484,-0.28009033,0.26483154
1601133254249,1692,-0.9807129,-0.23394775,0.27972412
1601133254249,1693,-0.9328613,-0.26593018,0.2555542
1601133254250,1694,-0.98999023,-0.26715088,0.291687
1601133254250,1695,-0.97436523,-0.28033447,0.28729248
1601133254250,1696,-0.97021484,-0.2781372,0.27947998
1601133254250,1697,-0.93896484,-0.28009033,0.26483154
1601133254250,1698,-0.9699707,-0.2276001,0.29315186
1601133254250,1699,-0.97436523,-0.28033447,0.28729248
1601133254251,1700,-1.0036621,-0.25274658,0.29901123
1601133254251,1701,-0.97436523,-0.28033447,0.28729248
1601133254251,1702,-0.93896484,-0.28009033,0.26483154
1601133254251,1703,-0.9699707,-0.2276001,0.29315186
1601133254252,1704,-1.0036621,-0.25274658,0.29901123
1601133254252,1705,-0.97021484,-0.2781372,0.27947998
1601133254252,1706,-0.93359375,-0.2390747,0.27947998
1601133254253,1707,-0.97436523,-0.28033447,0.28729248
1601133254253,1708,-0.97021484,-0.2781372,0.27947998
1601133254253,1709,-0.93359375,-0.2390747,0.27947998
1601133254253,1710,-1.0036621,-0.25274658,0.29901123
1601133254253,1711,-0.9641113,-0.25030518,0.28631592
1601133254254,1712,-1.0036621,-0.25274658,0.29901123
1601133254255,1713,-0.9699707,-0.2276001,0.29315186
1601133254255,1714,-0.9440918,-0.30767822,0.25775146
1601133254255,1715,-0.9699707,-0.2276001,0.29315186
1601133254255,1716,-0.9699707,-0.2276001,0.29315186
1601133254255,1717,-0.9641113,-0.25030518,0.28631592
1601133254256,1718,-1.0036621,-0.25274658,0.29901123
1601133254256,1719,-0.93359375,-0.2390747,0.27947998
1601133254256,1720,-0.97436523,-0.28033447,0.28729248
1601133254256,1721,-0.9807129,-0.23394775,0.27972412
1601133254256,1722,-0.9328613,-0.26593018,0.2555542
1601133254256,1723,-0.9760742,-0.30010986,0.25238037
1601133254260,1724,-0.93359375,-0.2390747,0.27947998
1601133254261,1725,-0.9699707,-0.2276001,0.29315186
1601133254261,1726,-0.9641113,-0.25030518,0.28631592
1601133254261,1727,-0.9440918,-0.30767822,0.25775146
1601133254261,1728,-0.9641113,-0.25030518,0.28631592
1601133254261,1729,-0.9641113,-0.25030518,0.28631592
1601133254261,1730,-0.93359375,-0.2390747,0.27947998
1601133254261,1731,-1.0036621,-0.25274658,0.29901123
1601133254261,1732,-0.9440918,-0.30767822,0.25775146
1601133254262,1733,-0.9699707,-0.2276001,0.29315186
1601133254262,1734,-0.9760742,-0.30010986,0.25238037
1601133254262,1735,-0.9760742,-0.30010986,0.25238037
1601133254262,1736,-0.9328613,-0.26593018,0.2555542
1601133254262,1737,-0.93896484,-0.28009033,0.26483154
1601133254262,1738,-1.0146484,-0.28570557,0.29144287
1601133254262,1739,-0.93359375,-0.2390747,0.27947998
1601133254262,1740,-0.9641113,-0.25030518,0.28631592
1601133254262,1741,-0.93359375,-0.2390747,0.27947998
1601133254265,1742,-1.0146484,-0.28570557,0.29144287
1601133254266,1743,-1.0146484,-0.28570557,0.29144287
1601133254271,1744,-0.9526367,-0.2564087,0.3475952
1601133254271,1745,-0.9526367,-0.2564087,0.3475952
1601133254271,1746,-0.93896484,-0.28009033,0.26483154
1601133254271,1747,-0.9641113,-0.25030518,0.28631592
1601133254271,1748,-0.9440918,-0.30767822,0.25775146
1601133254271,1749,-0.9440918,-0.30767822,0.25775146
1601133254272,1750,-0.97021484,-0.2781372,0.27947998
1601133254272,1751,-0.9641113,-0.25030518,0.28631592
1601133254272,1752,-0.97021484,-0.2781372,0.27947998
1601133254272,1753,-0.9526367,-0.2564087,0.3475952
1601133254272,1754,-0.9038086,-0.15264893,0.33026123
1601133254272,1755,-0.9038086,-0.15264893,0.33026123
1601133254272,1756,-0.9760742,-0.30010986,0.25238037
1601133254273,1757,-0.9760742,-0.30010986,0.25238037
1601133254279,1758,-0.97436523,-0.28033447,0.28729248
1601133254279,1759,-0.9038086,-0.15264893,0.33026123
1601133254280,1760,-0.9440918,-0.30767822,0.25775146
1601133254280,1761,-0.9440918,-0.30767822,0.25775146
1601133254280,1762,-0.90771484,-0.2420044,0.2584839
1601133254280,1763,-0.97436523,-0.28033447,0.28729248
1601133254280,1764,-0.90771484,-0.2420044,0.2584839
1601133254280,1765,-1.0146484,-0.28570557,0.29144287
1601133254280,1766,-0.9440918,-0.30767822,0.25775146
1601133254280,1767,-1.0146484,-0.28570557,0.29144287
1601133254281,1768,-1.0036621,-0.25274658,0.29901123
1601133254282,1769,-0.9760742,-0.30010986,0.25238037
1601133254287,1770,-0.90771484,-0.2420044,0.2584839
1601133254288,1771,-1.0146484,-0.28570557,0.29144287
1601133254288,1772,-0.9526367,-0.2564087,0.3475952
1601133254288,1773,-1.0036621,-0.25274658,0.29901123
1601133254288,1774,-0.9526367,-0.2564087,0.3475952
1601133254288,1775,-0.89868164,-0.26885986,0.24822998
1601133254288,1776,-0.9760742,-0.30010986,0.25238037
1601133254288,1777,-0.9699707,-0.2276001,0.29315186
1601133254288,1778,-0.9038086,-0.15264893,0.33026123
1601133254296,1779,-0.9526367,-0.2564087,0.3475952
1601133254297,1780,-0.89868164,-0.26885986,0.24822998
1601133254297,1781,-0.9760742,-0.30010986,0.25238037
1601133254297,1782,-0.9038086,-0.15264893,0.33026123
1601133254298,1783,-0.9699707,-0.2276001,0.29315186
1601133254298,1784,-0.89868164,-0.26885986,0.24822998
1601133254298,1785,-0.90771484,-0.2420044,0.2584839
1601133254298,1786,-0.93359375,-0.2390747,0.27947998
1601133254298,1787,-0.9494629,-0.27423096,0.27850342
1601133254298,1788,-0.89868164,-0.26885986,0.24822998
1601133254298,1789,-0.93359375,-0.2390747,0.27947998
1601133254299,1790,-0.9038086,-0.15264893,0.33026123
1601133254299,1791,-0.9641113,-0.25030518,0.28631592
1601133254299,1792,-1.0146484,-0.28570557,0.29144287
1601133254299,1793,-0.9440918,-0.30767822,0.25775146
1601133254299,1794,-0.9494629,-0.27423096,0.27850342
1601133254299,1795,-0.90771484,-0.2420044,0.2584839
1601133254303,1796,-0.9494629,-0.27423096,0.27850342
1601133254303,1797,-0.9641113,-0.25030518,0.28631592
1601133254303,1798,-0.9494629,-0.27423096,0.27850342
1601133254304,1799,-0.9851074,-0.2888794,0.28411865
1601133254304,1800,-0.90771484,-0.2420044,0.2584839
1601133254304,1801,-1.0146484,-0.28570557,0.29144287
1601133254304,1802,-0.9760742,-0.30010986,0.25238037
1601133254304,1803,-1.0085449,-0.31378174,0.26727295
1601133254304,1804,-0.9526367,-0.2564087,0.3475952
1601133254304,1805,-0.89868164,-0.26885986,0.24822998
1601133254309,1806,-0.9038086,-0.15264893,0.33026123
1601133254309,1807,-0.9440918,-0.30767822,0.25775146
1601133254309,1808,-0.90771484,-0.2420044,0.2584839
1601133254309,1809,-0.9851074,-0.2888794,0.28411865
1601133254310,1810,-0.89868164,-0.26885986,0.24822998
1601133254310,1811,-1.0146484,-0.28570557,0.29144287
1601133254310,1812,-0.94677734,-0.3201294,0.21624756
1601133254310,1813,-0.9494629,-0.27423096,0.27850342
1601133254310,1814,-0.9851074,-0.2888794,0.28411865
1601133254310,1815,-0.9494629,-0.27423096,0.27850342
1601133254311,1816,-0.9851074,-0.2888794,0.28411865
1601133254311,1817,-0.9851074,-0.2888794,0.28411865
1601133254311,1818,-1.0085449,-0.31378174,0.26727295
1601133254311,1819,-0.9760742,-0.30010986,0.25238037
1601133254312,1820,-0.89868164,-0.26885986,0.24822998
1601133254314,1821,-0.9494629,-0.27423096,0.27850342
1601133254314,1822,-0.9526367,-0.2564087,0.3475952
1601133254314,1823,-0.9851074,-0.2888794,0.28411865
1601133254315,1824,-1.0085449,-0.31378174,0.26727295
1601133254334,1825,-1.0146484,-0.28570557,0.29144287
1601133254334,1826,-1.0085449,-0.31378174,0.26727295
1601133254334,1827,-0.9526367,-0.2564087,0.3475952
1601133254334,1828,-0.94677734,-0.3201294,0.21624756
1601133254335,1829,-0.9851074,-0.2888794,0.28411865
1601133254335,1830,-0.93725586,-0.34210205,0.19403076
1601133254335,1831,-1.0085449,-0.31378174,0.26727295
1601133254335,1832,-0.94677734,-0.3201294,0.21624756
1601133254336,1833,-0.94677734,-0.3201294,0.21624756
1601133254336,1834,-1.0085449,-0.31378174,0.26727295
1601133254336,1835,-0.93725586,-0.34210205,0.19403076
1601133254336,1836,-0.9038086,-0.15264893,0.33026123
1601133254336,1837,-0.9560547,-0.3809204,0.1749878
1601133254336,1838,-0.9038086,-0.15264893,0.33026123
1601133254336,1839,-1.0085449,-0.31378174,0.26727295
1601133254336,1840,-0.90771484,-0.2420044,0.2584839
1601133254337,1841,-0.91015625,-0.6055298,0.13568115
1601133254337,1842,-0.9526367,-0.2564087,0.3475952
1601133254337,1843,-0.95825195,-0.23272705,0.25994873
1601133254338,1844,-0.93725586,-0.34210205,0.19403076
1601133254339,1845,-0.93725586,-0.34210205,0.19403076
1601133254339,1846,-0.94677734,-0.3201294,0.21624756
1601133254339,1847,-0.94677734,-0.3201294,0.21624756
1601133254339,1848,-0.9560547,-0.3809204,0.1749878
1601133254339,1849,-0.90771484,-0.2420044,0.2584839
1601133254339,1850,-0.91015625,-0.6055298,0.13568115
1601133254339,1851,-0.95825195,-0.23272705,0.25994873
1601133254339,1852,-0.99487305,-0.39752197,0.2033081
1601133254339,1853,-0.9038086,-0.15264893,0.33026123
1601133254339,1854,-0.89868164,-0.26885986,0.24822998
1601133254339,1855,-0.90771484,-0.2420044,0.2584839
1601133254339,1856,-0.9560547,-0.3809204,0.1749878
1601133254340,1857,-0.89868164,-0.26885986,0.24822998
1601133254340,1858,-0.94677734,-0.3201294,0.21624756
1601133254340,1859,-0.9494629,-0.27423096,0.27850342
1601133254340,1860,-0.89868164,-0.26885986,0.24822998
1601133254340,1861,-0.93725586,-0.34210205,0.19403076
1601133254340,1862,-1.0661621,-0.3880005,0.1930542
1601133254340,1863,-0.9560547,-0.3809204,0.1749878
1601133254340,1864,-0.99487305,-0.39752197,0.2033081
1601133254340,1865,-0.93725586,-0.34210205,0.19403076
1601133254340,1866,-0.91015625,-0.6055298,0.13568115
1601133254340,1867,-0.93725586,-0.34210205,0.19403076
1601133254340,1868,-0.91015625,-0.6055298,0.13568115
1601133254340,1869,-0.9851074,-0.2888794,0.28411865
1601133254340,1870,-0.95825195,-0.23272705,0.25994873
1601133254341,1871,-0.95825195,-0.23272705,0.25994873
1601133254341,1872,-0.9494629,-0.27423096,0.27850342
1601133254341,1873,-0.9560547,-0.3809204,0.1749878
1601133254342,1874,-1.0661621,-0.3880005,0.1930542
1601133254343,1875,-0.9560547,-0.3809204,0.1749878
1601133254343,1876,-0.9494629,-0.27423096,0.27850342
1601133254343,1877,-0.9851074,-0.2888794,0.28411865
1601133254345,1878,-0.9560547,-0.3809204,0.1749878
1601133254345,1879,-0.99487305,-0.39752197,0.2033081
1601133254345,1880,-0.9851074,-0.2888794,0.28411865
1601133254346,1881,-0.91015625,-0.6055298,0.13568115
1601133254346,1882,-1.0085449,-0.31378174,0.26727295
1601133254346,1883,-0.91015625,-0.6055298,0.13568115
1601133254346,1884,-0.94677734,-0.3201294,0.21624756
1601133254346,1885,-1.0085449,-0.31378174,0.26727295
1601133254346,1886,-0.93725586,-0.34210205,0.19403076
1601133254346,1887,-1.0661621,-0.3880005,0.1930542
1601133254346,1888,-0.94677734,-0.3201294,0.21624756
1601133254346,1889,-0.99487305,-0.39752197,0.2033081
1601133254348,1890,-1.0085449,-0.31378174,0.26727295
1601133254348,1891,-1.0661621,-0.3880005,0.1930542
1601133254348,1892,-0.95825195,-0.23272705,0.25994873
1601133254348,1893,-0.91015625,-0.6055298,0.13568115
1601133254348,1894,-0.9560547,-0.3809204,0.1749878
1601133254348,1895,-0.93725586,-0.34210205,0.19403076
1601133254348,1896,-0.95825195,-0.23272705,0.25994873
1601133254350,1897,-0.9560547,-0.3809204,0.1749878
1601133254350,1898,-0.99487305,-0.39752197,0.2033081
1601133254350,1899,-0.91015625,-0.6055298,0.13568115
1601133254353,1900,-1.0661621,-0.3880005,0.1930542
1601133254353,1901,-0.99487305,-0.39752197,0.2033081
1601133254353,1902,-0.95825195,-0.23272705,0.25994873
1601133254353,1903,-0.91015625,-0.6055298,0.13568115
1601133254353,1904,-0.95825195,-0.23272705,0.25994873
1601133254357,1905,-0.94677734,-0.3201294,0.21624756
1601133254358,1906,-1.0661621,-0.3880005,0.1930542
1601133254358,1907,-0.93725586,-0.34210205,0.19403076
1601133254358,1908,-0.99487305,-0.39752197,0.2033081
1601133254358,1909,-0.95825195,-0.23272705,0.25994873
1601133254361,1910,-0.99487305,-0.39752197,0.2033081
1601133254361,1911,-0.9560547,-0.3809204,0.1749878
1601133254362,1912,-1.0661621,-0.3880005,0.1930542
1601133254362,1913,-0.99487305,-0.39752197,0.2033081
1601133254362,1914,-1.0661621,-0.3880005,0.1930542
1601133254363,1915,-0.91015625,-0.6055298,0.13568115
1601133254364,1916,-1.0661621,-0.3880005,0.1930542
1601133254364,1917,-0.95825195,-0.23272705,0.25994873
1601133254365,1918,-0.99487305,-0.39752197,0.2033081
1601133254365,1919,-1.0661621,-0.3880005,0.1930542
1601133256679,1920,-1.0197754,-0.37335205,0.16229248
1601133256679,1921,-1.0197754,-0.37335205,0.16229248
1601133256679,1922,-1.0197754,-0.37335205,0.16229248
1601133256679,1923,-1.0197754,-0.37335205,0.16229248
1601133256680,1924,-0.91015625,-0.38287354,0.17034912
1601133256680,1925,-1.0197754,-0.37335205,0.16229248
1601133256687,1926,-1.0197754,-0.37335205,0.16229248
1601133256687,1927,-1.0197754,-0.37335205,0.16229248
1601133256688,1928,-1.0197754,-0.37335205,0.16229248
1601133256688,1929,-0.91015625,-0.38287354,0.17034912
1601133256688,1930,-0.91015625,-0.38287354,0.17034912
1601133256688,1931,-0.91015625,-0.38287354,0.17034912
1601133256688,1932,-1.0197754,-0.37335205,0.16229248
1601133256688,1933,-0.92456055,-0.31280518,0.15863037
1601133256688,1934,-0.91015625,-0.38287354,0.17034912
1601133256688,1935,-0.91015625,-0.38287354,0.17034912
1601133256706,1936,-0.91015625,-0.38287354,0.17034912
1601133256707,1937,-0.91015625,-0.38287354,0.17034912
1601133256707,1938,-1.0197754,-0.37335205,0.16229248
1601133256707,1939,-0.92456055,-0.31280518,0.15863037
1601133256707,1940,-0.92456055,-0.31280518,0.15863037
1601133256707,1941,-0.92456055,-0.31280518,0.15863037
1601133256707,1942,-0.91015625,-0.38287354,0.17034912
1601133256707,1943,-0.92456055,-0.31280518,0.15863037
1601133256708,1944,-1.0319824,-0.28399658,0.1564331
1601133256708,1945,-0.92456055,-0.31280518,0.15863037
1601133256708,1946,-0.9543457,-0.34796143,0.16253662
1601133256708,1947,-0.92456055,-0.31280518,0.15863037
1601133256708,1948,-0.91015625,-0.38287354,0.17034912
1601133256708,1949,-1.0319824,-0.28399658,0.1564331
1601133256708,1950,-0.92456055,-0.31280518,0.15863037
1601133256708,1951,-1.0319824,-0.28399658,0.1564331
1601133256708,1952,-1.0319824,-0.28399658,0.1564331
1601133256708,1953,-0.92456055,-0.31280518,0.15863037
1601133256708,1954,-0.9543457,-0.34796143,0.16253662
1601133256708,1955,-1.0319824,-0.28399658,0.1564331
1601133256708,1956,-1.0319824,-0.28399658,0.1564331
1601133256708,1957,-0.9543457,-0.34796143,0.16253662
1601133256709,1958,-0.92456055,-0.31280518,0.15863037
1601133256709,1959,-1.0319824,-0.28399658,0.1564331
1601133256709,1960,-1.0319824,-0.28399658,0.1564331
1601133256709,1961,-1.0319824,-0.28399658,0.1564331
1601133256709,1962,-0.9543457,-0.34796143,0.16253662
1601133256709,1963,-0.95458984,-0.34161377,0.19085693
1601133256711,1964,-0.9543457,-0.34796143,0.16253662
1601133256718,1965,-0.9543457,-0.34796143,0.16253662
1601133256718,1966,-0.95458984,-0.34161377,0.19085693
1601133256718,1967,-0.95458984,-0.34161377,0.19085693
1601133256718,1968,-1.0319824,-0.28399658,0.1564331
1601133256718,1969,-0.9543457,-0.34796143,0.16253662
1601133256718,1970,-1.017334,-0.2925415,0.20281982
1601133256718,1971,-0.95458984,-0.34161377,0.19085693
1601133256718,1972,-0.95751953,-0.35162354,0.1906128
1601133256719,1973,-1.017334,-0.2925415,0.20281982
1601133256719,1974,-0.9543457,-0.34796143,0.16253662
1601133256719,1975,-0.9543457,-0.34796143,0.16253662
1601133256719,1976,-1.017334,-0.2925415,0.20281982
1601133256726,1977,-0.95751953,-0.35162354,0.1906128
1601133256726,1978,-0.9543457,-0.34796143,0.16253662
1601133256726,1979,-0.95458984,-0.34161377,0.19085693
1601133256726,1980,-0.9692383,-0.37579346,0.20159912
1601133256726,1981,-0.9692383,-0.37579346,0.20159912
1601133256726,1982,-0.95458984,-0.34161377,0.19085693
1601133256726,1983,-0.95458984,-0.34161377,0.19085693
1601133256726,1984,-0.95458984,-0.34161377,0.19085693
1601133256726,1985,-0.95458984,-0.34161377,0.19085693
1601133256726,1986,-1.017334,-0.2925415,0.20281982
1601133256726,1987,-0.95751953,-0.35162354,0.1906128
1601133256726,1988,-0.95751953,-0.35162354,0.1906128
1601133256727,1989,-0.9692383,-0.37579346,0.20159912
1601133256745,1990,-0.98217773,-0.3587036,0.20550537
1601133256745,1991,-1.017334,-0.2925415,0.20281982
1601133256745,1992,-1.017334,-0.2925415,0.20281982
1601133256745,1993,-1.017334,-0.2925415,0.20281982
1601133256745,1994,-0.9970703,-0.36358643,0.19500732
1601133256745,1995,-1.017334,-0.2925415,0.20281982
1601133256745,1996,-1.017334,-0.2925415,0.20281982
1601133256745,1997,-0.95458984,-0.34161377,0.19085693
1601133256745,1998,-0.95751953,-0.35162354,0.1906128
1601133256746,1999,-0.98217773,-0.3587036,0.20550537
1601133256746,2000,-0.98217773,-0.3587036,0.20550537
1601133256746,2001,-0.95751953,-0.35162354,0.1906128
1601133256746,2002,-0.9692383,-0.37579346,0.20159912
1601133256746,2003,-0.9970703,-0.36358643,0.19500732
1601133256746,2004,-0.95751953,-0.35162354,0.1906128
1601133256746,2005,-1.0070801,-0.37335205,0.17791748
1601133256746,2006,-0.9692383,-0.37579346,0.20159912
1601133256746,2007,-1.0070801,-0.37335205,0.17791748
1601133256746,2008,-0.98217773,-0.3587036,0.20550537
1601133256746,2009,-1.017334,-0.2925415,0.20281982
1601133256746,2010,-0.9729004,-0.34454346,0.16131592
1601133256746,2011,-0.98217773,-0.3587036,0.20550537
1601133256746,2012,-0.9692383,-0.37579346,0.20159912
1601133256746,2013,-0.95751953,-0.35162354,0.1906128
1601133256746,2014,-0.95825195,-0.33843994,0.14910889
1601133256746,2015,-0.95751953,-0.35162354,0.1906128
1601133256747,2016,-0.9970703,-0.36358643,0.19500732
1601133256747,2017,-0.9970703,-0.36358643,0.19500732
1601133256747,2018,-0.9729004,-0.34454346,0.16131592
1601133256747,2019,-1.0070801,-0.37335205,0.17791748
1601133256747,2020,-0.95751953,-0.35162354,0.1906128
1601133256747,2021,-0.9729004,-0.34454346,0.16131592
1601133256747,2022,-0.98217773,-0.3587036,0.20550537
1601133256747,2023,-0.95825195,-0.33843994,0.14910889
1601133256747,2024,-0.9692383,-0.37579346,0.20159912
1601133256747,2025,-0.9675293,-0.33966064,0.14813232
1601133256747,2026,-0.9970703,-0.36358643,0.19500732
1601133256747,2027,-0.98217773,-0.3587036,0.20550537
1601133256747,2028,-0.9692383,-0.37579346,0.20159912
1601133256747,2029,-0.9692383,-0.37579346,0.20159912
1601133256747,2030,-1.0070801,-0.37335205,0.17791748
1601133256748,2031,-0.9692383,-0.37579346,0.20159912
1601133256748,2032,-0.98217773,-0.3587036,0.20550537
1601133256748,2033,-0.98217773,-0.3587036,0.20550537
1601133256748,2034,-0.95825195,-0.33843994,0.14910889
1601133256748,2035,-0.9675293,-0.33966064,0.14813232
1601133256753,2036,-0.9970703,-0.36358643,0.19500732
1601133256753,2037,-1.0070801,-0.37335205,0.17791748
1601133256753,2038,-0.9729004,-0.34454346,0.16131592
1601133256754,2039,-1.0070801,-0.37335205,0.17791748
1601133256754,2040,-0.9970703,-0.36358643,0.19500732
1601133256754,2041,-0.9729004,-0.34454346,0.16131592
1601133256754,2042,-0.98217773,-0.3587036,0.20550537
1601133256754,2043,-0.9675293,-0.33966064,0.14813232
1601133256754,2044,-0.9699707,-0.34283447,0.15032959
1601133256754,2045,-0.9970703,-0.36358643,0.19500732
1601133256754,2046,-0.9699707,-0.34283447,0.15032959
1601133256754,2047,-1.0070801,-0.37335205,0.17791748
1601133256754,2048,-0.9729004,-0.34454346,0.16131592
1601133256754,2049,-0.9970703,-0.36358643,0.19500732
1601133256754,2050,-0.9729004,-0.34454346,0.16131592
1601133256754,2051,-0.95825195,-0.33843994,0.14910889
1601133256755,2052,-1.0070801,-0.37335205,0.17791748
1601133256755,2053,-0.9675293,-0.33966064,0.14813232
1601133256759,2054,-0.967041,-0.34625244,0.14715576
1601133256760,2055,-0.95825195,-0.33843994,0.14910889
1601133256760,2056,-0.967041,-0.34625244,0.14715576
1601133256760,2057,-0.94799805,-0.34991455,0.15008545
1601133256760,2058,-0.9555664,-0.35723877,0.16595459
1601133256760,2059,-0.95825195,-0.33843994,0.14910889
1601133256760,2060,-1.0070801,-0.37335205,0.17791748
1601133256760,2061,-0.9970703,-0.36358643,0.19500732
1601133256760,2062,-0.9699707,-0.34283447,0.15032959
1601133256760,2063,-0.9729004,-0.34454346,0.16131592
1601133256760,2064,-0.9699707,-0.34283447,0.15032959
1601133256763,2065,-0.94799805,-0.34991455,0.15008545
1601133256764,2066,-0.967041,-0.34625244,0.14715576
1601133256764,2067,-0.9765625,-0.3591919,0.1774292
1601133256764,2068,-0.9675293,-0.33966064,0.14813232
1601133256764,2069,-0.9729004,-0.34454346,0.16131592
1601133256764,2070,-1.0070801,-0.37335205,0.17791748
1601133256764,2071,-0.967041,-0.34625244,0.14715576
1601133256764,2072,-0.94799805,-0.34991455,0.15008545
1601133256765,2073,-0.9675293,-0.33966064,0.14813232
1601133256765,2074,-0.95825195,-0.33843994,0.14910889
1601133256767,2075,-0.9699707,-0.34283447,0.15032959
1601133256767,2076,-0.9897461,-0.36676025,0.1786499
1601133256767,2077,-0.95825195,-0.33843994,0.14910889
1601133256767,2078,-0.9675293,-0.33966064,0.14813232
1601133256774,2079,-0.9699707,-0.34283447,0.15032959
1601133256774,2080,-0.9555664,-0.35723877,0.16595459
1601133256774,2081,-0.967041,-0.34625244,0.14715576
1601133256774,2082,-0.9675293,-0.33966064,0.14813232
1601133256775,2083,-0.967041,-0.34625244,0.14715576
1601133256775,2084,-0.95825195,-0.33843994,0.14910889
1601133256775,2085,-0.9794922,-0.3665161,0.17108154
1601133256775,2086,-0.94799805,-0.34991455,0.15008545
1601133256775,2087,-0.9729004,-0.34454346,0.16131592
1601133256775,2088,-0.94799805,-0.34991455,0.15008545
1601133256775,2089,-0.9675293,-0.33966064,0.14813232
1601133256776,2090,-0.9555664,-0.35723877,0.16595459
1601133256776,2091,-0.9699707,-0.34283447,0.15032959
1601133256777,2092,-0.9765625,-0.3591919,0.1774292
1601133256777,2093,-0.9555664,-0.35723877,0.16595459
1601133256777,2094,-0.9699707,-0.34283447,0.15032959
1601133256777,2095,-0.9555664,-0.35723877,0.16595459
1601133256777,2096,-0.9760742,-0.3604126,0.17230225
1601133256777,2097,-0.95825195,-0.33843994,0.14910889
1601133256784,2098,-0.94799805,-0.34991455,0.15008545
1601133256784,2099,-0.9699707,-0.34283447,0.15032959
1601133256784,2100,-0.9765625,-0.3591919,0.1774292
1601133256784,2101,-0.9897461,-0.36676025,0.1786499
1601133256784,2102,-0.9765625,-0.3591919,0.1774292
1601133256784,2103,-0.967041,-0.34625244,0.14715576
1601133256785,2104,-0.967041,-0.34625244,0.14715576
1601133256785,2105,-0.9675293,-0.33966064,0.14813232
1601133256785,2106,-0.94799805,-0.34991455,0.15008545
1601133256785,2107,-0.9555664,-0.35723877,0.16595459
1601133256786,2108,-0.9555664,-0.35723877,0.16595459
1601133256786,2109,-0.9765625,-0.3591919,0.1774292
1601133256786,2110,-0.9897461,-0.36676025,0.1786499
1601133256786,2111,-0.94799805,-0.34991455,0.15008545
1601133256786,2112,-0.9897461,-0.36676025,0.1786499
1601133256789,2113,-0.9794922,-0.3665161,0.17108154
1601133256789,2114,-0.9699707,-0.34283447,0.15032959
1601133256789,2115,-0.967041,-0.34625244,0.14715576
1601133256789,2116,-0.9794922,-0.3665161,0.17108154
1601133256790,2117,-0.9897461,-0.36676025,0.1786499
1601133256790,2118,-0.9760742,-0.3604126,0.17230225
1601133256790,2119,-0.9555664,-0.35723877,0.16595459
1601133256790,2120,-0.9794922,-0.3665161,0.17108154
1601133256790,2121,-0.9765625,-0.3591919,0.1774292
1601133256791,2122,-0.9760742,-0.3604126,0.17230225
1601133256791,2123,-0.967041,-0.34625244,0.14715576
1601133256791,2124,-0.94799805,-0.34991455,0.15008545
1601133256791,2125,-0.94799805,-0.34991455,0.15008545
1601133256791,2126,-0.9760742,-0.3604126,0.17230225
1601133256791,2127,-0.9555664,-0.35723877,0.16595459
1601133256797,2128,-0.9765625,-0.3591919,0.1774292
1601133256797,2129,-0.9765625,-0.3591919,0.1774292
1601133256797,2130,-0.9897461,-0.36676025,0.1786499
1601133256797,2131,-0.9897461,-0.36676025,0.1786499
1601133256797,2132,-0.982666,-0.35186768,0.17034912
1601133256797,2133,-0.982666,-0.35186768,0.17034912
1601133256797,2134,-0.9555664,-0.35723877,0.16595459
1601133256797,2135,-0.9794922,-0.3665161,0.17108154
1601133256797,2136,-0.9770508,-0.35064697,0.16229248
1601133256797,2137,-0.9765625,-0.3591919,0.1774292
1601133256798,2138,-0.9760742,-0.3604126,0.17230225
1601133256798,2139,-0.982666,-0.35186768,0.17034912
1601133256798,2140,-0.9897461,-0.36676025,0.1786499
1601133256798,2141,-0.9794922,-0.3665161,0.17108154
1601133256798,2142,-0.9794922,-0.3665161,0.17108154
1601133256798,2143,-0.9765625,-0.3591919,0.1774292
1601133256798,2144,-0.982666,-0.35186768,0.17034912
1601133256798,2145,-0.9770508,-0.35064697,0.16229248
1601133256800,2146,-0.982666,-0.35186768,0.17034912
1601133256800,2147,-0.9770508,-0.35064697,0.16229248
1601133256801,2148,-0.9770508,-0.34454346,0.16326904
1601133256801,2149,-0.9897461,-0.36676025,0.1786499
1601133256801,2150,-0.9794922,-0.3665161,0.17108154
1601133256801,2151,-0.9760742,-0.3604126,0.17230225
1601133256801,2152,-0.9897461,-0.36676025,0.1786499
1601133256801,2153,-0.9770508,-0.35064697,0.16229248
1601133256801,2154,-0.9760742,-0.3604126,0.17230225
1601133256801,2155,-0.9770508,-0.34454346,0.16326904
1601133256801,2156,-0.9770508,-0.34454346,0.16326904
1601133256801,2157,-0.9770508,-0.34454346,0.16326904
1601133256802,2158,-0.96850586,-0.34210205,0.15765381
1601133256811,2159,-0.982666,-0.35186768,0.17034912
1601133256811,2160,-0.97436523,-0.3460083,0.15887451
1601133256811,2161,-0.982666,-0.35186768,0.17034912
1601133256811,2162,-0.9770508,-0.35064697,0.16229248
1601133256811,2163,-0.96850586,-0.34210205,0.15765381
1601133256811,2164,-0.96850586,-0.34210205,0.15765381
1601133256811,2165,-0.9794922,-0.3665161,0.17108154
1601133256812,2166,-0.9770508,-0.34454346,0.16326904
1601133256812,2167,-0.97436523,-0.3460083,0.15887451
1601133256812,2168,-0.9770508,-0.35064697,0.16229248
1601133256812,2169,-0.96606445,-0.34796143,0.15667725
1601133256812,2170,-0.9760742,-0.3604126,0.17230225
1601133256812,2171,-0.9760742,-0.3604126,0.17230225
1601133256812,2172,-0.982666,-0.35186768,0.17034912
1601133256812,2173,-0.9794922,-0.3665161,0.17108154
1601133256812,2174,-0.9555664,-0.35430908,0.14471436
1601133256812,2175,-0.96606445,-0.34796143,0.15667725
1601133256812,2176,-0.9770508,-0.35064697,0.16229248
1601133256812,2177,-0.9770508,-0.34454346,0.16326904
1601133256812,2178,-0.96850586,-0.34210205,0.15765381
1601133256812,2179,-0.9770508,-0.35064697,0.16229248
1601133256816,2180,-0.97436523,-0.3460083,0.15887451
1601133256816,2181,-0.9770508,-0.34454346,0.16326904
1601133256816,2182,-0.9602051,-0.3591919,0.15032959
1601133256816,2183,-0.96606445,-0.34796143,0.15667725
1601133256816,2184,-0.9555664,-0.35430908,0.14471436
1601133256816,2185,-0.9760742,-0.3604126,0.17230225
1601133256817,2186,-0.9602051,-0.3591919,0.15032959
1601133256817,2187,-0.9770508,-0.34454346,0.16326904
1601133256817,2188,-1.0107422,-0.34942627,0.15814209
1601133256817,2189,-0.982666,-0.35186768,0.17034912
1601133256821,2190,-0.96850586,-0.34210205,0.15765381
1601133256821,2191,-0.9555664,-0.35430908,0.14471436
1601133256821,2192,-1.0107422,-0.34942627,0.15814209
1601133256821,2193,-0.97436523,-0.3460083,0.15887451
1601133256821,2194,-0.96850586,-0.34210205,0.15765381
1601133256821,2195,-0.96606445,-0.34796143,0.15667725
1601133256821,2196,-0.96850586,-0.34210205,0.15765381
1601133256821,2197,-0.9602051,-0.3591919,0.15032959
1601133256821,2198,-0.96850586,-0.34210205,0.15765381
1601133256822,2199,-0.9770508,-0.35064697,0.16229248
1601133256822,2200,-0.97436523,-0.3460083,0.15887451
1601133256824,2201,-0.982666,-0.35186768,0.17034912
1601133256824,2202,-0.97436523,-0.3460083,0.15887451
1601133256828,2203,-0.97436523,-0.3460083,0.15887451
1601133256828,2204,-0.97436523,-0.3460083,0.15887451
1601133256831,2205,-0.96606445,-0.34796143,0.15667725
1601133256831,2206,-0.9770508,-0.35064697,0.16229248
1601133256831,2207,-0.9555664,-0.35430908,0.14471436
1601133256831,2208,-0.96606445,-0.34796143,0.15667725
1601133256832,2209,-1.0107422,-0.34942627,0.15814209
1601133256832,2210,-0.9770508,-0.34454346,0.16326904
1601133256832,2211,-0.9555664,-0.35430908,0.14471436
1601133256832,2212,-0.96606445,-0.34796143,0.15667725
1601133256832,2213,-0.9555664,-0.35430908,0.14471436
1601133256833,2214,-0.96606445,-0.34796143,0.15667725
1601133256835,2215,-0.9602051,-0.3591919,0.15032959
1601133256840,2216,-1.0107422,-0.34942627,0.15814209
1601133256840,2217,-0.9602051,-0.3591919,0.15032959
1601133256840,2218,-0.9770508,-0.34454346,0.16326904
1601133256840,2219,-0.9555664,-0.35430908,0.14471436
1601133256840,2220,-0.9602051,-0.3591919,0.15032959
1601133256840,2221,-0.96850586,-0.34210205,0.15765381
1601133256840,2222,-0.9555664,-0.35430908,0.14471436
1601133256840,2223,-0.96850586,-0.34210205,0.15765381
1601133256840,2224,-1.0107422,-0.34942627,0.15814209
1601133256840,2225,-1.0107422,-0.34942627,0.15814209
1601133256842,2226,-0.97436523,-0.3460083,0.15887451
1601133256844,2227,-0.9602051,-0.3591919,0.15032959
1601133256844,2228,-0.97436523,-0.3460083,0.15887451
1601133256845,2229,-1.0107422,-0.34942627,0.15814209
1601133256845,2230,-0.96606445,-0.34796143,0.15667725
1601133256845,2231,-0.9602051,-0.3591919,0.15032959
1601133256846,2232,-0.9555664,-0.35430908,0.14471436
1601133256847,2233,-0.96606445,-0.34796143,0.15667725
1601133256847,2234,-1.0107422,-0.34942627,0.15814209
1601133256849,2235,-0.9602051,-0.3591919,0.15032959
1601133256849,2236,-0.9555664,-0.35430908,0.14471436
1601133256850,2237,-0.9602051,-0.3591919,0.15032959
1601133256852,2238,-1.0107422,-0.34942627,0.15814209
1601133256854,2239,-1.0107422,-0.34942627,0.15814209
1601133259243,2240,-0.9733887,-0.36114502,0.14959717
1601133259244,2241,-0.9733887,-0.36114502,0.14959717
1601133259244,2242,-0.9733887,-0.36114502,0.14959717
1601133259245,2243,-0.9580078,-0.35186768,0.15057373
1601133259249,2244,-0.9580078,-0.35186768,0.15057373
1601133259258,2245,-0.9733887,-0.36114502,0.14959717
1601133259258,2246,-0.9733887,-0.36114502,0.14959717
1601133259259,2247,-0.9733887,-0.36114502,0.14959717
1601133259259,2248,-0.96362305,-0.3394165,0.17010498
1601133259259,2249,-0.9580078,-0.35186768,0.15057373
1601133259259,2250,-0.9580078,-0.35186768,0.15057373
1601133259260,2251,-0.96362305,-0.3394165,0.17010498
1601133259260,2252,-0.9580078,-0.35186768,0.15057373
1601133259260,2253,-0.9733887,-0.36114502,0.14959717
1601133259260,2254,-0.9733887,-0.36114502,0.14959717
1601133259262,2255,-0.96362305,-0.3394165,0.17010498
1601133259262,2256,-0.9733887,-0.36114502,0.14959717
1601133259263,2257,-0.9580078,-0.35186768,0.15057373
1601133259263,2258,-0.9733887,-0.36114502,0.14959717
1601133259263,2259,-0.99243164,-0.35235596,0.1605835
1601133259263,2260,-0.96362305,-0.3394165,0.17010498
1601133259263,2261,-0.96362305,-0.3394165,0.17010498
1601133259263,2262,-0.99243164,-0.35235596,0.1605835
1601133259267,2263,-0.9580078,-0.35186768,0.15057373
1601133259267,2264,-0.99243164,-0.35235596,0.1605835
1601133259267,2265,-0.9580078,-0.35186768,0.15057373
1601133259267,2266,-0.9580078,-0.35186768,0.15057373
1601133259267,2267,-0.96362305,-0.3394165,0.17010498
1601133259267,2268,-0.9580078,-0.35186768,0.15057373
1601133259267,2269,-0.98876953,-0.3718872,0.14886475
1601133259267,2270,-0.99243164,-0.35235596,0.1605835
1601133259267,2271,-0.99072266,-0.35186768,0.14178467
1601133259267,2272,-0.98876953,-0.3718872,0.14886475
1601133259273,2273,-0.98876953,-0.3718872,0.14886475
1601133259273,2274,-0.96362305,-0.3394165,0.17010498
1601133259273,2275,-0.99072266,-0.35186768,0.14178467
1601133259274,2276,-0.96362305,-0.3394165,0.17010498
1601133259274,2277,-0.99243164,-0.35235596,0.1605835
1601133259274,2278,-0.99243164,-0.35235596,0.1605835
1601133259275,2279,-0.96362305,-0.3394165,0.17010498
1601133259275,2280,-0.98876953,-0.3718872,0.14886475
1601133259275,2281,-0.98876953,-0.3718872,0.14886475
1601133259275,2282,-0.99072266,-0.35186768,0.14178467
1601133259286,2283,-0.9970703,-0.35943604,0.14422607
1601133259286,2284,-0.99243164,-0.35235596,0.1605835
