# Sensor position: Wrist
# Sensor side: Left
# Activity type: Running
# Activity code: 11
# Subject id: s1735229
timestamp,seq,accel_x,accel_y,accel_z
1601134229752,0,-0.1694336,0.26068115,0.8903198
1601134229753,1,-0.1694336,0.26068115,0.8903198
1601134229753,2,-0.1694336,0.26068115,0.8903198
1601134229753,3,-0.1694336,0.26068115,0.8903198
1601134229753,4,-0.1694336,0.26068115,0.8903198
1601134229753,5,-0.1694336,0.26068115,0.8903198
1601134229753,6,-0.1694336,0.26068115,0.8903198
1601134229754,7,-0.26171875,0.19671631,0.81365967
1601134229754,8,-0.26171875,0.19671631,0.81365967
1601134229754,9,-0.1694336,0.26068115,0.8903198
1601134229754,10,-0.26171875,0.19671631,0.81365967
1601134229782,11,-0.1694336,0.26068115,0.8903198
1601134229782,12,-0.26171875,0.19671631,0.81365967
1601134229782,13,-0.26171875,0.19671631,0.81365967
1601134229782,14,-0.25878906,0.25164795,0.6478882
1601134229782,15,-0.26171875,0.19671631,0.81365967
1601134229782,16,-0.25878906,0.25164795,0.6478882
1601134229782,17,-0.1694336,0.26068115,0.8903198
1601134229782,18,-0.26171875,0.19671631,0.81365967
1601134229782,19,-0.10229492,0.55267334,0.69989014
1601134229782,20,-0.26171875,0.19671631,0.81365967
1601134229782,21,-0.26171875,0.19671631,0.81365967
1601134229782,22,-0.10229492,0.55267334,0.69989014
1601134229783,23,0.032958984,0.72650146,0.7472534
1601134229783,24,0.03540039,0.79364014,0.71258545
1601134229783,25,-0.25878906,0.25164795,0.6478882
1601134229783,26,-0.25878906,0.25164795,0.6478882
1601134229783,27,-0.25878906,0.25164795,0.6478882
1601134229783,28,-0.25878906,0.25164795,0.6478882
1601134229783,29,-0.25878906,0.25164795,0.6478882
1601134229783,30,0.05126953,0.63397217,0.62371826
1601134229783,31,-0.25878906,0.25164795,0.6478882
1601134229783,32,-0.26171875,0.19671631,0.81365967
1601134229783,33,-0.25878906,0.25164795,0.6478882
1601134229783,34,-0.029541016,0.84539795,0.45477295
1601134229783,35,-0.10229492,0.55267334,0.69989014
1601134229783,36,-0.10229492,0.55267334,0.69989014
1601134229784,37,-0.10229492,0.55267334,0.69989014
1601134229784,38,-0.25878906,0.25164795,0.6478882
1601134229784,39,0.032958984,0.72650146,0.7472534
1601134229784,40,-0.10229492,0.55267334,0.69989014
1601134229784,41,0.03540039,0.79364014,0.71258545
1601134229785,42,-0.052001953,0.9603882,0.36029053
1601134229785,43,-0.10229492,0.55267334,0.69989014
1601134229785,44,0.05126953,0.63397217,0.62371826
1601134229785,45,-0.10229492,0.55267334,0.69989014
1601134229785,46,0.032958984,0.72650146,0.7472534
1601134229786,47,0.032958984,0.72650146,0.7472534
1601134229786,48,-0.10229492,0.55267334,0.69989014
1601134229786,49,0.032958984,0.72650146,0.7472534
1601134229786,50,0.032958984,0.72650146,0.7472534
1601134229787,51,0.03540039,0.79364014,0.71258545
1601134229793,52,0.03540039,0.79364014,0.71258545
1601134229793,53,-0.10229492,0.55267334,0.69989014
1601134229794,54,0.03540039,0.79364014,0.71258545
1601134229794,55,0.032958984,0.72650146,0.7472534
1601134229794,56,-0.029541016,0.84539795,0.45477295
1601134229794,57,0.03540039,0.79364014,0.71258545
1601134229794,58,-0.02758789,0.9906616,0.30706787
1601134229794,59,0.032958984,0.72650146,0.7472534
1601134229794,60,0.05126953,0.63397217,0.62371826
1601134229794,61,0.05126953,0.63397217,0.62371826
1601134229795,62,0.032958984,0.72650146,0.7472534
1601134229798,63,0.05126953,0.63397217,0.62371826
1601134229798,64,0.03540039,0.79364014,0.71258545
1601134229798,65,-0.052001953,0.9603882,0.36029053
1601134229798,66,0.05126953,0.63397217,0.62371826
1601134229798,67,-0.02758789,0.9906616,0.30706787
1601134229798,68,-0.076660156,0.99383545,0.36590576
1601134229798,69,-0.076660156,0.99383545,0.36590576
1601134229798,70,-0.029541016,0.84539795,0.45477295
1601134229798,71,-0.029541016,0.84539795,0.45477295
1601134229798,72,0.05126953,0.63397217,0.62371826
1601134229799,73,-0.052001953,0.9603882,0.36029053
1601134229799,74,0.032958984,0.72650146,0.7472534
1601134229800,75,-0.029541016,0.84539795,0.45477295
1601134229800,76,-0.04638672,0.9606323,0.31072998
1601134229800,77,-0.052001953,0.9603882,0.36029053
1601134229803,78,-0.052001953,0.9603882,0.36029053
1601134229803,79,-0.029541016,0.84539795,0.45477295
1601134229803,80,-0.029541016,0.84539795,0.45477295
1601134229803,81,-0.04638672,0.9606323,0.31072998
1601134229803,82,0.03540039,0.79364014,0.71258545
1601134229804,83,-0.052001953,0.9603882,0.36029053
1601134229804,84,0.03540039,0.79364014,0.71258545
1601134229804,85,-0.02758789,0.9906616,0.30706787
1601134229804,86,-0.02758789,0.9906616,0.30706787
1601134229807,87,-0.0073242188,0.90618896,0.22845459
1601134229807,88,0.05126953,0.63397217,0.62371826
1601134229807,89,-0.02758789,0.9906616,0.30706787
1601134229807,90,0.0021972656,0.88616943,0.18377686
1601134229807,91,-0.052001953,0.9603882,0.36029053
1601134229807,92,0.05126953,0.63397217,0.62371826
1601134229807,93,-0.06201172,0.9137573,0.15789795
1601134229807,94,0.03540039,0.79364014,0.71258545
1601134229807,95,-0.076660156,0.99383545,0.36590576
1601134229810,96,-0.076660156,0.99383545,0.36590576
1601134229810,97,-0.029541016,0.84539795,0.45477295
1601134229810,98,-0.04638672,0.9606323,0.31072998
1601134229810,99,-0.076660156,0.99383545,0.36590576
1601134229810,100,-0.02758789,0.9906616,0.30706787
1601134229810,101,-0.02758789,0.9906616,0.30706787
1601134229810,102,-0.1081543,0.9467163,0.1774292
1601134229810,103,-0.029541016,0.84539795,0.45477295
1601134229810,104,0.05126953,0.63397217,0.62371826
1601134229811,105,-0.0073242188,0.90618896,0.22845459
1601134229815,106,-0.04638672,0.9606323,0.31072998
1601134229815,107,0.0021972656,0.88616943,0.18377686
1601134229815,108,-0.076660156,0.99383545,0.36590576
1601134229815,109,-0.076660156,0.99383545,0.36590576
1601134229816,110,-0.0073242188,0.90618896,0.22845459
1601134229816,111,-0.14575195,0.92645264,0.22576904
1601134229816,112,-0.029541016,0.84539795,0.45477295
1601134229816,113,-0.052001953,0.9603882,0.36029053
1601134229816,114,-0.052001953,0.9603882,0.36029053
1601134229816,115,-0.02758789,0.9906616,0.30706787
1601134229820,116,-0.0073242188,0.90618896,0.22845459
1601134229820,117,-0.06201172,0.9137573,0.15789795
1601134229820,118,-0.1081543,0.9467163,0.1774292
1601134229821,119,0.0021972656,0.88616943,0.18377686
1601134229821,120,-0.14575195,0.92645264,0.22576904
1601134229821,121,-0.15893555,0.8192749,0.2682495
1601134229821,122,-0.04638672,0.9606323,0.31072998
1601134229821,123,-0.15893555,0.8192749,0.2682495
1601134229821,124,-0.076660156,0.99383545,0.36590576
1601134229822,125,-0.052001953,0.9603882,0.36029053
1601134229822,126,-0.04638672,0.9606323,0.31072998
1601134229822,127,0.0021972656,0.88616943,0.18377686
1601134229823,128,-0.02758789,0.9906616,0.30706787
1601134229823,129,-0.2055664,0.7597046,0.26312256
1601134229824,130,-0.33642578,0.8414917,0.2177124
1601134229825,131,-0.2055664,0.7597046,0.26312256
1601134229829,132,-0.06201172,0.9137573,0.15789795
1601134229829,133,-0.0073242188,0.90618896,0.22845459
1601134229829,134,-0.06201172,0.9137573,0.15789795
1601134229829,135,-0.04638672,0.9606323,0.31072998
1601134229829,136,-0.02758789,0.9906616,0.30706787
1601134229829,137,0.0021972656,0.88616943,0.18377686
1601134229829,138,-0.37768555,0.92962646,0.26190186
1601134229829,139,-0.076660156,0.99383545,0.36590576
1601134229829,140,-0.06201172,0.9137573,0.15789795
1601134229829,141,-0.33642578,0.8414917,0.2177124
1601134229841,142,-0.1081543,0.9467163,0.1774292
1601134229841,143,-0.1081543,0.9467163,0.1774292
1601134229841,144,-0.0073242188,0.90618896,0.22845459
1601134229841,145,-0.076660156,0.99383545,0.36590576
1601134229841,146,-0.0073242188,0.90618896,0.22845459
1601134229841,147,-0.04638672,0.9606323,0.31072998
1601134229841,148,-0.2614746,0.88397217,0.27044678
1601134229842,149,0.0021972656,0.88616943,0.18377686
1601134229842,150,-0.1081543,0.9467163,0.1774292
1601134229842,151,-0.25073242,0.79486084,0.14935303
1601134229842,152,-0.06201172,0.9137573,0.15789795
1601134229842,153,-0.14575195,0.92645264,0.22576904
1601134229842,154,-0.14575195,0.92645264,0.22576904
1601134229842,155,0.0021972656,0.88616943,0.18377686
1601134229842,156,-0.04638672,0.9606323,0.31072998
1601134229842,157,-0.15893555,0.8192749,0.2682495
1601134229843,158,-0.06201172,0.9137573,0.15789795
1601134229843,159,-0.37768555,0.92962646,0.26190186
1601134229844,160,-0.20825195,0.88812256,0.046569824
1601134229844,161,-0.1081543,0.9467163,0.1774292
1601134229853,162,-0.15893555,0.8192749,0.2682495
1601134229853,163,-0.04638672,0.9606323,0.31072998
1601134229853,164,-0.1081543,0.9467163,0.1774292
1601134229853,165,-0.0073242188,0.90618896,0.22845459
1601134229854,166,-0.2055664,0.7597046,0.26312256
1601134229854,167,-0.14575195,0.92645264,0.22576904
1601134229854,168,-0.0073242188,0.90618896,0.22845459
1601134229854,169,-0.2614746,0.88397217,0.27044678
1601134229854,170,-0.20263672,0.8041382,-0.07989502
1601134229854,171,-0.14575195,0.92645264,0.22576904
1601134229855,172,-0.14575195,0.92645264,0.22576904
1601134229855,173,-0.2055664,0.7597046,0.26312256
1601134229855,174,-0.18774414,0.85028076,-0.1897583
1601134229856,175,-0.33642578,0.8414917,0.2177124
1601134229856,176,0.0021972656,0.88616943,0.18377686
1601134229856,177,-0.15893555,0.8192749,0.2682495
1601134229856,178,-0.25073242,0.79486084,0.14935303
1601134229856,179,-0.33642578,0.8414917,0.2177124
1601134229856,180,-0.15893555,0.8192749,0.2682495
1601134229856,181,-0.15893555,0.8192749,0.2682495
1601134229856,182,-0.104003906,0.963562,-0.26739502
1601134229856,183,-0.06201172,0.9137573,0.15789795
1601134229864,184,-0.37768555,0.92962646,0.26190186
1601134229865,185,-0.20825195,0.88812256,0.046569824
1601134229865,186,-0.0073242188,0.90618896,0.22845459
1601134229867,187,-0.2614746,0.88397217,0.27044678
1601134229867,188,0.0021972656,0.88616943,0.18377686
1601134229867,189,-0.25073242,0.79486084,0.14935303
1601134229867,190,-0.2055664,0.7597046,0.26312256
1601134229867,191,0.0021972656,0.88616943,0.18377686
1601134229868,192,-0.33642578,0.8414917,0.2177124
1601134229868,193,-0.1081543,0.9467163,0.1774292
1601134229868,194,-0.06201172,0.9137573,0.15789795
1601134229868,195,-0.37768555,0.92962646,0.26190186
1601134229868,196,-0.37768555,0.92962646,0.26190186
1601134229868,197,-0.1081543,0.9467163,0.1774292
1601134229868,198,-0.14575195,0.92645264,0.22576904
1601134229868,199,-0.20825195,0.88812256,0.046569824
1601134229868,200,-0.2614746,0.88397217,0.27044678
1601134229868,201,-0.20263672,0.8041382,-0.07989502
1601134229868,202,-0.20263672,0.8041382,-0.07989502
1601134229868,203,-0.2055664,0.7597046,0.26312256
1601134229868,204,-0.06201172,0.9137573,0.15789795
1601134229869,205,-0.20776367,1.3656616,-0.59576416
1601134229869,206,-0.15893555,0.8192749,0.2682495
1601134229869,207,-0.2614746,0.88397217,0.27044678
1601134229869,208,-0.2055664,0.7597046,0.26312256
1601134229869,209,-0.25073242,0.79486084,0.14935303
1601134229869,210,-0.14575195,0.92645264,0.22576904
1601134229869,211,-0.18774414,0.85028076,-0.1897583
1601134229872,212,-0.33642578,0.8414917,0.2177124
1601134229872,213,-0.5925293,1.2960815,-0.6370239
1601134229872,214,-0.1081543,0.9467163,0.1774292
1601134229872,215,-0.37768555,0.92962646,0.26190186
1601134229873,216,-0.25073242,0.79486084,0.14935303
1601134229873,217,-0.14575195,0.92645264,0.22576904
1601134229873,218,-0.33642578,0.8414917,0.2177124
1601134229873,219,-0.15893555,0.8192749,0.2682495
1601134229873,220,-0.15893555,0.8192749,0.2682495
1601134229873,221,-0.104003906,0.963562,-0.26739502
1601134229873,222,-0.2055664,0.7597046,0.26312256
1601134229882,223,-0.2614746,0.88397217,0.27044678
1601134229882,224,-0.4428711,0.5482788,-0.26739502
1601134229882,225,-0.20825195,0.88812256,0.046569824
1601134229884,226,-0.25073242,0.79486084,0.14935303
1601134229884,227,-0.37768555,0.92962646,0.26190186
1601134229885,228,-0.20263672,0.8041382,-0.07989502
1601134229885,229,-0.20776367,1.3656616,-0.59576416
1601134229885,230,-0.2055664,0.7597046,0.26312256
1601134229885,231,-0.20825195,0.88812256,0.046569824
1601134229885,232,-0.33642578,0.8414917,0.2177124
1601134229885,233,-0.33642578,0.8414917,0.2177124
1601134229885,234,-0.18774414,0.85028076,-0.1897583
1601134229885,235,-0.40405273,0.35638428,-0.14654541
1601134229885,236,-0.2055664,0.7597046,0.26312256
1601134229885,237,-0.20825195,0.88812256,0.046569824
1601134229885,238,-0.37768555,0.92962646,0.26190186
1601134229885,239,-0.2614746,0.88397217,0.27044678
1601134229885,240,-0.5925293,1.2960815,-0.6370239
1601134229885,241,-0.20263672,0.8041382,-0.07989502
1601134229885,242,-0.18774414,0.85028076,-0.1897583
1601134229886,243,-0.37768555,0.92962646,0.26190186
1601134229888,244,-0.20263672,0.8041382,-0.07989502
1601134229888,245,-0.104003906,0.963562,-0.26739502
1601134229888,246,-0.4428711,0.5482788,-0.26739502
1601134229888,247,-0.6347656,0.50823975,-0.222229
1601134229888,248,-0.104003906,0.963562,-0.26739502
1601134229888,249,-0.2614746,0.88397217,0.27044678
1601134229888,250,-0.25073242,0.79486084,0.14935303
1601134229888,251,-0.20776367,1.3656616,-0.59576416
1601134229892,252,-0.2614746,0.88397217,0.27044678
1601134229892,253,-0.33642578,0.8414917,0.2177124
1601134229892,254,-0.20776367,1.3656616,-0.59576416
1601134229892,255,-0.37768555,0.92962646,0.26190186
1601134229892,256,-0.5925293,1.2960815,-0.6370239
1601134229892,257,-0.18774414,0.85028076,-0.1897583
1601134229892,258,-0.20825195,0.88812256,0.046569824
1601134229892,259,-0.25073242,0.79486084,0.14935303
1601134229893,260,-0.5925293,1.2960815,-0.6370239
1601134229896,261,-0.4428711,0.5482788,-0.26739502
1601134229897,262,-0.40405273,0.35638428,-0.14654541
1601134229897,263,-0.18774414,0.85028076,-0.1897583
1601134229897,264,-0.4428711,0.5482788,-0.26739502
1601134229897,265,-0.2614746,0.88397217,0.27044678
1601134229897,266,-0.40405273,0.35638428,-0.14654541
1601134229897,267,-0.6347656,0.50823975,-0.222229
1601134229897,268,-0.20263672,0.8041382,-0.07989502
1601134229897,269,-0.25073242,0.79486084,0.14935303
1601134229901,270,-0.40405273,0.35638428,-0.14654541
1601134229901,271,-0.6347656,0.50823975,-0.222229
1601134229901,272,-0.104003906,0.963562,-0.26739502
1601134229901,273,-0.20825195,0.88812256,0.046569824
1601134229901,274,-0.20776367,1.3656616,-0.59576416
1601134229901,275,-0.18774414,0.85028076,-0.1897583
1601134229902,276,-0.20825195,0.88812256,0.046569824
1601134229906,277,-0.104003906,0.963562,-0.26739502
1601134229906,278,-0.25073242,0.79486084,0.14935303
1601134229906,279,-0.5925293,1.2960815,-0.6370239
1601134229906,280,-0.20825195,0.88812256,0.046569824
1601134229907,281,-0.6347656,0.50823975,-0.222229
1601134229910,282,-0.20263672,0.8041382,-0.07989502
1601134229910,283,-0.20263672,0.8041382,-0.07989502
1601134229910,284,-0.104003906,0.963562,-0.26739502
1601134229910,285,-0.4428711,0.5482788,-0.26739502
1601134229910,286,-0.18774414,0.85028076,-0.1897583
1601134229910,287,-0.18774414,0.85028076,-0.1897583
1601134229910,288,-0.40405273,0.35638428,-0.14654541
1601134229918,289,-0.20776367,1.3656616,-0.59576416
1601134229918,290,-0.20776367,1.3656616,-0.59576416
1601134229918,291,-0.104003906,0.963562,-0.26739502
1601134229918,292,-0.104003906,0.963562,-0.26739502
1601134229919,293,-0.20263672,0.8041382,-0.07989502
1601134229919,294,-0.6347656,0.50823975,-0.222229
1601134229919,295,-0.20776367,1.3656616,-0.59576416
1601134229919,296,-0.5925293,1.2960815,-0.6370239
1601134229919,297,-0.5925293,1.2960815,-0.6370239
1601134229919,298,-0.18774414,0.85028076,-0.1897583
1601134229919,299,-0.4428711,0.5482788,-0.26739502
1601134229919,300,-0.20776367,1.3656616,-0.59576416
1601134229919,301,-0.40405273,0.35638428,-0.14654541
1601134229920,302,-0.5925293,1.2960815,-0.6370239
1601134229920,303,-0.5925293,1.2960815,-0.6370239
1601134229920,304,-0.104003906,0.963562,-0.26739502
1601134229920,305,-0.4428711,0.5482788,-0.26739502
1601134229920,306,-0.6347656,0.50823975,-0.222229
1601134229920,307,-0.20776367,1.3656616,-0.59576416
1601134229920,308,-0.4428711,0.5482788,-0.26739502
1601134229920,309,-0.40405273,0.35638428,-0.14654541
1601134229921,310,-0.4428711,0.5482788,-0.26739502
1601134229921,311,-0.5925293,1.2960815,-0.6370239
1601134229922,312,-0.6347656,0.50823975,-0.222229
1601134229923,313,-0.4428711,0.5482788,-0.26739502
1601134229923,314,-0.40405273,0.35638428,-0.14654541
1601134229924,315,-0.40405273,0.35638428,-0.14654541
1601134229924,316,-0.40405273,0.35638428,-0.14654541
1601134229924,317,-0.6347656,0.50823975,-0.222229
1601134229924,318,-0.6347656,0.50823975,-0.222229
1601134229926,319,-0.6347656,0.50823975,-0.222229
1601134232455,320,-0.95336914,0.590271,-0.78619385
1601134232457,321,-0.95336914,0.590271,-0.78619385
1601134232463,322,-0.95336914,0.590271,-0.78619385
1601134232463,323,-0.95336914,0.590271,-0.78619385
1601134232464,324,-0.95336914,0.590271,-0.78619385
1601134232466,325,-0.95336914,0.590271,-0.78619385
1601134232467,326,-0.8095703,1.4066772,-0.7190552
1601134232468,327,-0.8095703,1.4066772,-0.7190552
1601134232469,328,-0.8095703,1.4066772,-0.7190552
1601134232469,329,-0.8095703,1.4066772,-0.7190552
1601134232470,330,-0.95336914,0.590271,-0.78619385
1601134232470,331,-0.8095703,1.4066772,-0.7190552
1601134232471,332,-0.95336914,0.590271,-0.78619385
1601134232490,333,-0.39135742,1.1513062,-0.38287354
1601134232492,334,-0.39135742,1.1513062,-0.38287354
1601134232492,335,-0.8095703,1.4066772,-0.7190552
1601134232492,336,0.10986328,0.76898193,-0.18121338
1601134232492,337,-0.95336914,0.590271,-0.78619385
1601134232492,338,-0.8095703,1.4066772,-0.7190552
1601134232493,339,-0.39135742,1.1513062,-0.38287354
1601134232493,340,-0.8095703,1.4066772,-0.7190552
1601134232493,341,-0.39135742,1.1513062,-0.38287354
1601134232493,342,-0.95336914,0.590271,-0.78619385
1601134232493,343,0.10986328,0.76898193,-0.18121338
1601134232494,344,0.10986328,0.76898193,-0.18121338
1601134232494,345,0.052490234,0.5060425,-0.004699707
1601134232494,346,0.10986328,0.76898193,-0.18121338
1601134232494,347,0.067871094,0.8590698,-0.55352783
1601134232494,348,-0.8095703,1.4066772,-0.7190552
1601134232494,349,-0.5131836,1.6054077,-1.5855103
1601134232495,350,-0.39135742,1.1513062,-0.38287354
1601134232495,351,0.052490234,0.5060425,-0.004699707
1601134232495,352,-0.39135742,1.1513062,-0.38287354
1601134232495,353,0.067871094,0.8590698,-0.55352783
1601134232495,354,-0.8095703,1.4066772,-0.7190552
1601134232495,355,-0.5131836,1.6054077,-1.5855103
1601134232495,356,0.10986328,0.76898193,-0.18121338
1601134232495,357,-0.5354004,0.6774292,-0.6201782
1601134232495,358,-0.39135742,1.1513062,-0.38287354
1601134232495,359,-0.5354004,0.6774292,-0.6201782
1601134232496,360,-0.39135742,1.1513062,-0.38287354
1601134232496,361,0.10986328,0.76898193,-0.18121338
1601134232496,362,0.052490234,0.5060425,-0.004699707
1601134232502,363,-0.39135742,1.1513062,-0.38287354
1601134232503,364,-0.39135742,1.1513062,-0.38287354
1601134232503,365,0.052490234,0.5060425,-0.004699707
1601134232503,366,-0.35839844,0.14105225,-0.19049072
1601134232503,367,0.10986328,0.76898193,-0.18121338
1601134232503,368,0.10986328,0.76898193,-0.18121338
1601134232503,369,0.052490234,0.5060425,-0.004699707
1601134232503,370,0.052490234,0.5060425,-0.004699707
1601134232503,371,0.052490234,0.5060425,-0.004699707
1601134232503,372,-0.35839844,0.14105225,-0.19049072
1601134232503,373,0.067871094,0.8590698,-0.55352783
1601134232533,374,-0.3540039,0.047302246,-0.041809082
1601134232533,375,0.10986328,0.76898193,-0.18121338
1601134232533,376,0.052490234,0.5060425,-0.004699707
1601134232534,377,0.052490234,0.5060425,-0.004699707
1601134232534,378,0.067871094,0.8590698,-0.55352783
1601134232536,379,0.067871094,0.8590698,-0.55352783
1601134232536,380,0.067871094,0.8590698,-0.55352783
1601134232536,381,0.067871094,0.8590698,-0.55352783
1601134232536,382,0.067871094,0.8590698,-0.55352783
1601134232536,383,0.10986328,0.76898193,-0.18121338
1601134232536,384,-0.5131836,1.6054077,-1.5855103
1601134232537,385,-1.0407715,0.40472412,-1.123352
1601134232537,386,0.052490234,0.5060425,-0.004699707
1601134232537,387,0.067871094,0.8590698,-0.55352783
1601134232537,388,-1.1049805,1.8197632,-1.1416626
1601134232537,389,-0.5131836,1.6054077,-1.5855103
1601134232537,390,-0.5131836,1.6054077,-1.5855103
1601134232537,391,-0.5131836,1.6054077,-1.5855103
1601134232537,392,-0.5354004,0.6774292,-0.6201782
1601134232538,393,-0.5131836,1.6054077,-1.5855103
1601134232538,394,-0.35839844,0.14105225,-0.19049072
1601134232538,395,-0.5354004,0.6774292,-0.6201782
1601134232538,396,-0.3540039,0.047302246,-0.041809082
1601134232538,397,-0.3540039,0.047302246,-0.041809082
1601134232539,398,-0.5131836,1.6054077,-1.5855103
1601134232539,399,-0.057128906,1.2321167,-0.534729
1601134232539,400,-0.5354004,0.6774292,-0.6201782
1601134232539,401,-0.5354004,0.6774292,-0.6201782
1601134232539,402,0.57543945,0.56365967,-0.44659424
1601134232539,403,-0.5354004,0.6774292,-0.6201782
1601134232539,404,-0.35839844,0.14105225,-0.19049072
1601134232539,405,-0.5131836,1.6054077,-1.5855103
1601134232539,406,-0.35839844,0.14105225,-0.19049072
1601134232540,407,-0.5354004,0.6774292,-0.6201782
1601134232540,408,0.067871094,0.8590698,-0.55352783
1601134232540,409,-0.35839844,0.14105225,-0.19049072
1601134232540,410,-1.0407715,0.40472412,-1.123352
1601134232552,411,-1.0407715,0.40472412,-1.123352
1601134232552,412,-0.35839844,0.14105225,-0.19049072
1601134232552,413,-0.3540039,0.047302246,-0.041809082
1601134232553,414,-1.1049805,1.8197632,-1.1416626
1601134232553,415,-0.35839844,0.14105225,-0.19049072
1601134232553,416,-0.5131836,1.6054077,-1.5855103
1601134232553,417,-1.0407715,0.40472412,-1.123352
1601134232553,418,-0.5354004,0.6774292,-0.6201782
1601134232553,419,0.32299805,0.4147339,-0.03643799
1601134232553,420,-0.5354004,0.6774292,-0.6201782
1601134232553,421,-0.35839844,0.14105225,-0.19049072
1601134232553,422,-0.3540039,0.047302246,-0.041809082
1601134232553,423,-0.3540039,0.047302246,-0.041809082
1601134232553,424,-0.3540039,0.047302246,-0.041809082
1601134232553,425,-0.35839844,0.14105225,-0.19049072
1601134232553,426,-1.1049805,1.8197632,-1.1416626
1601134232554,427,-1.1049805,1.8197632,-1.1416626
1601134232555,428,-1.0407715,0.40472412,-1.123352
1601134232555,429,-0.3540039,0.047302246,-0.041809082
1601134232555,430,-0.057128906,1.2321167,-0.534729
1601134232555,431,0.28027344,0.53118896,-0.53253174
1601134232555,432,-1.0407715,0.40472412,-1.123352
1601134232555,433,-1.0407715,0.40472412,-1.123352
1601134232555,434,-1.1049805,1.8197632,-1.1416626
1601134232555,435,-1.0407715,0.40472412,-1.123352
1601134232556,436,-0.057128906,1.2321167,-0.534729
1601134232558,437,-0.057128906,1.2321167,-0.534729
1601134232558,438,-0.3540039,0.047302246,-0.041809082
1601134232570,439,0.57543945,0.56365967,-0.44659424
1601134232570,440,-0.057128906,1.2321167,-0.534729
1601134232571,441,-1.0407715,0.40472412,-1.123352
1601134232571,442,-1.1049805,1.8197632,-1.1416626
1601134232571,443,0.57543945,0.56365967,-0.44659424
1601134232571,444,0.32299805,0.4147339,-0.03643799
1601134232571,445,-1.1049805,1.8197632,-1.1416626
1601134232571,446,-0.38330078,1.1112671,-1.4382935
1601134232571,447,-0.3540039,0.047302246,-0.041809082
1601134232571,448,-1.1049805,1.8197632,-1.1416626
1601134232571,449,-1.1049805,1.8197632,-1.1416626
1601134232572,450,0.57543945,0.56365967,-0.44659424
1601134232572,451,0.57543945,0.56365967,-0.44659424
1601134232572,452,-0.057128906,1.2321167,-0.534729
1601134232572,453,0.32299805,0.4147339,-0.03643799
1601134232572,454,0.28027344,0.53118896,-0.53253174
1601134232572,455,0.32299805,0.4147339,-0.03643799
1601134232572,456,-0.7775879,0.8851929,-1.2715454
1601134232572,457,-1.0407715,0.40472412,-1.123352
1601134232572,458,-0.057128906,1.2321167,-0.534729
1601134232572,459,-0.057128906,1.2321167,-0.534729
1601134232576,460,0.57543945,0.56365967,-0.44659424
1601134232576,461,-0.38330078,1.1112671,-1.4382935
1601134232577,462,0.32299805,0.4147339,-0.03643799
1601134232577,463,0.32299805,0.4147339,-0.03643799
1601134232577,464,0.28027344,0.53118896,-0.53253174
1601134232577,465,0.28027344,0.53118896,-0.53253174
1601134232577,466,-0.38330078,1.1112671,-1.4382935
1601134232577,467,0.57543945,0.56365967,-0.44659424
1601134232577,468,0.57543945,0.56365967,-0.44659424
1601134232577,469,-0.057128906,1.2321167,-0.534729
1601134232578,470,-0.7775879,0.8851929,-1.2715454
1601134232578,471,0.28027344,0.53118896,-0.53253174
1601134232582,472,-0.46484375,0.33880615,-0.44171143
1601134232582,473,0.28027344,0.53118896,-0.53253174
1601134232582,474,-0.21166992,-0.25567627,-0.16851807
1601134232582,475,-1.0197754,0.137146,-0.40167236
1601134232586,476,-2.0,1.451355,-0.96417236
1601134232586,477,-0.46484375,0.33880615,-0.44171143
1601134232586,478,-0.38330078,1.1112671,-1.4382935
1601134232587,479,-0.7775879,0.8851929,-1.2715454
1601134232587,480,0.32299805,0.4147339,-0.03643799
1601134232587,481,-0.38330078,1.1112671,-1.4382935
1601134232587,482,-0.38330078,1.1112671,-1.4382935
1601134232587,483,0.57543945,0.56365967,-0.44659424
1601134232587,484,0.32299805,0.4147339,-0.03643799
1601134232587,485,-1.1049805,1.8197632,-1.1416626
1601134232587,486,-0.69921875,1.1981812,-0.7280884
1601134232591,487,-0.21166992,-0.25567627,-0.16851807
1601134232591,488,0.28027344,0.53118896,-0.53253174
1601134232592,489,-0.46484375,0.33880615,-0.44171143
1601134232592,490,-1.0197754,0.137146,-0.40167236
1601134232592,491,-0.21166992,-0.25567627,-0.16851807
1601134232595,492,-0.7775879,0.8851929,-1.2715454
1601134232596,493,0.09692383,0.57562256,-0.42437744
1601134232596,494,-0.38330078,1.1112671,-1.4382935
1601134232596,495,0.39208984,0.3619995,-0.23101807
1601134232596,496,-0.7775879,0.8851929,-1.2715454
1601134232600,497,0.32299805,0.4147339,-0.03643799
1601134232600,498,-1.0197754,0.137146,-0.40167236
1601134232600,499,-2.0,1.451355,-0.96417236
1601134232600,500,-0.7775879,0.8851929,-1.2715454
1601134232600,501,0.10522461,0.62371826,-0.44781494
1601134232601,502,-2.0,1.451355,-0.96417236
1601134232601,503,-0.69921875,1.1981812,-0.7280884
1601134232601,504,-0.057128906,1.2321167,-0.534729
1601134232601,505,-0.7775879,0.8851929,-1.2715454
1601134232607,506,-0.46484375,0.33880615,-0.44171143
1601134232609,507,-0.46484375,0.33880615,-0.44171143
1601134232609,508,-0.79248047,1.8991089,-1.500061
1601134232610,509,-0.21166992,-0.25567627,-0.16851807
1601134232610,510,-0.46484375,0.33880615,-0.44171143
1601134232610,511,0.57543945,0.56365967,-0.44659424
1601134232610,512,-0.21166992,-0.25567627,-0.16851807
1601134232610,513,0.32299805,0.4147339,-0.03643799
1601134232611,514,0.28027344,0.53118896,-0.53253174
1601134232611,515,0.28027344,0.53118896,-0.53253174
1601134232611,516,-0.38330078,1.1112671,-1.4382935
1601134232611,517,-1.0197754,0.137146,-0.40167236
1601134232611,518,-0.46484375,0.33880615,-0.44171143
1601134232612,519,-1.0197754,0.137146,-0.40167236
1601134232613,520,0.28027344,0.53118896,-0.53253174
1601134232619,521,-0.21166992,-0.25567627,-0.16851807
1601134232620,522,-1.1137695,0.79486084,-0.93096924
1601134232620,523,-1.0197754,0.137146,-0.40167236
1601134232620,524,-2.0,1.451355,-0.96417236
1601134232620,525,0.09692383,0.57562256,-0.42437744
1601134232620,526,-0.21166992,-0.25567627,-0.16851807
1601134232620,527,0.39208984,0.3619995,-0.23101807
1601134232620,528,-0.69921875,1.1981812,-0.7280884
1601134232620,529,-2.0,1.451355,-0.96417236
1601134232641,530,-0.38330078,1.1112671,-1.4382935
1601134232642,531,-0.7775879,0.8851929,-1.2715454
1601134232642,532,-0.7775879,0.8851929,-1.2715454
1601134232642,533,-0.46484375,0.33880615,-0.44171143
1601134232642,534,-0.5332031,0.117614746,-0.35211182
1601134232642,535,-0.69921875,1.1981812,-0.7280884
1601134232642,536,0.10522461,0.62371826,-0.44781494
1601134232643,537,0.09692383,0.57562256,-0.42437744
1601134232643,538,-0.38330078,1.1112671,-1.4382935
1601134232643,539,-0.69921875,1.1981812,-0.7280884
1601134232643,540,-0.79248047,1.8991089,-1.500061
1601134232643,541,-2.0,1.451355,-0.96417236
1601134232643,542,-1.1137695,0.79486084,-0.93096924
1601134232644,543,-0.21166992,-0.25567627,-0.16851807
1601134232644,544,-0.5332031,0.117614746,-0.35211182
1601134232644,545,-1.0197754,0.137146,-0.40167236
1601134232644,546,-1.0197754,0.137146,-0.40167236
1601134232644,547,0.09692383,0.57562256,-0.42437744
1601134232644,548,-2.0,1.451355,-0.96417236
1601134232644,549,-0.7775879,0.8851929,-1.2715454
1601134232644,550,0.09692383,0.57562256,-0.42437744
1601134232644,551,-0.46484375,0.33880615,-0.44171143
1601134232644,552,0.39208984,0.3619995,-0.23101807
1601134232645,553,-0.3840332,-0.27960205,-0.21954346
1601134232645,554,-0.21166992,-0.25567627,-0.16851807
1601134232645,555,0.10522461,0.62371826,-0.44781494
1601134232645,556,0.39208984,0.3619995,-0.23101807
1601134232645,557,-0.6669922,0.199646,-0.6255493
1601134232645,558,-0.3840332,-0.27960205,-0.21954346
1601134232645,559,0.39208984,0.3619995,-0.23101807
1601134232645,560,0.10522461,0.62371826,-0.44781494
1601134232645,561,-0.69921875,1.1981812,-0.7280884
1601134232645,562,-2.0,1.451355,-0.96417236
1601134232645,563,0.09692383,0.57562256,-0.42437744
1601134232645,564,-1.0197754,0.137146,-0.40167236
1601134232645,565,-0.79248047,1.8991089,-1.500061
1601134232651,566,-1.2175293,1.4735718,-1.7410278
1601134232651,567,-0.79248047,1.8991089,-1.500061
1601134232651,568,-0.69921875,1.1981812,-0.7280884
1601134232651,569,0.39208984,0.3619995,-0.23101807
1601134232651,570,0.10522461,0.62371826,-0.44781494
1601134232651,571,0.09692383,0.57562256,-0.42437744
1601134232651,572,-0.46484375,0.33880615,-0.44171143
1601134232651,573,-1.1137695,0.79486084,-0.93096924
1601134232652,574,0.39208984,0.3619995,-0.23101807
1601134232652,575,-0.21166992,-0.25567627,-0.16851807
1601134232652,576,-1.1137695,0.79486084,-0.93096924
1601134232653,577,0.10522461,0.62371826,-0.44781494
1601134232660,578,-2.0,1.451355,-0.96417236
1601134232661,579,-0.79248047,1.8991089,-1.500061
1601134232661,580,-0.6669922,0.199646,-0.6255493
1601134232661,581,0.10522461,0.62371826,-0.44781494
1601134232661,582,-1.0197754,0.137146,-0.40167236
1601134232661,583,-1.2175293,1.4735718,-1.7410278
1601134232661,584,-0.5332031,0.117614746,-0.35211182
1601134232661,585,-0.79248047,1.8991089,-1.500061
1601134232662,586,-0.5332031,0.117614746,-0.35211182
1601134232663,587,-0.69921875,1.1981812,-0.7280884
1601134232667,588,-0.79248047,1.8991089,-1.500061
1601134232668,589,-2.0,1.451355,-0.96417236
1601134232668,590,-1.1137695,0.79486084,-0.93096924
1601134232668,591,-0.69921875,1.1981812,-0.7280884
1601134232668,592,-0.3840332,-0.27960205,-0.21954346
1601134232668,593,0.09692383,0.57562256,-0.42437744
1601134232669,594,-1.1137695,0.79486084,-0.93096924
1601134232669,595,0.39208984,0.3619995,-0.23101807
1601134232698,596,-1.1137695,0.79486084,-0.93096924
1601134232698,597,-0.5332031,0.117614746,-0.35211182
1601134232707,598,0.09692383,0.57562256,-0.42437744
1601134232707,599,-0.6669922,0.199646,-0.6255493
1601134232707,600,0.10522461,0.62371826,-0.44781494
1601134232707,601,0.39208984,0.3619995,-0.23101807
1601134232707,602,-0.69921875,1.1981812,-0.7280884
1601134232707,603,-1.2175293,1.4735718,-1.7410278
1601134232707,604,-0.3840332,-0.27960205,-0.21954346
1601134232707,605,0.10522461,0.62371826,-0.44781494
1601134232707,606,-0.3840332,-0.27960205,-0.21954346
1601134232707,607,-0.5332031,0.117614746,-0.35211182
1601134232708,608,-0.6669922,0.199646,-0.6255493
1601134232708,609,-0.79248047,1.8991089,-1.500061
1601134232708,610,0.09692383,0.57562256,-0.42437744
1601134232708,611,-0.6669922,0.199646,-0.6255493
1601134232709,612,-0.79248047,1.8991089,-1.500061
1601134232710,613,-1.2175293,1.4735718,-1.7410278
1601134232712,614,-1.1137695,0.79486084,-0.93096924
1601134232713,615,-1.2175293,1.4735718,-1.7410278
1601134232713,616,-0.5332031,0.117614746,-0.35211182
1601134232713,617,-0.3840332,-0.27960205,-0.21954346
1601134232713,618,-0.5332031,0.117614746,-0.35211182
1601134232713,619,-0.6669922,0.199646,-0.6255493
1601134232713,620,-1.1137695,0.79486084,-0.93096924
1601134232714,621,0.39208984,0.3619995,-0.23101807
1601134232717,622,-0.3840332,-0.27960205,-0.21954346
1601134232718,623,0.10522461,0.62371826,-0.44781494
1601134232720,624,-0.3840332,-0.27960205,-0.21954346
1601134232727,625,-1.2175293,1.4735718,-1.7410278
1601134232727,626,-0.6669922,0.199646,-0.6255493
1601134232727,627,-0.79248047,1.8991089,-1.500061
1601134232727,628,-0.5332031,0.117614746,-0.35211182
1601134232727,629,-1.1137695,0.79486084,-0.93096924
1601134232727,630,-0.3840332,-0.27960205,-0.21954346
1601134232728,631,-0.5332031,0.117614746,-0.35211182
1601134232728,632,-0.6669922,0.199646,-0.6255493
1601134232728,633,-0.3840332,-0.27960205,-0.21954346
1601134232734,634,-1.2175293,1.4735718,-1.7410278
1601134232735,635,-0.6669922,0.199646,-0.6255493
1601134232735,636,-0.6669922,0.199646,-0.6255493
1601134232735,637,-1.2175293,1.4735718,-1.7410278
1601134232735,638,-1.2175293,1.4735718,-1.7410278
1601134232735,639,-1.2175293,1.4735718,-1.7410278
1601134234796,640,-0.2536621,1.0756226,-1.1890259
1601134234801,641,-0.2536621,1.0756226,-1.1890259
1601134234818,642,-0.2536621,1.0756226,-1.1890259
1601134234819,643,-0.2536621,1.0756226,-1.1890259
1601134234819,644,-0.2536621,1.0756226,-1.1890259
1601134234819,645,0.4399414,0.34246826,-0.39849854
1601134234819,646,-0.2536621,1.0756226,-1.1890259
1601134234819,647,0.43945312,0.010681152,0.004333496
1601134234820,648,0.4399414,0.34246826,-0.39849854
1601134234820,649,0.4399414,0.34246826,-0.39849854
1601134234820,650,0.4399414,0.34246826,-0.39849854
1601134234820,651,-0.2536621,1.0756226,-1.1890259
1601134234820,652,-0.2536621,1.0756226,-1.1890259
1601134234820,653,0.43945312,0.010681152,0.004333496
1601134234821,654,0.4399414,0.34246826,-0.39849854
1601134234821,655,0.33081055,0.38104248,-0.27789307
1601134234821,656,0.4399414,0.34246826,-0.39849854
1601134234821,657,0.33081055,0.38104248,-0.27789307
1601134234821,658,0.43945312,0.010681152,0.004333496
1601134234821,659,-0.2536621,1.0756226,-1.1890259
1601134234823,660,-0.26391602,1.999939,-1.9998169
1601134234823,661,-0.26391602,1.999939,-1.9998169
1601134234831,662,0.33081055,0.38104248,-0.27789307
1601134234832,663,0.43945312,0.010681152,0.004333496
1601134234832,664,-0.2536621,1.0756226,-1.1890259
1601134234832,665,0.43945312,0.010681152,0.004333496
1601134234832,666,0.43945312,0.010681152,0.004333496
1601134234832,667,-0.4440918,0.75701904,-1.0405884
1601134234833,668,0.4399414,0.34246826,-0.39849854
1601134234833,669,-0.4440918,0.75701904,-1.0405884
1601134234833,670,0.33081055,0.38104248,-0.27789307
1601134234833,671,0.4399414,0.34246826,-0.39849854
1601134234833,672,-0.26391602,1.999939,-1.9998169
1601134234833,673,-0.4440918,0.75701904,-1.0405884
1601134234842,674,0.4399414,0.34246826,-0.39849854
1601134234842,675,0.4399414,0.34246826,-0.39849854
1601134234842,676,-0.37646484,0.022644043,-0.2456665
1601134234843,677,0.43945312,0.010681152,0.004333496
1601134234843,678,0.33081055,0.38104248,-0.27789307
1601134234843,679,0.43945312,0.010681152,0.004333496
1601134234844,680,-0.3713379,-0.16119385,-0.13995361
1601134234844,681,0.33081055,0.38104248,-0.27789307
1601134234845,682,-0.26391602,1.999939,-1.9998169
1601134234845,683,-0.37646484,0.022644043,-0.2456665
1601134234845,684,0.33081055,0.38104248,-0.27789307
1601134234845,685,0.43945312,0.010681152,0.004333496
1601134234845,686,-0.26391602,1.999939,-1.9998169
1601134234845,687,0.43945312,0.010681152,0.004333496
1601134234846,688,-0.4440918,0.75701904,-1.0405884
1601134234846,689,-0.37646484,0.022644043,-0.2456665
1601134234846,690,0.33081055,0.38104248,-0.27789307
1601134234846,691,-0.26391602,1.999939,-1.9998169
1601134234846,692,-0.26391602,1.999939,-1.9998169
1601134234849,693,-0.4440918,0.75701904,-1.0405884
1601134234849,694,0.33081055,0.38104248,-0.27789307
1601134234849,695,-0.37646484,0.022644043,-0.2456665
1601134234849,696,-0.37646484,0.022644043,-0.2456665
1601134234850,697,0.33081055,0.38104248,-0.27789307
1601134234850,698,-0.3713379,-0.16119385,-0.13995361
1601134234850,699,-0.4440918,0.75701904,-1.0405884
1601134234850,700,-0.26391602,1.999939,-1.9998169
1601134234850,701,-0.3713379,-0.16119385,-0.13995361
1601134234850,702,-0.4440918,0.75701904,-1.0405884
1601134234855,703,-0.5810547,0.21990967,-0.6399536
1601134234856,704,-0.5810547,0.21990967,-0.6399536
1601134234856,705,-0.26391602,1.999939,-1.9998169
1601134234856,706,-0.26391602,1.999939,-1.9998169
1601134234856,707,-0.3713379,-0.16119385,-0.13995361
1601134234856,708,-0.5810547,0.21990967,-0.6399536
1601134234856,709,-0.5810547,0.21990967,-0.6399536
1601134234856,710,-0.37646484,0.022644043,-0.2456665
1601134234856,711,-0.37646484,0.022644043,-0.2456665
1601134234857,712,-0.8666992,1.2294312,-1.8137817
1601134234858,713,-0.3713379,-0.16119385,-0.13995361
1601134234868,714,-0.4440918,0.75701904,-1.0405884
1601134234868,715,-0.4440918,0.75701904,-1.0405884
1601134234868,716,-0.8666992,1.2294312,-1.8137817
1601134234868,717,-0.8666992,1.2294312,-1.8137817
1601134234868,718,-0.3713379,-0.16119385,-0.13995361
1601134234869,719,-0.3713379,-0.16119385,-0.13995361
1601134234869,720,-0.37646484,0.022644043,-0.2456665
1601134234869,721,-0.4440918,0.75701904,-1.0405884
1601134234869,722,-0.42016602,1.2338257,-1.1653442
1601134234869,723,-0.5810547,0.21990967,-0.6399536
1601134234872,724,-0.37646484,0.022644043,-0.2456665
1601134234875,725,-0.42016602,1.2338257,-1.1653442
1601134234887,726,-0.42016602,1.2338257,-1.1653442
1601134234887,727,0.18457031,0.6539917,-0.7451782
1601134234887,728,0.18457031,0.6539917,-0.7451782
1601134234887,729,-0.3713379,-0.16119385,-0.13995361
1601134234887,730,-0.37646484,0.022644043,-0.2456665
1601134234887,731,-0.5810547,0.21990967,-0.6399536
1601134234887,732,-0.5810547,0.21990967,-0.6399536
1601134234888,733,-0.5810547,0.21990967,-0.6399536
1601134234888,734,-0.8666992,1.2294312,-1.8137817
1601134234909,735,0.22265625,0.20550537,0.055847168
1601134234909,736,-0.8666992,1.2294312,-1.8137817
1601134234909,737,0.18457031,0.6539917,-0.7451782
1601134234909,738,0.22265625,0.20550537,0.055847168
1601134234909,739,-0.3713379,-0.16119385,-0.13995361
1601134234909,740,-0.8666992,1.2294312,-1.8137817
1601134234909,741,-0.8666992,1.2294312,-1.8137817
1601134234909,742,-0.8666992,1.2294312,-1.8137817
1601134234909,743,-0.42016602,1.2338257,-1.1653442
1601134234909,744,-0.42016602,1.2338257,-1.1653442
1601134234909,745,-0.42016602,1.2338257,-1.1653442
1601134234909,746,0.63916016,0.29803467,-0.28570557
1601134234909,747,0.18457031,0.6539917,-0.7451782
1601134234909,748,0.63916016,0.29803467,-0.28570557
1601134234910,749,0.22265625,0.20550537,0.055847168
1601134234910,750,-0.42016602,1.2338257,-1.1653442
1601134234910,751,0.63916016,0.29803467,-0.28570557
1601134234910,752,-0.5810547,0.21990967,-0.6399536
1601134234910,753,0.18457031,0.6539917,-0.7451782
1601134234910,754,0.18457031,0.6539917,-0.7451782
1601134234910,755,-0.42016602,1.2338257,-1.1653442
1601134234910,756,-0.028320312,1.6793823,-1.5828247
1601134234910,757,-0.028320312,1.6793823,-1.5828247
1601134234910,758,-0.3713379,-0.16119385,-0.13995361
1601134234910,759,-0.84716797,1.1681519,-1.0518188
1601134234910,760,0.18457031,0.6539917,-0.7451782
1601134234910,761,-0.028320312,1.6793823,-1.5828247
1601134234910,762,0.22265625,0.20550537,0.055847168
1601134234910,763,-0.5810547,0.21990967,-0.6399536
1601134234910,764,-0.84716797,1.1681519,-1.0518188
1601134234911,765,0.22265625,0.20550537,0.055847168
1601134234911,766,-0.30517578,0.5675659,-0.28179932
1601134234911,767,-0.30517578,0.5675659,-0.28179932
1601134234911,768,-0.19726562,0.26190186,-0.024963379
1601134234911,769,0.22265625,0.20550537,0.055847168
1601134234911,770,0.63916016,0.29803467,-0.28570557
1601134234911,771,-0.84716797,1.1681519,-1.0518188
1601134234911,772,-0.19726562,0.26190186,-0.024963379
1601134234911,773,0.63916016,0.29803467,-0.28570557
1601134234911,774,-0.8666992,1.2294312,-1.8137817
1601134234911,775,0.63916016,0.29803467,-0.28570557
1601134234911,776,-0.8666992,1.2294312,-1.8137817
1601134234911,777,-0.4736328,0.24749756,-0.08770752
1601134234911,778,0.22265625,0.20550537,0.055847168
1601134234911,779,-0.30517578,0.5675659,-0.28179932
1601134234911,780,-0.028320312,1.6793823,-1.5828247
1601134234911,781,0.63916016,0.29803467,-0.28570557
1601134234916,782,-0.028320312,1.6793823,-1.5828247
1601134234916,783,-0.028320312,1.6793823,-1.5828247
1601134234916,784,-0.4736328,0.24749756,-0.08770752
1601134234916,785,-0.84716797,1.1681519,-1.0518188
1601134234916,786,-0.8305664,0.6547241,-1.9692993
1601134234916,787,-0.30517578,0.5675659,-0.28179932
1601134234917,788,0.18457031,0.6539917,-0.7451782
1601134234917,789,-0.028320312,1.6793823,-1.5828247
1601134234917,790,-0.19726562,0.26190186,-0.024963379
1601134234917,791,-0.84716797,1.1681519,-1.0518188
1601134234917,792,-0.84716797,1.1681519,-1.0518188
1601134234917,793,-0.42016602,1.2338257,-1.1653442
1601134234918,794,-0.8305664,0.6547241,-1.9692993
1601134234920,795,-0.42016602,1.2338257,-1.1653442
1601134234921,796,-0.8293457,0.977478,-1.0527954
1601134234922,797,-0.84716797,1.1681519,-1.0518188
1601134234922,798,-0.017578125,0.26019287,-0.67755127
1601134234922,799,-0.30517578,0.5675659,-0.28179932
1601134234922,800,-0.30517578,0.5675659,-0.28179932
1601134234922,801,0.18457031,0.6539917,-0.7451782
1601134234923,802,-0.30517578,0.5675659,-0.28179932
1601134234923,803,-0.19726562,0.26190186,-0.024963379
1601134234923,804,-0.8293457,0.977478,-1.0527954
1601134234923,805,-0.4736328,0.24749756,-0.08770752
1601134234923,806,0.7363281,0.109802246,-0.7510376
1601134234928,807,-0.19726562,0.26190186,-0.024963379
1601134234929,808,0.22265625,0.20550537,0.055847168
1601134234929,809,-0.19726562,0.26190186,-0.024963379
1601134234929,810,0.22265625,0.20550537,0.055847168
1601134234933,811,0.63916016,0.29803467,-0.28570557
1601134234933,812,-0.4736328,0.24749756,-0.08770752
1601134234933,813,0.18457031,0.6539917,-0.7451782
1601134234933,814,-0.19726562,0.26190186,-0.024963379
1601134234933,815,-0.8305664,0.6547241,-1.9692993
1601134234933,816,0.6027832,0.7033081,-0.32965088
1601134234934,817,-0.4736328,0.24749756,-0.08770752
1601134234934,818,-0.4736328,0.24749756,-0.08770752
1601134234934,819,0.63916016,0.29803467,-0.28570557
1601134234934,820,-0.017578125,0.26019287,-0.67755127
1601134234938,821,-0.4736328,0.24749756,-0.08770752
1601134234938,822,0.7363281,0.109802246,-0.7510376
1601134234938,823,-0.8305664,0.6547241,-1.9692993
1601134234955,824,-0.8305664,0.6547241,-1.9692993
1601134234955,825,-0.028320312,1.6793823,-1.5828247
1601134234955,826,-0.8293457,0.977478,-1.0527954
1601134234955,827,0.22265625,0.20550537,0.055847168
1601134234955,828,-0.028320312,1.6793823,-1.5828247
1601134234955,829,-0.8293457,0.977478,-1.0527954
1601134234955,830,-0.84716797,1.1681519,-1.0518188
1601134234955,831,0.6027832,0.7033081,-0.32965088
1601134234956,832,-0.8305664,0.6547241,-1.9692993
1601134234956,833,-0.84350586,0.99749756,-1.9998169
1601134234956,834,-0.8293457,0.977478,-1.0527954
1601134234956,835,-0.8305664,0.6547241,-1.9692993
1601134234956,836,-0.84716797,1.1681519,-1.0518188
1601134234956,837,0.63916016,0.29803467,-0.28570557
1601134234956,838,-0.84350586,0.99749756,-1.9998169
1601134234956,839,-0.017578125,0.26019287,-0.67755127
1601134234956,840,-0.30517578,0.5675659,-0.28179932
1601134234956,841,-0.017578125,0.26019287,-0.67755127
1601134234956,842,-0.9934082,0.5355835,-1.2693481
1601134234956,843,-0.9934082,0.5355835,-1.2693481
1601134234956,844,-0.25952148,0.14300537,-0.5581665
1601134234956,845,-0.017578125,0.26019287,-0.67755127
1601134234956,846,-0.8293457,0.977478,-1.0527954
1601134234956,847,-0.30517578,0.5675659,-0.28179932
1601134234956,848,-0.028320312,1.6793823,-1.5828247
1601134234956,849,0.7363281,0.109802246,-0.7510376
1601134234956,850,-0.19726562,0.26190186,-0.024963379
1601134234957,851,-0.19726562,0.26190186,-0.024963379
1601134234957,852,0.7363281,0.109802246,-0.7510376
1601134234957,853,-0.8293457,0.977478,-1.0527954
1601134234957,854,-0.12646484,-0.038146973,-0.38653564
1601134234957,855,-0.25952148,0.14300537,-0.5581665
1601134234957,856,0.7363281,0.109802246,-0.7510376
1601134234957,857,-0.12646484,-0.038146973,-0.38653564
1601134234958,858,-0.84716797,1.1681519,-1.0518188
1601134234964,859,0.6027832,0.7033081,-0.32965088
1601134234964,860,-0.4736328,0.24749756,-0.08770752
1601134234964,861,-0.84350586,0.99749756,-1.9998169
1601134234965,862,-0.017578125,0.26019287,-0.67755127
1601134234965,863,-0.9934082,0.5355835,-1.2693481
1601134234965,864,-0.017578125,0.26019287,-0.67755127
1601134234965,865,-0.5031738,-0.08673096,-0.21783447
1601134234965,866,0.6027832,0.7033081,-0.32965088
1601134234965,867,-0.30517578,0.5675659,-0.28179932
1601134234965,868,-0.4736328,0.24749756,-0.08770752
1601134234965,869,-0.9641113,0.8456421,-1.8276978
1601134234972,870,-0.8305664,0.6547241,-1.9692993
1601134234972,871,0.7363281,0.109802246,-0.7510376
1601134234972,872,-0.8293457,0.977478,-1.0527954
1601134234972,873,-0.8305664,0.6547241,-1.9692993
1601134234972,874,-0.5031738,-0.08673096,-0.21783447
1601134234972,875,-0.84350586,0.99749756,-1.9998169
1601134234972,876,0.6027832,0.7033081,-0.32965088
1601134234972,877,-0.9641113,0.8456421,-1.8276978
1601134234972,878,-0.25952148,0.14300537,-0.5581665
1601134234972,879,-0.47045898,1.1276245,-1.1184692
1601134234973,880,0.7363281,0.109802246,-0.7510376
1601134234975,881,-0.017578125,0.26019287,-0.67755127
1601134234975,882,-0.8293457,0.977478,-1.0527954
1601134234977,883,0.7363281,0.109802246,-0.7510376
1601134234978,884,-0.84350586,0.99749756,-1.9998169
1601134234978,885,0.8417969,0.29681396,-0.95928955
1601134234980,886,0.6027832,0.7033081,-0.32965088
1601134234988,887,-0.9934082,0.5355835,-1.2693481
1601134234989,888,-0.12646484,-0.038146973,-0.38653564
1601134234989,889,-0.25952148,0.14300537,-0.5581665
1601134234989,890,-0.017578125,0.26019287,-0.67755127
1601134234989,891,-0.47045898,1.1276245,-1.1184692
1601134234990,892,0.7363281,0.109802246,-0.7510376
1601134234990,893,0.6027832,0.7033081,-0.32965088
1601134234990,894,0.8417969,0.29681396,-0.95928955
1601134234990,895,-0.19726562,0.26190186,-0.024963379
1601134234991,896,-0.84350586,0.99749756,-1.9998169
1601134234996,897,0.6027832,0.7033081,-0.32965088
1601134234996,898,-0.9934082,0.5355835,-1.2693481
1601134234997,899,-0.9934082,0.5355835,-1.2693481
1601134234997,900,-0.84350586,0.99749756,-1.9998169
1601134234997,901,-0.84350586,0.99749756,-1.9998169
1601134234997,902,-0.4736328,0.24749756,-0.08770752
1601134234997,903,-0.9934082,0.5355835,-1.2693481
1601134235007,904,0.6027832,0.7033081,-0.32965088
1601134235008,905,-0.5031738,-0.08673096,-0.21783447
1601134235008,906,-0.25952148,0.14300537,-0.5581665
1601134235008,907,-0.25952148,0.14300537,-0.5581665
1601134235008,908,-0.84350586,0.99749756,-1.9998169
1601134235008,909,-0.8305664,0.6547241,-1.9692993
1601134235008,910,-0.9641113,0.8456421,-1.8276978
1601134235009,911,-0.25952148,0.14300537,-0.5581665
1601134235015,912,-0.12646484,-0.038146973,-0.38653564
1601134235015,913,-0.12646484,-0.038146973,-0.38653564
1601134235016,914,-0.12646484,-0.038146973,-0.38653564
1601134235016,915,-0.5031738,-0.08673096,-0.21783447
1601134235016,916,-0.8293457,0.977478,-1.0527954
1601134235016,917,-0.9641113,0.8456421,-1.8276978
1601134235016,918,-0.47045898,1.1276245,-1.1184692
1601134235036,919,-0.12646484,-0.038146973,-0.38653564
1601134235036,920,-0.9934082,0.5355835,-1.2693481
1601134235036,921,-0.5031738,-0.08673096,-0.21783447
1601134235036,922,-0.5031738,-0.08673096,-0.21783447
1601134235036,923,-0.25952148,0.14300537,-0.5581665
1601134235037,924,-0.47045898,1.1276245,-1.1184692
1601134235037,925,-0.12646484,-0.038146973,-0.38653564
1601134235037,926,0.8417969,0.29681396,-0.95928955
1601134235037,927,-0.5031738,-0.08673096,-0.21783447
1601134235037,928,-0.5031738,-0.08673096,-0.21783447
1601134235037,929,-0.9641113,0.8456421,-1.8276978
1601134235037,930,-0.9641113,0.8456421,-1.8276978
1601134235038,931,-0.9641113,0.8456421,-1.8276978
1601134235038,932,-0.9934082,0.5355835,-1.2693481
1601134235039,933,0.8417969,0.29681396,-0.95928955
1601134235052,934,-0.017578125,0.26019287,-0.67755127
1601134235052,935,-0.9641113,0.8456421,-1.8276978
1601134235052,936,-0.47045898,1.1276245,-1.1184692
1601134235052,937,-0.47045898,1.1276245,-1.1184692
1601134235052,938,-0.47045898,1.1276245,-1.1184692
1601134235052,939,-0.25952148,0.14300537,-0.5581665
1601134235052,940,-0.12646484,-0.038146973,-0.38653564
1601134235052,941,0.7363281,0.109802246,-0.7510376
1601134235052,942,-0.5031738,-0.08673096,-0.21783447
1601134235052,943,0.8417969,0.29681396,-0.95928955
1601134235058,944,0.8417969,0.29681396,-0.95928955
1601134235058,945,-0.47045898,1.1276245,-1.1184692
1601134235059,946,0.8417969,0.29681396,-0.95928955
1601134235059,947,0.6027832,0.7033081,-0.32965088
1601134235059,948,-0.9641113,0.8456421,-1.8276978
1601134235059,949,0.8417969,0.29681396,-0.95928955
1601134235061,950,-0.84350586,0.99749756,-1.9998169
1601134235061,951,-0.9934082,0.5355835,-1.2693481
1601134235064,952,-0.47045898,1.1276245,-1.1184692
1601134235064,953,-0.25952148,0.14300537,-0.5581665
1601134235065,954,0.8417969,0.29681396,-0.95928955
1601134235065,955,-0.12646484,-0.038146973,-0.38653564
1601134235068,956,-0.5031738,-0.08673096,-0.21783447
1601134235069,957,-0.9641113,0.8456421,-1.8276978
1601134235075,958,-0.47045898,1.1276245,-1.1184692
1601134235076,959,0.8417969,0.29681396,-0.95928955
1601134237381,960,0.5812988,0.20428467,-0.27374268
1601134237381,961,0.5812988,0.20428467,-0.27374268
1601134237381,962,0.14916992,0.28582764,-0.87164307
1601134237381,963,0.5812988,0.20428467,-0.27374268
1601134237382,964,0.14916992,0.28582764,-0.87164307
1601134237382,965,0.5812988,0.20428467,-0.27374268
1601134237382,966,-0.6809082,0.77264404,-1.9998169
1601134237383,967,0.5812988,0.20428467,-0.27374268
1601134237384,968,0.5812988,0.20428467,-0.27374268
1601134237384,969,0.5812988,0.20428467,-0.27374268
1601134237384,970,0.5812988,0.20428467,-0.27374268
1601134237384,971,0.14916992,0.28582764,-0.87164307
1601134237384,972,0.5812988,0.20428467,-0.27374268
1601134237385,973,0.14916992,0.28582764,-0.87164307
1601134237385,974,-0.6503906,0.80218506,-0.9692993
1601134237385,975,-0.6809082,0.77264404,-1.9998169
1601134237385,976,-0.6809082,0.77264404,-1.9998169
1601134237385,977,0.5812988,0.20428467,-0.27374268
1601134237385,978,-0.1340332,0.21990967,-0.49517822
1601134237389,979,0.14916992,0.28582764,-0.87164307
1601134237389,980,0.14916992,0.28582764,-0.87164307
1601134237390,981,0.14916992,0.28582764,-0.87164307
1601134237414,982,0.14916992,0.28582764,-0.87164307
1601134237415,983,-0.6809082,0.77264404,-1.9998169
1601134237415,984,-0.30859375,-0.18463135,-0.030090332
1601134237415,985,0.14916992,0.28582764,-0.87164307
1601134237415,986,-0.6503906,0.80218506,-0.9692993
1601134237415,987,-0.6809082,0.77264404,-1.9998169
1601134237415,988,-0.1340332,0.21990967,-0.49517822
1601134237415,989,-0.6809082,0.77264404,-1.9998169
1601134237415,990,-0.6503906,0.80218506,-0.9692993
1601134237415,991,-0.6809082,0.77264404,-1.9998169
1601134237415,992,-0.6503906,0.80218506,-0.9692993
1601134237415,993,-0.6809082,0.77264404,-1.9998169
1601134237415,994,-0.6503906,0.80218506,-0.9692993
1601134237415,995,-0.6503906,0.80218506,-0.9692993
1601134237416,996,-0.6809082,0.77264404,-1.9998169
1601134237416,997,-0.6503906,0.80218506,-0.9692993
1601134237416,998,-0.30859375,-0.18463135,-0.030090332
1601134237416,999,-0.532959,-0.16827393,-0.64263916
1601134237417,1000,-0.6503906,0.80218506,-0.9692993
1601134237417,1001,-0.1340332,0.21990967,-0.49517822
1601134237417,1002,-0.6503906,0.80218506,-0.9692993
1601134237417,1003,-0.30859375,-0.18463135,-0.030090332
1601134237417,1004,-0.532959,-0.16827393,-0.64263916
1601134237418,1005,-1.3239746,0.9887085,-1.9998169
1601134237418,1006,-0.1340332,0.21990967,-0.49517822
1601134237423,1007,-0.30859375,-0.18463135,-0.030090332
1601134237423,1008,-0.1340332,0.21990967,-0.49517822
1601134237423,1009,-1.3239746,0.9887085,-1.9998169
1601134237424,1010,-0.532959,-0.16827393,-0.64263916
1601134237424,1011,0.14916992,0.28582764,-0.87164307
1601134237424,1012,-0.1340332,0.21990967,-0.49517822
1601134237424,1013,-0.1340332,0.21990967,-0.49517822
1601134237424,1014,-0.1340332,0.21990967,-0.49517822
1601134237424,1015,-1.3239746,0.9887085,-1.9998169
1601134237424,1016,-0.1340332,0.21990967,-0.49517822
1601134237426,1017,-0.532959,-0.16827393,-0.64263916
1601134237426,1018,-1.3239746,0.9887085,-1.9998169
1601134237428,1019,-0.30859375,-0.18463135,-0.030090332
1601134237435,1020,-0.36157227,0.8829956,-1.020813
1601134237435,1021,-0.36157227,0.8829956,-1.020813
1601134237436,1022,-0.532959,-0.16827393,-0.64263916
1601134237436,1023,-0.30859375,-0.18463135,-0.030090332
1601134237436,1024,-0.30859375,-0.18463135,-0.030090332
1601134237436,1025,-0.36157227,0.8829956,-1.020813
1601134237436,1026,-0.6809082,0.77264404,-1.9998169
1601134237436,1027,-0.532959,-0.16827393,-0.64263916
1601134237436,1028,0.58374023,0.3456421,-0.7817993
1601134237436,1029,-0.6503906,0.80218506,-0.9692993
1601134237436,1030,0.50219727,0.42303467,-0.3045044
1601134237436,1031,-1.3239746,0.9887085,-1.9998169
1601134237437,1032,0.58374023,0.3456421,-0.7817993
1601134237437,1033,-0.30859375,-0.18463135,-0.030090332
1601134237441,1034,0.35742188,0.1239624,-0.6194458
1601134237441,1035,-0.88720703,1.3634644,-1.9998169
1601134237441,1036,-0.8183594,0.9269409,-1.0684204
1601134237447,1037,-1.3239746,0.9887085,-1.9998169
1601134237447,1038,0.50219727,0.42303467,-0.3045044
1601134237447,1039,-0.1340332,0.21990967,-0.49517822
1601134237448,1040,-0.532959,-0.16827393,-0.64263916
1601134237448,1041,-0.36157227,0.8829956,-1.020813
1601134237448,1042,-0.532959,-0.16827393,-0.64263916
1601134237448,1043,-0.36157227,0.8829956,-1.020813
1601134237448,1044,-0.36157227,0.8829956,-1.020813
1601134237448,1045,0.58374023,0.3456421,-0.7817993
1601134237448,1046,-0.30859375,-0.18463135,-0.030090332
1601134237448,1047,0.50219727,0.42303467,-0.3045044
1601134237449,1048,0.35742188,0.1239624,-0.6194458
1601134237459,1049,-0.30859375,-0.18463135,-0.030090332
1601134237459,1050,0.58374023,0.3456421,-0.7817993
1601134237459,1051,-1.3239746,0.9887085,-1.9998169
1601134237459,1052,-0.532959,-0.16827393,-0.64263916
1601134237460,1053,0.58374023,0.3456421,-0.7817993
1601134237460,1054,0.58374023,0.3456421,-0.7817993
1601134237460,1055,-0.532959,-0.16827393,-0.64263916
1601134237460,1056,0.35742188,0.1239624,-0.6194458
1601134237460,1057,-1.3239746,0.9887085,-1.9998169
1601134237460,1058,-0.88720703,1.3634644,-1.9998169
1601134237460,1059,-0.88720703,1.3634644,-1.9998169
1601134237460,1060,-0.103027344,0.07977295,-0.38653564
1601134237460,1061,0.50219727,0.42303467,-0.3045044
1601134237460,1062,-0.3215332,-0.38433838,-0.1663208
1601134237461,1063,0.35742188,0.1239624,-0.6194458
1601134237461,1064,-0.7583008,0.17010498,-1.0269165
1601134237461,1065,0.50219727,0.42303467,-0.3045044
1601134237461,1066,-0.88720703,1.3634644,-1.9998169
1601134237461,1067,0.50219727,0.42303467,-0.3045044
1601134237461,1068,-0.8183594,0.9269409,-1.0684204
1601134237469,1069,-0.8183594,0.9269409,-1.0684204
1601134237469,1070,-0.36157227,0.8829956,-1.020813
1601134237469,1071,-0.103027344,0.07977295,-0.38653564
1601134237469,1072,-1.6408691,1.3844604,-1.6863403
1601134237469,1073,-1.3239746,0.9887085,-1.9998169
1601134237469,1074,-0.19067383,0.7994995,-1.0410767
1601134237470,1075,-0.3215332,-0.38433838,-0.1663208
1601134237470,1076,0.35742188,0.1239624,-0.6194458
1601134237470,1077,-0.7583008,0.17010498,-1.0269165
1601134237470,1078,0.35742188,0.1239624,-0.6194458
1601134237479,1079,-1.3239746,0.9887085,-1.9998169
1601134237480,1080,0.58374023,0.3456421,-0.7817993
1601134237480,1081,-0.36157227,0.8829956,-1.020813
1601134237480,1082,0.50219727,0.42303467,-0.3045044
1601134237480,1083,0.58374023,0.3456421,-0.7817993
1601134237480,1084,-0.103027344,0.07977295,-0.38653564
1601134237480,1085,0.50219727,0.42303467,-0.3045044
1601134237480,1086,-0.88720703,1.3634644,-1.9998169
1601134237480,1087,-0.88720703,1.3634644,-1.9998169
1601134237481,1088,-0.8183594,0.9269409,-1.0684204
1601134237481,1089,-1.6408691,1.3844604,-1.6863403
1601134237481,1090,-0.36157227,0.8829956,-1.020813
1601134237481,1091,-0.8183594,0.9269409,-1.0684204
1601134237482,1092,0.58374023,0.3456421,-0.7817993
1601134237482,1093,0.35742188,0.1239624,-0.6194458
1601134237482,1094,-0.103027344,0.07977295,-0.38653564
1601134237482,1095,0.88378906,0.085876465,-0.5667114
1601134237482,1096,-0.3215332,-0.38433838,-0.1663208
1601134237482,1097,-0.8183594,0.9269409,-1.0684204
1601134237496,1098,-0.103027344,0.07977295,-0.38653564
1601134237497,1099,-0.19067383,0.7994995,-1.0410767
1601134237497,1100,-0.36157227,0.8829956,-1.020813
1601134237497,1101,-0.88720703,1.3634644,-1.9998169
1601134237497,1102,0.35742188,0.1239624,-0.6194458
1601134237497,1103,-0.3215332,-0.38433838,-0.1663208
1601134237497,1104,0.50219727,0.42303467,-0.3045044
1601134237498,1105,-0.7583008,0.17010498,-1.0269165
1601134237498,1106,-1.6408691,1.3844604,-1.6863403
1601134237498,1107,-0.103027344,0.07977295,-0.38653564
1601134237499,1108,-0.3215332,-0.38433838,-0.1663208
1601134237509,1109,-0.7583008,0.17010498,-1.0269165
1601134237510,1110,-0.7583008,0.17010498,-1.0269165
1601134237510,1111,-1.6408691,1.3844604,-1.6863403
1601134237510,1112,-1.6408691,1.3844604,-1.6863403
1601134237511,1113,-0.8183594,0.9269409,-1.0684204
1601134237511,1114,0.7180176,-0.018127441,-0.29449463
1601134237511,1115,-0.19067383,0.7994995,-1.0410767
1601134237511,1116,-0.3215332,-0.38433838,-0.1663208
1601134237511,1117,0.20507812,0.78118896,-1.6118774
1601134237511,1118,-0.19067383,0.7994995,-1.0410767
1601134237511,1119,-0.984375,0.98846436,-1.9998169
1601134237511,1120,-0.7583008,0.17010498,-1.0269165
1601134237512,1121,0.58374023,0.3456421,-0.7817993
1601134237512,1122,0.88378906,0.085876465,-0.5667114
1601134237512,1123,-0.19067383,0.7994995,-1.0410767
1601134237512,1124,-0.103027344,0.07977295,-0.38653564
1601134237539,1125,0.35742188,0.1239624,-0.6194458
1601134237539,1126,0.88378906,0.085876465,-0.5667114
1601134237540,1127,-1.6408691,1.3844604,-1.6863403
1601134237540,1128,0.88378906,0.085876465,-0.5667114
1601134237540,1129,-0.19067383,0.7994995,-1.0410767
1601134237540,1130,-0.88720703,1.3634644,-1.9998169
1601134237540,1131,0.50219727,0.42303467,-0.3045044
1601134237540,1132,0.7180176,-0.018127441,-0.29449463
1601134237540,1133,-0.6257324,0.4039917,-0.7334595
1601134237540,1134,0.35742188,0.1239624,-0.6194458
1601134237540,1135,-0.88720703,1.3634644,-1.9998169
1601134237540,1136,0.7180176,-0.018127441,-0.29449463
1601134237542,1137,0.20507812,0.78118896,-1.6118774
1601134237543,1138,0.88378906,0.085876465,-0.5667114
1601134237543,1139,-0.3215332,-0.38433838,-0.1663208
1601134237543,1140,0.7180176,-0.018127441,-0.29449463
1601134237543,1141,0.7180176,-0.018127441,-0.29449463
1601134237543,1142,-0.8183594,0.9269409,-1.0684204
1601134237543,1143,-0.5437012,-0.1416626,-0.1897583
1601134237543,1144,0.20507812,0.78118896,-1.6118774
1601134237543,1145,-0.8183594,0.9269409,-1.0684204
1601134237544,1146,-0.984375,0.98846436,-1.9998169
1601134237544,1147,0.20507812,0.78118896,-1.6118774
1601134237544,1148,-0.6257324,0.4039917,-0.7334595
1601134237544,1149,-0.7583008,0.17010498,-1.0269165
1601134237544,1150,-0.5437012,-0.1416626,-0.1897583
1601134237544,1151,-0.88720703,1.3634644,-1.9998169
1601134237544,1152,-1.6408691,1.3844604,-1.6863403
1601134237546,1153,0.88378906,0.085876465,-0.5667114
1601134237547,1154,-0.103027344,0.07977295,-0.38653564
1601134237547,1155,-0.103027344,0.07977295,-0.38653564
1601134237547,1156,-0.3215332,-0.38433838,-0.1663208
1601134237547,1157,-0.984375,0.98846436,-1.9998169
1601134237547,1158,0.20507812,0.78118896,-1.6118774
1601134237547,1159,-0.7583008,0.17010498,-1.0269165
1601134237547,1160,-0.8183594,0.9269409,-1.0684204
1601134237547,1161,-1.6408691,1.3844604,-1.6863403
1601134237547,1162,-0.103027344,0.07977295,-0.38653564
1601134237548,1163,-0.19067383,0.7994995,-1.0410767
1601134237548,1164,-0.3215332,-0.38433838,-0.1663208
1601134237548,1165,0.7180176,-0.018127441,-0.29449463
1601134237548,1166,0.88378906,0.085876465,-0.5667114
1601134237548,1167,-0.3215332,-0.38433838,-0.1663208
1601134237549,1168,-0.6257324,0.4039917,-0.7334595
1601134237549,1169,0.7180176,-0.018127441,-0.29449463
1601134237549,1170,-0.7583008,0.17010498,-1.0269165
1601134237549,1171,-0.5437012,-0.1416626,-0.1897583
1601134237549,1172,-1.6408691,1.3844604,-1.6863403
1601134237549,1173,-0.984375,0.98846436,-1.9998169
1601134237550,1174,-0.6308594,-0.2288208,-0.07232666
1601134237550,1175,-0.984375,0.98846436,-1.9998169
1601134237563,1176,-1.1779785,0.57366943,-1.9998169
1601134237563,1177,-0.6308594,-0.2288208,-0.07232666
1601134237563,1178,-0.7583008,0.17010498,-1.0269165
1601134237563,1179,-0.19067383,0.7994995,-1.0410767
1601134237563,1180,0.20507812,0.78118896,-1.6118774
1601134237563,1181,-0.6257324,0.4039917,-0.7334595
1601134237563,1182,0.20507812,0.78118896,-1.6118774
1601134237563,1183,-0.6308594,-0.2288208,-0.07232666
1601134237564,1184,-0.984375,0.98846436,-1.9998169
1601134237565,1185,-0.6257324,0.4039917,-0.7334595
1601134237565,1186,-1.1779785,0.57366943,-1.9998169
1601134237565,1187,-0.19067383,0.7994995,-1.0410767
1601134237565,1188,-1.6408691,1.3844604,-1.6863403
1601134237566,1189,-1.1779785,0.57366943,-1.9998169
1601134237566,1190,0.88378906,0.085876465,-0.5667114
1601134237566,1191,-0.984375,0.98846436,-1.9998169
1601134237566,1192,-0.5437012,-0.1416626,-0.1897583
1601134237566,1193,-0.6257324,0.4039917,-0.7334595
1601134237566,1194,-0.5437012,-0.1416626,-0.1897583
1601134237581,1195,-1.1782227,1.7582397,-0.8945923
1601134237582,1196,-1.1782227,1.7582397,-0.8945923
1601134237582,1197,-1.1782227,1.7582397,-0.8945923
1601134237582,1198,0.88378906,0.085876465,-0.5667114
1601134237582,1199,-0.19067383,0.7994995,-1.0410767
1601134237582,1200,0.7180176,-0.018127441,-0.29449463
1601134237582,1201,-0.6257324,0.4039917,-0.7334595
1601134237582,1202,-0.5437012,-0.1416626,-0.1897583
1601134237582,1203,-0.6308594,-0.2288208,-0.07232666
1601134237582,1204,0.88378906,0.085876465,-0.5667114
1601134237584,1205,0.20507812,0.78118896,-1.6118774
1601134237585,1206,0.049072266,0.42938232,-1.2576294
1601134237585,1207,0.049072266,0.42938232,-1.2576294
1601134237601,1208,-0.6308594,-0.2288208,-0.07232666
1601134237601,1209,0.7180176,-0.018127441,-0.29449463
1601134237601,1210,-1.1779785,0.57366943,-1.9998169
1601134237601,1211,0.049072266,0.42938232,-1.2576294
1601134237601,1212,0.20507812,0.78118896,-1.6118774
1601134237601,1213,-0.6308594,-0.2288208,-0.07232666
1601134237601,1214,-0.984375,0.98846436,-1.9998169
1601134237602,1215,0.7180176,-0.018127441,-0.29449463
1601134237602,1216,0.51904297,0.06463623,-0.52130127
1601134237602,1217,0.51904297,0.06463623,-0.52130127
1601134237602,1218,0.20507812,0.78118896,-1.6118774
1601134237602,1219,-1.1779785,0.57366943,-1.9998169
1601134237602,1220,-0.5437012,-0.1416626,-0.1897583
1601134237602,1221,-1.1782227,1.7582397,-0.8945923
1601134237602,1222,-0.984375,0.98846436,-1.9998169
1601134237602,1223,0.049072266,0.42938232,-1.2576294
1601134237603,1224,-1.1779785,0.57366943,-1.9998169
1601134237603,1225,0.51904297,0.06463623,-0.52130127
1601134237603,1226,0.49291992,0.07513428,-0.3508911
1601134237625,1227,0.49291992,0.07513428,-0.3508911
1601134237625,1228,-0.984375,0.98846436,-1.9998169
1601134237625,1229,0.49291992,0.07513428,-0.3508911
1601134237625,1230,-1.1782227,1.7582397,-0.8945923
1601134237625,1231,-0.6257324,0.4039917,-0.7334595
1601134237625,1232,-0.6257324,0.4039917,-0.7334595
1601134237625,1233,-0.5437012,-0.1416626,-0.1897583
1601134237626,1234,-0.5437012,-0.1416626,-0.1897583
1601134237626,1235,-0.6308594,-0.2288208,-0.07232666
1601134237626,1236,0.51904297,0.06463623,-0.52130127
1601134237626,1237,-1.1779785,0.57366943,-1.9998169
1601134237626,1238,0.3515625,0.79730225,-1.7295532
1601134237626,1239,-1.1782227,1.7582397,-0.8945923
1601134237626,1240,0.3515625,0.79730225,-1.7295532
1601134237626,1241,-0.6257324,0.4039917,-0.7334595
1601134237626,1242,-1.1782227,1.7582397,-0.8945923
1601134237626,1243,-0.6308594,-0.2288208,-0.07232666
1601134237626,1244,0.3515625,0.79730225,-1.7295532
1601134237626,1245,-0.6308594,-0.2288208,-0.07232666
1601134237626,1246,0.049072266,0.42938232,-1.2576294
1601134237627,1247,0.49291992,0.07513428,-0.3508911
1601134237627,1248,0.049072266,0.42938232,-1.2576294
1601134237627,1249,-1.1779785,0.57366943,-1.9998169
1601134237627,1250,-0.5437012,-0.1416626,-0.1897583
1601134237632,1251,-1.1779785,0.57366943,-1.9998169
1601134237633,1252,0.049072266,0.42938232,-1.2576294
1601134237633,1253,0.51904297,0.06463623,-0.52130127
1601134237633,1254,-1.1782227,1.7582397,-0.8945923
1601134237633,1255,0.51904297,0.06463623,-0.52130127
1601134237633,1256,0.049072266,0.42938232,-1.2576294
1601134237633,1257,-0.6308594,-0.2288208,-0.07232666
1601134237634,1258,0.51904297,0.06463623,-0.52130127
1601134237639,1259,-1.1782227,1.7582397,-0.8945923
1601134237639,1260,0.49291992,0.07513428,-0.3508911
1601134237639,1261,0.49291992,0.07513428,-0.3508911
1601134237639,1262,0.51904297,0.06463623,-0.52130127
1601134237639,1263,-1.1779785,0.57366943,-1.9998169
1601134237640,1264,0.3515625,0.79730225,-1.7295532
1601134237640,1265,0.49291992,0.07513428,-0.3508911
1601134237640,1266,0.3515625,0.79730225,-1.7295532
1601134237641,1267,0.49291992,0.07513428,-0.3508911
1601134237645,1268,-1.1782227,1.7582397,-0.8945923
1601134237645,1269,0.3515625,0.79730225,-1.7295532
1601134237646,1270,0.3515625,0.79730225,-1.7295532
1601134237646,1271,0.049072266,0.42938232,-1.2576294
1601134237648,1272,0.3515625,0.79730225,-1.7295532
1601134237649,1273,0.51904297,0.06463623,-0.52130127
1601134237651,1274,0.49291992,0.07513428,-0.3508911
1601134237653,1275,0.049072266,0.42938232,-1.2576294
1601134237653,1276,0.3515625,0.79730225,-1.7295532
1601134237654,1277,0.51904297,0.06463623,-0.52130127
1601134237656,1278,0.49291992,0.07513428,-0.3508911
1601134237656,1279,0.3515625,0.79730225,-1.7295532
1601134239898,1280,-1.0959473,1.4640503,-1.9998169
1601134239899,1281,-1.0959473,1.4640503,-1.9998169
1601134239900,1282,-1.0373535,0.15252686,-0.769104
1601134239902,1283,-1.0959473,1.4640503,-1.9998169
1601134239902,1284,-1.0373535,0.15252686,-0.769104
1601134239906,1285,-1.0959473,1.4640503,-1.9998169
1601134239907,1286,-1.0959473,1.4640503,-1.9998169
1601134239907,1287,-1.0959473,1.4640503,-1.9998169
1601134239908,1288,-1.0373535,0.15252686,-0.769104
1601134239908,1289,-0.98291016,0.14056396,0.012634277
1601134239908,1290,-1.0373535,0.15252686,-0.769104
1601134239908,1291,-1.0959473,1.4640503,-1.9998169
1601134239908,1292,-0.98291016,0.14056396,0.012634277
1601134239908,1293,-1.0373535,0.15252686,-0.769104
1601134239908,1294,-0.71655273,-0.206604,0.06781006
1601134239927,1295,-1.0373535,0.15252686,-0.769104
1601134239928,1296,-0.98291016,0.14056396,0.012634277
1601134239928,1297,-1.0959473,1.4640503,-1.9998169
1601134239928,1298,-0.98291016,0.14056396,0.012634277
1601134239928,1299,-0.98291016,0.14056396,0.012634277
1601134239928,1300,-0.71655273,-0.206604,0.06781006
1601134239928,1301,-1.0959473,1.4640503,-1.9998169
1601134239929,1302,-1.0959473,1.4640503,-1.9998169
1601134239929,1303,-0.98291016,0.14056396,0.012634277
1601134239930,1304,-0.9711914,0.7665405,-1.4863892
1601134239930,1305,-1.0373535,0.15252686,-0.769104
1601134239930,1306,-0.9711914,0.7665405,-1.4863892
1601134239930,1307,-1.0373535,0.15252686,-0.769104
1601134239930,1308,-0.71655273,-0.206604,0.06781006
1601134239930,1309,-1.0373535,0.15252686,-0.769104
1601134239930,1310,-0.98291016,0.14056396,0.012634277
1601134239930,1311,-0.71655273,-0.206604,0.06781006
1601134239930,1312,-0.71655273,-0.206604,0.06781006
1601134239933,1313,-0.9711914,0.7665405,-1.4863892
1601134239933,1314,-1.036377,1.3961792,-1.3201294
1601134239934,1315,-0.9711914,0.7665405,-1.4863892
1601134239934,1316,-1.0373535,0.15252686,-0.769104
1601134239934,1317,-1.036377,1.3961792,-1.3201294
1601134239934,1318,-0.71655273,-0.206604,0.06781006
1601134239934,1319,-0.072265625,0.638855,-1.0193481
1601134239934,1320,-0.9711914,0.7665405,-1.4863892
1601134239934,1321,0.4501953,0.215271,-0.51446533
1601134239934,1322,-0.98291016,0.14056396,0.012634277
1601134239935,1323,-1.036377,1.3961792,-1.3201294
1601134239937,1324,-1.036377,1.3961792,-1.3201294
1601134239937,1325,-0.072265625,0.638855,-1.0193481
1601134239937,1326,-0.98291016,0.14056396,0.012634277
1601134239938,1327,-0.71655273,-0.206604,0.06781006
1601134239938,1328,0.4501953,0.215271,-0.51446533
1601134239938,1329,-0.072265625,0.638855,-1.0193481
1601134239938,1330,-0.71655273,-0.206604,0.06781006
1601134239938,1331,0.45898438,0.20452881,-0.32476807
1601134239939,1332,-0.9711914,0.7665405,-1.4863892
1601134239939,1333,0.08300781,0.93792725,-1.5899048
1601134239939,1334,-0.7390137,1.178894,-1.7271118
1601134239939,1335,-0.9711914,0.7665405,-1.4863892
1601134239944,1336,-1.036377,1.3961792,-1.3201294
1601134239945,1337,-1.036377,1.3961792,-1.3201294
1601134239945,1338,0.45898438,0.20452881,-0.32476807
1601134239945,1339,-0.98291016,0.14056396,0.012634277
1601134239945,1340,-0.072265625,0.638855,-1.0193481
1601134239945,1341,-0.9711914,0.7665405,-1.4863892
1601134239945,1342,0.4501953,0.215271,-0.51446533
1601134239945,1343,-0.61938477,0.307312,-0.7197876
1601134239945,1344,-0.71655273,-0.206604,0.06781006
1601134239945,1345,0.45898438,0.20452881,-0.32476807
1601134239946,1346,-1.036377,1.3961792,-1.3201294
1601134239946,1347,-0.072265625,0.638855,-1.0193481
1601134239946,1348,0.08300781,0.93792725,-1.5899048
1601134239946,1349,-0.71655273,-0.206604,0.06781006
1601134239946,1350,0.4501953,0.215271,-0.51446533
1601134239946,1351,0.4501953,0.215271,-0.51446533
1601134239946,1352,-0.7390137,1.178894,-1.7271118
1601134239946,1353,-1.036377,1.3961792,-1.3201294
1601134239947,1354,-0.9711914,0.7665405,-1.4863892
1601134239947,1355,-0.072265625,0.638855,-1.0193481
1601134239948,1356,0.45898438,0.20452881,-0.32476807
1601134239954,1357,-0.9711914,0.7665405,-1.4863892
1601134239954,1358,-0.46362305,0.0993042,-0.2732544
1601134239954,1359,-0.072265625,0.638855,-1.0193481
1601134239954,1360,-0.072265625,0.638855,-1.0193481
1601134239955,1361,0.45898438,0.20452881,-0.32476807
1601134239955,1362,0.4501953,0.215271,-0.51446533
1601134239955,1363,-1.036377,1.3961792,-1.3201294
1601134239955,1364,0.4501953,0.215271,-0.51446533
1601134239955,1365,-0.61938477,0.307312,-0.7197876
1601134239962,1366,0.08300781,0.93792725,-1.5899048
1601134239963,1367,-1.036377,1.3961792,-1.3201294
1601134239963,1368,-0.6035156,0.09539795,-0.074035645
1601134239963,1369,0.08300781,0.93792725,-1.5899048
1601134239963,1370,0.4501953,0.215271,-0.51446533
1601134239963,1371,-0.7390137,1.178894,-1.7271118
1601134239963,1372,-0.072265625,0.638855,-1.0193481
1601134239963,1373,0.45898438,0.20452881,-0.32476807
1601134239963,1374,0.45898438,0.20452881,-0.32476807
1601134239964,1375,-0.46362305,0.0993042,-0.2732544
1601134239964,1376,0.08300781,0.93792725,-1.5899048
1601134239977,1377,-0.072265625,0.638855,-1.0193481
1601134239977,1378,0.08300781,0.93792725,-1.5899048
1601134239977,1379,-1.1601562,0.44110107,-1.3147583
1601134239978,1380,-0.61938477,0.307312,-0.7197876
1601134239978,1381,0.45898438,0.20452881,-0.32476807
1601134239978,1382,0.4501953,0.215271,-0.51446533
1601134239978,1383,0.08300781,0.93792725,-1.5899048
1601134239978,1384,0.45898438,0.20452881,-0.32476807
1601134239978,1385,-0.7390137,1.178894,-1.7271118
1601134239978,1386,-0.7390137,1.178894,-1.7271118
1601134239978,1387,0.08300781,0.93792725,-1.5899048
1601134239982,1388,-0.8815918,1.2401733,-1.3423462
1601134239992,1389,-0.072509766,0.81048584,-1.085022
1601134239992,1390,0.39282227,0.29925537,-0.4397583
1601134239992,1391,-0.7390137,1.178894,-1.7271118
1601134239992,1392,-0.61938477,0.307312,-0.7197876
1601134239993,1393,-0.61938477,0.307312,-0.7197876
1601134239993,1394,0.4501953,0.215271,-0.51446533
1601134239993,1395,-0.7390137,1.178894,-1.7271118
1601134239993,1396,-0.7390137,1.178894,-1.7271118
1601134239993,1397,-0.46362305,0.0993042,-0.2732544
1601134239993,1398,-0.61938477,0.307312,-0.7197876
1601134239993,1399,0.45898438,0.20452881,-0.32476807
1601134239993,1400,0.08300781,0.93792725,-1.5899048
1601134239994,1401,-0.46362305,0.0993042,-0.2732544
1601134240003,1402,-0.46362305,0.0993042,-0.2732544
1601134240003,1403,-0.61938477,0.307312,-0.7197876
1601134240003,1404,-0.6035156,0.09539795,-0.074035645
1601134240003,1405,-0.6035156,0.09539795,-0.074035645
1601134240003,1406,0.08300781,0.93792725,-1.5899048
1601134240003,1407,0.37280273,0.37664795,-0.2498169
1601134240004,1408,-0.7390137,1.178894,-1.7271118
1601134240004,1409,-1.1601562,0.44110107,-1.3147583
1601134240004,1410,-0.61938477,0.307312,-0.7197876
1601134240004,1411,-0.46362305,0.0993042,-0.2732544
1601134240004,1412,-1.1601562,0.44110107,-1.3147583
1601134240006,1413,-0.6035156,0.09539795,-0.074035645
1601134240020,1414,-0.8815918,1.2401733,-1.3423462
1601134240020,1415,-1.1601562,0.44110107,-1.3147583
1601134240020,1416,-0.09350586,1.4747925,-1.7227173
1601134240021,1417,-0.8815918,1.2401733,-1.3423462
1601134240021,1418,-1.1315918,0.9945679,-1.7578735
1601134240021,1419,-0.46362305,0.0993042,-0.2732544
1601134240021,1420,-0.50512695,0.15447998,-0.5828247
1601134240022,1421,-0.8815918,1.2401733,-1.3423462
1601134240023,1422,-0.25683594,0.020446777,-0.175354
1601134240023,1423,-0.7390137,1.178894,-1.7271118
1601134240023,1424,-0.6035156,0.09539795,-0.074035645
1601134240023,1425,-0.072509766,0.81048584,-1.085022
1601134240023,1426,-0.33666992,-0.08404541,-0.11090088
1601134240023,1427,-0.6035156,0.09539795,-0.074035645
1601134240023,1428,-0.61938477,0.307312,-0.7197876
1601134240023,1429,-1.1601562,0.44110107,-1.3147583
1601134240024,1430,-0.072509766,0.81048584,-1.085022
1601134240024,1431,-0.8815918,1.2401733,-1.3423462
1601134240024,1432,0.39282227,0.29925537,-0.4397583
1601134240024,1433,-0.072509766,0.81048584,-1.085022
1601134240024,1434,0.37280273,0.37664795,-0.2498169
1601134240024,1435,-0.46362305,0.0993042,-0.2732544
1601134240024,1436,0.39282227,0.29925537,-0.4397583
1601134240025,1437,-0.09350586,1.4747925,-1.7227173
1601134240025,1438,-0.6035156,0.09539795,-0.074035645
1601134240026,1439,-1.1601562,0.44110107,-1.3147583
1601134240026,1440,-1.1315918,0.9945679,-1.7578735
1601134240026,1441,-1.1601562,0.44110107,-1.3147583
1601134240026,1442,-0.86035156,0.8439331,-1.8433228
1601134240026,1443,0.39282227,0.29925537,-0.4397583
1601134240026,1444,0.37280273,0.37664795,-0.2498169
1601134240043,1445,0.37280273,0.37664795,-0.2498169
1601134240043,1446,-0.50512695,0.15447998,-0.5828247
1601134240044,1447,-0.8815918,1.2401733,-1.3423462
1601134240044,1448,-0.61938477,0.307312,-0.7197876
1601134240044,1449,-0.09350586,1.4747925,-1.7227173
1601134240044,1450,-0.92285156,1.3378296,-0.8804321
1601134240044,1451,-0.46362305,0.0993042,-0.2732544
1601134240044,1452,-0.6035156,0.09539795,-0.074035645
1601134240044,1453,-0.09350586,1.4747925,-1.7227173
1601134240045,1454,-0.072509766,0.81048584,-1.085022
1601134240045,1455,-0.23779297,1.0800171,-0.9714966
1601134240045,1456,-0.25683594,0.020446777,-0.175354
1601134240045,1457,-0.8815918,1.2401733,-1.3423462
1601134240045,1458,-0.072509766,0.81048584,-1.085022
1601134240045,1459,-1.1601562,0.44110107,-1.3147583
1601134240045,1460,0.23168945,0.6141968,-0.3579712
1601134240045,1461,-0.8815918,1.2401733,-1.3423462
1601134240045,1462,0.39282227,0.29925537,-0.4397583
1601134240046,1463,-0.072509766,0.81048584,-1.085022
1601134240046,1464,-0.33666992,-0.08404541,-0.11090088
1601134240046,1465,0.39282227,0.29925537,-0.4397583
1601134240046,1466,0.37280273,0.37664795,-0.2498169
1601134240046,1467,-0.86035156,0.8439331,-1.8433228
1601134240047,1468,-1.1315918,0.9945679,-1.7578735
1601134240047,1469,-0.92285156,1.3378296,-0.8804321
1601134240047,1470,0.56103516,0.17108154,-0.15509033
1601134240055,1471,-0.6035156,0.09539795,-0.074035645
1601134240055,1472,-0.46362305,0.0993042,-0.2732544
1601134240056,1473,-0.072509766,0.81048584,-1.085022
1601134240056,1474,-0.6035156,0.09539795,-0.074035645
1601134240056,1475,0.37280273,0.37664795,-0.2498169
1601134240057,1476,0.39282227,0.29925537,-0.4397583
1601134240057,1477,-1.1601562,0.44110107,-1.3147583
1601134240057,1478,-1.1315918,0.9945679,-1.7578735
1601134240057,1479,-0.50512695,0.15447998,-0.5828247
1601134240057,1480,0.5058594,0.40863037,-0.8062134
1601134240059,1481,-1.1601562,0.44110107,-1.3147583
1601134240085,1482,-0.09350586,1.4747925,-1.7227173
1601134240085,1483,-0.8815918,1.2401733,-1.3423462
1601134240086,1484,-1.1315918,0.9945679,-1.7578735
1601134240086,1485,-0.072509766,0.81048584,-1.085022
1601134240086,1486,-0.23779297,1.0800171,-0.9714966
1601134240086,1487,-0.25683594,0.020446777,-0.175354
1601134240086,1488,-0.50512695,0.15447998,-0.5828247
1601134240086,1489,-0.33666992,-0.08404541,-0.11090088
1601134240087,1490,-0.7219238,1.0390015,-1.6775513
1601134240087,1491,-0.86035156,0.8439331,-1.8433228
1601134240087,1492,0.39282227,0.29925537,-0.4397583
1601134240087,1493,-0.92285156,1.3378296,-0.8804321
1601134240088,1494,-0.50512695,0.15447998,-0.5828247
1601134240088,1495,0.39282227,0.29925537,-0.4397583
1601134240088,1496,-0.8815918,1.2401733,-1.3423462
1601134240088,1497,-0.25683594,0.020446777,-0.175354
1601134240088,1498,-0.072509766,0.81048584,-1.085022
1601134240089,1499,-0.25683594,0.020446777,-0.175354
1601134240089,1500,0.23168945,0.6141968,-0.3579712
1601134240089,1501,-0.9172363,1.321228,-0.5718384
1601134240089,1502,-0.23779297,1.0800171,-0.9714966
1601134240091,1503,0.37280273,0.37664795,-0.2498169
1601134240091,1504,0.37280273,0.37664795,-0.2498169
1601134240091,1505,0.23168945,0.6141968,-0.3579712
1601134240091,1506,-0.33666992,-0.08404541,-0.11090088
1601134240091,1507,-0.09350586,1.4747925,-1.7227173
1601134240091,1508,-0.09350586,1.4747925,-1.7227173
1601134240091,1509,-0.86035156,0.8439331,-1.8433228
1601134240091,1510,0.39282227,0.29925537,-0.4397583
1601134240092,1511,0.56103516,0.17108154,-0.15509033
1601134240092,1512,-0.92285156,1.3378296,-0.8804321
1601134240092,1513,0.5058594,0.40863037,-0.8062134
1601134240092,1514,-0.09350586,1.4747925,-1.7227173
1601134240092,1515,0.37280273,0.37664795,-0.2498169
1601134240092,1516,0.56103516,0.17108154,-0.15509033
1601134240092,1517,-1.1315918,0.9945679,-1.7578735
1601134240092,1518,0.5058594,0.40863037,-0.8062134
1601134240092,1519,-0.09350586,1.4747925,-1.7227173
1601134240092,1520,0.37280273,0.37664795,-0.2498169
1601134240092,1521,-0.50512695,0.15447998,-0.5828247
1601134240093,1522,-0.09350586,1.4747925,-1.7227173
1601134240093,1523,-1.1315918,0.9945679,-1.7578735
1601134240093,1524,-0.7219238,1.0390015,-1.6775513
1601134240093,1525,-1.1315918,0.9945679,-1.7578735
1601134240097,1526,-0.23779297,1.0800171,-0.9714966
1601134240097,1527,0.23168945,0.6141968,-0.3579712
1601134240098,1528,-0.33666992,-0.08404541,-0.11090088
1601134240107,1529,-0.50512695,0.15447998,-0.5828247
1601134240107,1530,-0.50512695,0.15447998,-0.5828247
1601134240107,1531,-1.1315918,0.9945679,-1.7578735
1601134240107,1532,-0.25683594,0.020446777,-0.175354
1601134240107,1533,-0.7219238,1.0390015,-1.6775513
1601134240107,1534,-1.1315918,0.9945679,-1.7578735
1601134240107,1535,-0.9172363,1.321228,-0.5718384
1601134240107,1536,0.56103516,0.17108154,-0.15509033
1601134240107,1537,-0.50512695,0.15447998,-0.5828247
1601134240116,1538,0.5058594,0.40863037,-0.8062134
1601134240116,1539,-0.25683594,0.020446777,-0.175354
1601134240116,1540,-0.50512695,0.15447998,-0.5828247
1601134240116,1541,-0.33666992,-0.08404541,-0.11090088
1601134240116,1542,-0.9172363,1.321228,-0.5718384
1601134240116,1543,-0.86035156,0.8439331,-1.8433228
1601134240117,1544,-0.92285156,1.3378296,-0.8804321
1601134240118,1545,-0.25683594,0.020446777,-0.175354
1601134240118,1546,-0.23779297,1.0800171,-0.9714966
1601134240118,1547,-0.7219238,1.0390015,-1.6775513
1601134240118,1548,-0.33666992,-0.08404541,-0.11090088
1601134240118,1549,-0.86035156,0.8439331,-1.8433228
1601134240118,1550,-0.86035156,0.8439331,-1.8433228
1601134240126,1551,-0.25683594,0.020446777,-0.175354
1601134240126,1552,-0.33666992,-0.08404541,-0.11090088
1601134240127,1553,-0.25683594,0.020446777,-0.175354
1601134240127,1554,-0.9172363,1.321228,-0.5718384
1601134240127,1555,-0.92285156,1.3378296,-0.8804321
1601134240127,1556,-0.86035156,0.8439331,-1.8433228
1601134240128,1557,-0.33666992,-0.08404541,-0.11090088
1601134240139,1558,-0.92285156,1.3378296,-0.8804321
1601134240140,1559,-0.33666992,-0.08404541,-0.11090088
1601134240140,1560,-0.23779297,1.0800171,-0.9714966
1601134240140,1561,-0.92285156,1.3378296,-0.8804321
1601134240140,1562,-0.23779297,1.0800171,-0.9714966
1601134240140,1563,0.23168945,0.6141968,-0.3579712
1601134240140,1564,-0.86035156,0.8439331,-1.8433228
1601134240141,1565,-0.23779297,1.0800171,-0.9714966
1601134240141,1566,0.23168945,0.6141968,-0.3579712
1601134240141,1567,0.23168945,0.6141968,-0.3579712
1601134240141,1568,0.56103516,0.17108154,-0.15509033
1601134240141,1569,0.56103516,0.17108154,-0.15509033
1601134240144,1570,0.5058594,0.40863037,-0.8062134
1601134240144,1571,0.5058594,0.40863037,-0.8062134
1601134240144,1572,-0.86035156,0.8439331,-1.8433228
1601134240145,1573,-0.7219238,1.0390015,-1.6775513
1601134240145,1574,-0.92285156,1.3378296,-0.8804321
1601134240145,1575,-0.9172363,1.321228,-0.5718384
1601134240145,1576,-0.23779297,1.0800171,-0.9714966
1601134240145,1577,0.23168945,0.6141968,-0.3579712
1601134240145,1578,-0.7219238,1.0390015,-1.6775513
1601134240145,1579,0.56103516,0.17108154,-0.15509033
1601134240145,1580,-0.9172363,1.321228,-0.5718384
1601134240145,1581,0.23168945,0.6141968,-0.3579712
1601134240145,1582,0.5058594,0.40863037,-0.8062134
1601134240148,1583,0.56103516,0.17108154,-0.15509033
1601134240154,1584,0.56103516,0.17108154,-0.15509033
1601134240154,1585,-0.92285156,1.3378296,-0.8804321
1601134240154,1586,0.5058594,0.40863037,-0.8062134
1601134240155,1587,-0.23779297,1.0800171,-0.9714966
1601134240155,1588,0.5058594,0.40863037,-0.8062134
1601134240155,1589,-0.7219238,1.0390015,-1.6775513
1601134240155,1590,-0.7219238,1.0390015,-1.6775513
1601134240157,1591,0.23168945,0.6141968,-0.3579712
1601134240157,1592,-0.9172363,1.321228,-0.5718384
1601134240157,1593,-0.7219238,1.0390015,-1.6775513
1601134240163,1594,0.56103516,0.17108154,-0.15509033
1601134240163,1595,-0.9172363,1.321228,-0.5718384
1601134240163,1596,0.5058594,0.40863037,-0.8062134
1601134240163,1597,-0.9172363,1.321228,-0.5718384
1601134240163,1598,-0.7219238,1.0390015,-1.6775513
1601134240164,1599,-0.9172363,1.321228,-0.5718384
1601134242471,1600,-0.36645508,0.68573,-0.19317627
1601134242471,1601,-0.36645508,0.68573,-0.19317627
1601134242471,1602,-0.36645508,0.68573,-0.19317627
1601134242471,1603,-0.36645508,0.68573,-0.19317627
1601134242471,1604,-0.36645508,0.68573,-0.19317627
1601134242473,1605,-0.19506836,-0.04498291,-0.38189697
1601134242473,1606,-0.36645508,0.68573,-0.19317627
1601134242473,1607,-0.36645508,0.68573,-0.19317627
1601134242473,1608,-0.7133789,-0.41192627,-0.70635986
1601134242473,1609,-0.19506836,-0.04498291,-0.38189697
1601134242473,1610,-0.19506836,-0.04498291,-0.38189697
1601134242473,1611,-0.36645508,0.68573,-0.19317627
1601134242474,1612,-0.19506836,-0.04498291,-0.38189697
1601134242474,1613,-0.19506836,-0.04498291,-0.38189697
1601134242474,1614,-0.19506836,-0.04498291,-0.38189697
1601134242474,1615,-0.19506836,-0.04498291,-0.38189697
1601134242474,1616,-0.36645508,0.68573,-0.19317627
1601134242474,1617,-0.7133789,-0.41192627,-0.70635986
1601134242474,1618,-0.36645508,0.68573,-0.19317627
1601134242474,1619,-0.19506836,-0.04498291,-0.38189697
1601134242474,1620,-1.7414551,1.5941772,-1.2578735
1601134242475,1621,-0.19506836,-0.04498291,-0.38189697
1601134242475,1622,-0.7133789,-0.41192627,-0.70635986
1601134242475,1623,-0.7133789,-0.41192627,-0.70635986
1601134242475,1624,-0.80859375,1.5267944,-0.6487427
1601134242475,1625,-1.7414551,1.5941772,-1.2578735
1601134242477,1626,-0.19506836,-0.04498291,-0.38189697
1601134242477,1627,-0.7133789,-0.41192627,-0.70635986
1601134242477,1628,-0.7133789,-0.41192627,-0.70635986
1601134242477,1629,-1.7414551,1.5941772,-1.2578735
1601134242477,1630,-0.7133789,-0.41192627,-0.70635986
1601134242477,1631,-0.7133789,-0.41192627,-0.70635986
1601134242477,1632,0.3544922,0.5145874,-0.61920166
1601134242477,1633,-1.7414551,1.5941772,-1.2578735
1601134242478,1634,-0.7133789,-0.41192627,-0.70635986
1601134242478,1635,-1.7414551,1.5941772,-1.2578735
1601134242478,1636,-0.80859375,1.5267944,-0.6487427
1601134242487,1637,-0.7133789,-0.41192627,-0.70635986
1601134242488,1638,-1.7414551,1.5941772,-1.2578735
1601134242488,1639,-0.80859375,1.5267944,-0.6487427
1601134242488,1640,-1.7414551,1.5941772,-1.2578735
1601134242488,1641,-0.80859375,1.5267944,-0.6487427
1601134242488,1642,0.49536133,0.21160889,-0.33355713
1601134242489,1643,-0.80859375,1.5267944,-0.6487427
1601134242489,1644,-0.80859375,1.5267944,-0.6487427
1601134242489,1645,0.3544922,0.5145874,-0.61920166
1601134242489,1646,0.3544922,0.5145874,-0.61920166
1601134242498,1647,-1.7414551,1.5941772,-1.2578735
1601134242500,1648,-1.7414551,1.5941772,-1.2578735
1601134242500,1649,0.3544922,0.5145874,-0.61920166
1601134242500,1650,-0.80859375,1.5267944,-0.6487427
1601134242500,1651,0.3544922,0.5145874,-0.61920166
1601134242500,1652,0.20776367,0.35321045,-0.39752197
1601134242500,1653,-1.7414551,1.5941772,-1.2578735
1601134242500,1654,-0.6467285,1.8251343,-1.6367798
1601134242500,1655,0.3544922,0.5145874,-0.61920166
1601134242500,1656,-0.80859375,1.5267944,-0.6487427
1601134242500,1657,-0.80859375,1.5267944,-0.6487427
1601134242508,1658,0.49536133,0.21160889,-0.33355713
1601134242508,1659,0.3544922,0.5145874,-0.61920166
1601134242509,1660,0.49536133,0.21160889,-0.33355713
1601134242509,1661,-0.78125,1.1862183,-0.76446533
1601134242509,1662,0.49536133,0.21160889,-0.33355713
1601134242510,1663,0.49536133,0.21160889,-0.33355713
1601134242510,1664,0.20776367,0.35321045,-0.39752197
1601134242510,1665,0.49536133,0.21160889,-0.33355713
1601134242510,1666,-0.6467285,1.8251343,-1.6367798
1601134242510,1667,0.3544922,0.5145874,-0.61920166
1601134242526,1668,0.20776367,0.35321045,-0.39752197
1601134242527,1669,0.49536133,0.21160889,-0.33355713
1601134242529,1670,0.3544922,0.5145874,-0.61920166
1601134242529,1671,-0.24560547,0.27850342,-0.36260986
1601134242529,1672,0.20776367,0.35321045,-0.39752197
1601134242529,1673,0.20776367,0.35321045,-0.39752197
1601134242529,1674,-0.6467285,1.8251343,-1.6367798
1601134242530,1675,0.20776367,0.35321045,-0.39752197
1601134242530,1676,-0.78125,1.1862183,-0.76446533
1601134242530,1677,-0.6467285,1.8251343,-1.6367798
1601134242530,1678,-0.78125,1.1862183,-0.76446533
1601134242530,1679,0.49536133,0.21160889,-0.33355713
1601134242530,1680,-0.24560547,0.27850342,-0.36260986
1601134242531,1681,0.20776367,0.35321045,-0.39752197
1601134242531,1682,-0.5793457,0.012878418,0.005065918
1601134242531,1683,0.20776367,0.35321045,-0.39752197
1601134242531,1684,-0.5793457,0.012878418,0.005065918
1601134242531,1685,-0.80859375,1.5267944,-0.6487427
1601134242531,1686,-0.6467285,1.8251343,-1.6367798
1601134242532,1687,-0.6467285,1.8251343,-1.6367798
1601134242532,1688,0.3544922,0.5145874,-0.61920166
1601134242532,1689,0.49536133,0.21160889,-0.33355713
1601134242532,1690,0.49536133,0.21160889,-0.33355713
1601134242532,1691,-0.6467285,1.8251343,-1.6367798
1601134242542,1692,0.20776367,0.35321045,-0.39752197
1601134242543,1693,-0.6467285,1.8251343,-1.6367798
1601134242543,1694,-0.6467285,1.8251343,-1.6367798
1601134242543,1695,-0.78125,1.1862183,-0.76446533
1601134242543,1696,-0.78125,1.1862183,-0.76446533
1601134242543,1697,0.20776367,0.35321045,-0.39752197
1601134242543,1698,-0.9025879,-0.08648682,-0.2678833
1601134242543,1699,-0.24560547,0.27850342,-0.36260986
1601134242544,1700,-0.78125,1.1862183,-0.76446533
1601134242544,1701,-0.9025879,-0.08648682,-0.2678833
1601134242544,1702,-0.24560547,0.27850342,-0.36260986
1601134242545,1703,-0.24560547,0.27850342,-0.36260986
1601134242545,1704,-0.78125,1.1862183,-0.76446533
1601134242545,1705,-0.78125,1.1862183,-0.76446533
1601134242545,1706,-0.5793457,0.012878418,0.005065918
1601134242545,1707,-0.24560547,0.27850342,-0.36260986
1601134242545,1708,-0.24560547,0.27850342,-0.36260986
1601134242545,1709,-0.78125,1.1862183,-0.76446533
1601134242545,1710,-0.5793457,0.012878418,0.005065918
1601134242553,1711,-1.8151855,1.6652222,-1.748352
1601134242556,1712,-0.24560547,0.27850342,-0.36260986
1601134242556,1713,-0.6467285,1.8251343,-1.6367798
1601134242556,1714,-1.8151855,1.6652222,-1.748352
1601134242556,1715,-0.5793457,0.012878418,0.005065918
1601134242556,1716,-0.68408203,1.1515503,-0.6248169
1601134242556,1717,-0.9025879,-0.08648682,-0.2678833
1601134242572,1718,-0.5793457,0.012878418,0.005065918
1601134242572,1719,-0.5793457,0.012878418,0.005065918
1601134242572,1720,-0.9025879,-0.08648682,-0.2678833
1601134242572,1721,-0.68408203,1.1515503,-0.6248169
1601134242572,1722,-0.9025879,-0.08648682,-0.2678833
1601134242572,1723,-0.78125,1.1862183,-0.76446533
1601134242572,1724,0.26171875,0.43182373,-0.4981079
1601134242572,1725,-0.5793457,0.012878418,0.005065918
1601134242572,1726,-0.24560547,0.27850342,-0.36260986
1601134242573,1727,-1.8151855,1.6652222,-1.748352
1601134242573,1728,-0.9025879,-0.08648682,-0.2678833
1601134242573,1729,-0.9025879,-0.08648682,-0.2678833
1601134242574,1730,0.26171875,0.43182373,-0.4981079
1601134242574,1731,-1.8151855,1.6652222,-1.748352
1601134242574,1732,-1.8151855,1.6652222,-1.748352
1601134242574,1733,-0.24560547,0.27850342,-0.36260986
1601134242574,1734,0.57055664,0.24603271,-0.30548096
1601134242574,1735,-0.5793457,0.012878418,0.005065918
1601134242574,1736,-0.68408203,1.1515503,-0.6248169
1601134242575,1737,-1.8151855,1.6652222,-1.748352
1601134242575,1738,-0.9025879,-0.08648682,-0.2678833
1601134242575,1739,-0.68408203,1.1515503,-0.6248169
1601134242575,1740,0.57055664,0.24603271,-0.30548096
1601134242575,1741,-0.68408203,1.1515503,-0.6248169
1601134242575,1742,-1.8151855,1.6652222,-1.748352
1601134242588,1743,-0.5793457,0.012878418,0.005065918
1601134242588,1744,-0.9025879,-0.08648682,-0.2678833
1601134242588,1745,0.14624023,0.7597046,-0.52008057
1601134242588,1746,-0.68408203,1.1515503,-0.6248169
1601134242590,1747,-0.9025879,-0.08648682,-0.2678833
1601134242590,1748,-1.8151855,1.6652222,-1.748352
1601134242590,1749,0.26171875,0.43182373,-0.4981079
1601134242598,1750,0.26171875,0.43182373,-0.4981079
1601134242598,1751,0.57055664,0.24603271,-0.30548096
1601134242598,1752,0.14624023,0.7597046,-0.52008057
1601134242598,1753,0.57055664,0.24603271,-0.30548096
1601134242598,1754,0.14624023,0.7597046,-0.52008057
1601134242598,1755,-1.4177246,1.6830444,-1.6106567
1601134242598,1756,0.26171875,0.43182373,-0.4981079
1601134242598,1757,0.26171875,0.43182373,-0.4981079
1601134242598,1758,-1.8151855,1.6652222,-1.748352
1601134242599,1759,0.57055664,0.24603271,-0.30548096
1601134242599,1760,-0.68408203,1.1515503,-0.6248169
1601134242599,1761,-1.8151855,1.6652222,-1.748352
1601134242599,1762,0.14624023,0.7597046,-0.52008057
1601134242599,1763,-1.4177246,1.6830444,-1.6106567
1601134242599,1764,-1.4177246,1.6830444,-1.6106567
1601134242599,1765,-0.8876953,0.8944702,-0.93634033
1601134242602,1766,0.57055664,0.24603271,-0.30548096
1601134242602,1767,-0.68408203,1.1515503,-0.6248169
1601134242602,1768,0.14624023,0.7597046,-0.52008057
1601134242602,1769,0.26171875,0.43182373,-0.4981079
1601134242602,1770,-0.68408203,1.1515503,-0.6248169
1601134242602,1771,-1.4177246,1.6830444,-1.6106567
1601134242603,1772,-0.8876953,0.8944702,-0.93634033
1601134242603,1773,-0.8876953,0.8944702,-0.93634033
1601134242603,1774,-0.68408203,1.1515503,-0.6248169
1601134242603,1775,0.26171875,0.43182373,-0.4981079
1601134242603,1776,0.26171875,0.43182373,-0.4981079
1601134242603,1777,-0.38330078,0.05657959,-0.38482666
1601134242603,1778,-1.4177246,1.6830444,-1.6106567
1601134242603,1779,-0.38330078,0.05657959,-0.38482666
1601134242603,1780,-0.32299805,-0.13726807,-0.15289307
1601134242603,1781,-0.32299805,-0.13726807,-0.15289307
1601134242603,1782,0.14624023,0.7597046,-0.52008057
1601134242604,1783,-0.8876953,0.8944702,-0.93634033
1601134242612,1784,0.57055664,0.24603271,-0.30548096
1601134242612,1785,-0.38330078,0.05657959,-0.38482666
1601134242612,1786,-0.8876953,0.8944702,-0.93634033
1601134242612,1787,0.26171875,0.43182373,-0.4981079
1601134242612,1788,0.57055664,0.24603271,-0.30548096
1601134242612,1789,-0.5114746,-0.047668457,-0.95318604
1601134242612,1790,0.57055664,0.24603271,-0.30548096
1601134242612,1791,-1.4177246,1.6830444,-1.6106567
1601134242612,1792,-1.0869141,1.5355835,-1.6638794
1601134242612,1793,0.57055664,0.24603271,-0.30548096
1601134242612,1794,-0.38330078,0.05657959,-0.38482666
1601134242612,1795,-0.32299805,-0.13726807,-0.15289307
1601134242613,1796,-0.44702148,0.8344116,-0.95269775
1601134242613,1797,-0.32299805,-0.13726807,-0.15289307
1601134242613,1798,0.14624023,0.7597046,-0.52008057
1601134242613,1799,0.14624023,0.7597046,-0.52008057
1601134242613,1800,0.14624023,0.7597046,-0.52008057
1601134242614,1801,0.14624023,0.7597046,-0.52008057
1601134242623,1802,-0.38330078,0.05657959,-0.38482666
1601134242624,1803,-0.8876953,0.8944702,-0.93634033
1601134242624,1804,-0.32299805,-0.13726807,-0.15289307
1601134242624,1805,-0.5114746,-0.047668457,-0.95318604
1601134242624,1806,-0.5114746,-0.047668457,-0.95318604
1601134242624,1807,-1.0869141,1.5355835,-1.6638794
1601134242624,1808,-1.4177246,1.6830444,-1.6106567
1601134242624,1809,-0.44702148,0.8344116,-0.95269775
1601134242624,1810,0.29736328,0.32757568,-0.58184814
1601134242624,1811,-0.8876953,0.8944702,-0.93634033
1601134242625,1812,-0.38330078,0.05657959,-0.38482666
1601134242625,1813,0.2919922,0.11883545,-0.22955322
1601134242626,1814,-0.5114746,-0.047668457,-0.95318604
1601134242626,1815,-0.5114746,-0.047668457,-0.95318604
1601134242626,1816,-1.0869141,1.5355835,-1.6638794
1601134242626,1817,-1.4177246,1.6830444,-1.6106567
1601134242626,1818,-1.0869141,1.5355835,-1.6638794
1601134242626,1819,0.29736328,0.32757568,-0.58184814
1601134242626,1820,-1.4177246,1.6830444,-1.6106567
1601134242639,1821,-0.32299805,-0.13726807,-0.15289307
1601134242639,1822,-0.38330078,0.05657959,-0.38482666
1601134242639,1823,0.32055664,0.28533936,-0.20733643
1601134242639,1824,-1.4177246,1.6830444,-1.6106567
1601134242640,1825,-0.8876953,0.8944702,-0.93634033
1601134242640,1826,-0.44702148,0.8344116,-0.95269775
1601134242640,1827,-0.8876953,0.8944702,-0.93634033
1601134242640,1828,0.2919922,0.11883545,-0.22955322
1601134242640,1829,-0.38330078,0.05657959,-0.38482666
1601134242640,1830,-0.44702148,0.8344116,-0.95269775
1601134242640,1831,0.32055664,0.28533936,-0.20733643
1601134242640,1832,-0.32299805,-0.13726807,-0.15289307
1601134242640,1833,0.29736328,0.32757568,-0.58184814
1601134242640,1834,-0.32299805,-0.13726807,-0.15289307
1601134242640,1835,-0.5114746,-0.047668457,-0.95318604
1601134242640,1836,-0.5114746,-0.047668457,-0.95318604
1601134242641,1837,-0.38330078,0.05657959,-0.38482666
1601134242641,1838,0.29736328,0.32757568,-0.58184814
1601134242641,1839,-0.2536621,1.2391968,-1.9998169
1601134242643,1840,-0.2536621,1.2391968,-1.9998169
1601134242644,1841,-1.0869141,1.5355835,-1.6638794
1601134242646,1842,-0.32299805,-0.13726807,-0.15289307
1601134242646,1843,-1.0869141,1.5355835,-1.6638794
1601134242652,1844,-1.0869141,1.5355835,-1.6638794
1601134242652,1845,-0.44702148,0.8344116,-0.95269775
1601134242652,1846,-0.4008789,0.98602295,-1.4363403
1601134242652,1847,0.29736328,0.32757568,-0.58184814
1601134242652,1848,-0.8876953,0.8944702,-0.93634033
1601134242652,1849,-0.3947754,0.05633545,-0.44122314
1601134242653,1850,-0.4008789,0.98602295,-1.4363403
1601134242653,1851,0.2919922,0.11883545,-0.22955322
1601134242653,1852,-0.5114746,-0.047668457,-0.95318604
1601134242660,1853,0.2919922,0.11883545,-0.22955322
1601134242661,1854,0.32055664,0.28533936,-0.20733643
1601134242661,1855,-0.44702148,0.8344116,-0.95269775
1601134242661,1856,-0.44702148,0.8344116,-0.95269775
1601134242661,1857,0.2919922,0.11883545,-0.22955322
1601134242661,1858,0.29736328,0.32757568,-0.58184814
1601134242662,1859,-0.38330078,0.05657959,-0.38482666
1601134242662,1860,-0.46411133,-0.097961426,-0.19586182
1601134242662,1861,-1.0869141,1.5355835,-1.6638794
1601134242664,1862,-0.44702148,0.8344116,-0.95269775
1601134242665,1863,0.32055664,0.28533936,-0.20733643
1601134242674,1864,0.32055664,0.28533936,-0.20733643
1601134242674,1865,-0.32299805,-0.13726807,-0.15289307
1601134242674,1866,0.2919922,0.11883545,-0.22955322
1601134242674,1867,-0.5114746,-0.047668457,-0.95318604
1601134242674,1868,-0.2536621,1.2391968,-1.9998169
1601134242675,1869,0.29736328,0.32757568,-0.58184814
1601134242675,1870,0.29736328,0.32757568,-0.58184814
1601134242675,1871,-0.4008789,0.98602295,-1.4363403
1601134242675,1872,0.32055664,0.28533936,-0.20733643
1601134242681,1873,-0.2536621,1.2391968,-1.9998169
1601134242681,1874,-0.5114746,-0.047668457,-0.95318604
1601134242681,1875,-0.2536621,1.2391968,-1.9998169
1601134242682,1876,0.2919922,0.11883545,-0.22955322
1601134242682,1877,-0.2536621,1.2391968,-1.9998169
1601134242682,1878,0.2919922,0.11883545,-0.22955322
1601134242682,1879,-0.3947754,0.05633545,-0.44122314
1601134242682,1880,-1.0869141,1.5355835,-1.6638794
1601134242687,1881,0.32055664,0.28533936,-0.20733643
1601134242687,1882,-1.0869141,1.5355835,-1.6638794
1601134242687,1883,-0.2536621,1.2391968,-1.9998169
1601134242687,1884,-0.44702148,0.8344116,-0.95269775
1601134242688,1885,-0.4008789,0.98602295,-1.4363403
1601134242688,1886,-0.4008789,0.98602295,-1.4363403
1601134242688,1887,-0.46411133,-0.097961426,-0.19586182
1601134242688,1888,0.32055664,0.28533936,-0.20733643
1601134242689,1889,-0.44702148,0.8344116,-0.95269775
1601134242690,1890,0.29736328,0.32757568,-0.58184814
1601134242691,1891,-0.3947754,0.05633545,-0.44122314
1601134242692,1892,-0.4008789,0.98602295,-1.4363403
1601134242697,1893,-0.4008789,0.98602295,-1.4363403
1601134242697,1894,0.29736328,0.32757568,-0.58184814
1601134242697,1895,-0.3947754,0.05633545,-0.44122314
1601134242697,1896,-0.2536621,1.2391968,-1.9998169
1601134242698,1897,-0.3947754,0.05633545,-0.44122314
1601134242698,1898,0.2919922,0.11883545,-0.22955322
1601134242698,1899,-0.46411133,-0.097961426,-0.19586182
1601134242699,1900,-0.3947754,0.05633545,-0.44122314
1601134242707,1901,0.2919922,0.11883545,-0.22955322
1601134242715,1902,-0.3947754,0.05633545,-0.44122314
1601134242720,1903,-0.46411133,-0.097961426,-0.19586182
1601134242720,1904,0.32055664,0.28533936,-0.20733643
1601134242720,1905,-0.46411133,-0.097961426,-0.19586182
1601134242721,1906,-0.4008789,0.98602295,-1.4363403
1601134242721,1907,-0.46411133,-0.097961426,-0.19586182
1601134242722,1908,0.32055664,0.28533936,-0.20733643
1601134242722,1909,-0.3947754,0.05633545,-0.44122314
1601134242722,1910,-0.46411133,-0.097961426,-0.19586182
1601134242722,1911,-0.2536621,1.2391968,-1.9998169
1601134242722,1912,-0.2536621,1.2391968,-1.9998169
1601134242722,1913,-0.4008789,0.98602295,-1.4363403
1601134242722,1914,-0.3947754,0.05633545,-0.44122314
1601134242722,1915,-0.46411133,-0.097961426,-0.19586182
1601134242727,1916,-0.46411133,-0.097961426,-0.19586182
1601134242728,1917,-0.4008789,0.98602295,-1.4363403
1601134242729,1918,-0.3947754,0.05633545,-0.44122314
1601134242730,1919,-0.46411133,-0.097961426,-0.19586182
1601134244971,1920,-0.69873047,-0.13311768,-0.3171997
1601134244972,1921,-0.69873047,-0.13311768,-0.3171997
1601134244972,1922,-0.69873047,-0.13311768,-0.3171997
1601134244972,1923,-0.69873047,-0.13311768,-0.3171997
1601134244972,1924,-0.69873047,-0.13311768,-0.3171997
1601134244972,1925,-0.69873047,-0.13311768,-0.3171997
1601134244973,1926,-1.201416,0.96917725,-1.5044556
1601134244973,1927,-1.201416,0.96917725,-1.5044556
1601134244973,1928,-1.201416,0.96917725,-1.5044556
1601134244973,1929,-0.69873047,-0.13311768,-0.3171997
1601134244973,1930,-0.69873047,-0.13311768,-0.3171997
1601134244973,1931,-0.69873047,-0.13311768,-0.3171997
1601134244980,1932,-1.201416,0.96917725,-1.5044556
1601134244981,1933,-1.201416,0.96917725,-1.5044556
1601134244981,1934,-1.2070312,1.1972046,-1.0630493
1601134244982,1935,-0.69873047,-0.13311768,-0.3171997
1601134244982,1936,-1.201416,0.96917725,-1.5044556
1601134244983,1937,-1.2070312,1.1972046,-1.0630493
1601134244983,1938,-1.2070312,1.1972046,-1.0630493
1601134244983,1939,-1.201416,0.96917725,-1.5044556
1601134244983,1940,-0.14428711,0.6491089,-1.0154419
1601134244983,1941,-1.201416,0.96917725,-1.5044556
1601134244984,1942,-1.2070312,1.1972046,-1.0630493
1601134244984,1943,-0.14428711,0.6491089,-1.0154419
1601134244986,1944,-1.2070312,1.1972046,-1.0630493
1601134244994,1945,-1.201416,0.96917725,-1.5044556
1601134244994,1946,-1.2070312,1.1972046,-1.0630493
1601134244994,1947,-1.2070312,1.1972046,-1.0630493
1601134244994,1948,-1.2070312,1.1972046,-1.0630493
1601134244995,1949,-0.14428711,0.6491089,-1.0154419
1601134244995,1950,-0.14428711,0.6491089,-1.0154419
1601134244995,1951,-1.2070312,1.1972046,-1.0630493
1601134244995,1952,0.24438477,0.28900146,-0.6758423
1601134244995,1953,0.24438477,0.28900146,-0.6758423
1601134244995,1954,-0.14428711,0.6491089,-1.0154419
1601134244995,1955,0.3635254,0.30706787,-0.28619385
1601134245009,1956,-0.14428711,0.6491089,-1.0154419
1601134245009,1957,-0.07470703,0.89105225,-1.6057739
1601134245009,1958,-0.14428711,0.6491089,-1.0154419
1601134245010,1959,-1.0415039,1.1432495,-1.9390259
1601134245010,1960,0.24438477,0.28900146,-0.6758423
1601134245010,1961,0.24438477,0.28900146,-0.6758423
1601134245010,1962,0.3635254,0.30706787,-0.28619385
1601134245010,1963,-0.14428711,0.6491089,-1.0154419
1601134245010,1964,0.3635254,0.30706787,-0.28619385
1601134245010,1965,-0.07470703,0.89105225,-1.6057739
1601134245010,1966,-0.14428711,0.6491089,-1.0154419
1601134245010,1967,-1.201416,0.96917725,-1.5044556
1601134245010,1968,0.24438477,0.28900146,-0.6758423
1601134245010,1969,0.24438477,0.28900146,-0.6758423
1601134245010,1970,0.24438477,0.28900146,-0.6758423
1601134245011,1971,-1.2070312,1.1972046,-1.0630493
1601134245011,1972,-1.0415039,1.1432495,-1.9390259
1601134245011,1973,-0.68481445,0.46746826,-0.67388916
1601134245011,1974,0.3635254,0.30706787,-0.28619385
1601134245011,1975,-0.07470703,0.89105225,-1.6057739
1601134245011,1976,0.3635254,0.30706787,-0.28619385
1601134245011,1977,0.3635254,0.30706787,-0.28619385
1601134245011,1978,-1.0415039,1.1432495,-1.9390259
1601134245012,1979,0.24438477,0.28900146,-0.6758423
1601134245013,1980,-0.07470703,0.89105225,-1.6057739
1601134245013,1981,-0.14428711,0.6491089,-1.0154419
1601134245013,1982,-0.68481445,0.46746826,-0.67388916
1601134245013,1983,-1.0415039,1.1432495,-1.9390259
1601134245013,1984,-0.07470703,0.89105225,-1.6057739
1601134245013,1985,-0.4963379,-0.25128174,-0.19659424
1601134245013,1986,-0.68481445,0.46746826,-0.67388916
1601134245013,1987,-0.48461914,-0.41290283,0.007019043
1601134245015,1988,-0.07470703,0.89105225,-1.6057739
1601134245015,1989,-0.8967285,1.2682495,-1.9998169
1601134245016,1990,0.24438477,0.28900146,-0.6758423
1601134245044,1991,0.24438477,0.28900146,-0.6758423
1601134245044,1992,-0.68481445,0.46746826,-0.67388916
1601134245044,1993,-1.0415039,1.1432495,-1.9390259
1601134245044,1994,0.3635254,0.30706787,-0.28619385
1601134245045,1995,0.3635254,0.30706787,-0.28619385
1601134245045,1996,-0.4963379,-0.25128174,-0.19659424
1601134245045,1997,-1.0415039,1.1432495,-1.9390259
1601134245045,1998,-0.07470703,0.89105225,-1.6057739
1601134245045,1999,-0.48461914,-0.41290283,0.007019043
1601134245045,2000,0.3635254,0.30706787,-0.28619385
1601134245045,2001,-0.9104004,1.1779175,-0.7300415
1601134245045,2002,-0.4963379,-0.25128174,-0.19659424
1601134245045,2003,-0.07470703,0.89105225,-1.6057739
1601134245046,2004,-1.0415039,1.1432495,-1.9390259
1601134245046,2005,0.22631836,0.45159912,-0.50787354
1601134245046,2006,-0.4963379,-0.25128174,-0.19659424
1601134245047,2007,0.49243164,9.1552734E-4,-0.3743286
1601134245047,2008,-0.68481445,0.46746826,-0.67388916
1601134245047,2009,0.46289062,0.14984131,-0.4277954
1601134245047,2010,-0.8967285,1.2682495,-1.9998169
1601134245047,2011,-0.68481445,0.46746826,-0.67388916
1601134245047,2012,-0.48461914,-0.41290283,0.007019043
1601134245047,2013,-0.07470703,0.89105225,-1.6057739
1601134245048,2014,-0.4963379,-0.25128174,-0.19659424
1601134245048,2015,-0.68481445,0.46746826,-0.67388916
1601134245048,2016,-0.48461914,-0.41290283,0.007019043
1601134245049,2017,-1.0415039,1.1432495,-1.9390259
1601134245049,2018,0.3635254,0.30706787,-0.28619385
1601134245050,2019,-0.4963379,-0.25128174,-0.19659424
1601134245050,2020,-0.48461914,-0.41290283,0.007019043
1601134245050,2021,-0.9104004,1.1779175,-0.7300415
1601134245050,2022,-0.8967285,1.2682495,-1.9998169
1601134245050,2023,-0.8967285,1.2682495,-1.9998169
1601134245050,2024,-1.0415039,1.1432495,-1.9390259
1601134245050,2025,-0.8967285,1.2682495,-1.9998169
1601134245057,2026,0.15454102,1.0778198,-1.7905884
1601134245057,2027,-0.68481445,0.46746826,-0.67388916
1601134245058,2028,-0.07470703,0.89105225,-1.6057739
1601134245058,2029,-0.98876953,0.90179443,-1.7210083
1601134245058,2030,-0.4963379,-0.25128174,-0.19659424
1601134245058,2031,0.22631836,0.45159912,-0.50787354
1601134245058,2032,-0.48461914,-0.41290283,0.007019043
1601134245058,2033,-0.9104004,1.1779175,-0.7300415
1601134245058,2034,-0.8967285,1.2682495,-1.9998169
1601134245058,2035,-0.68481445,0.46746826,-0.67388916
1601134245058,2036,-0.4963379,-0.25128174,-0.19659424
1601134245064,2037,-0.48461914,-0.41290283,0.007019043
1601134245064,2038,-1.0415039,1.1432495,-1.9390259
1601134245064,2039,-0.25,0.45794678,-0.58917236
1601134245064,2040,-0.8967285,1.2682495,-1.9998169
1601134245064,2041,0.49243164,9.1552734E-4,-0.3743286
1601134245064,2042,-0.68481445,0.46746826,-0.67388916
1601134245065,2043,-0.4963379,-0.25128174,-0.19659424
1601134245065,2044,0.22631836,0.45159912,-0.50787354
1601134245065,2045,-0.9104004,1.1779175,-0.7300415
1601134245065,2046,-0.48461914,-0.41290283,0.007019043
1601134245071,2047,-0.9104004,1.1779175,-0.7300415
1601134245071,2048,-0.31274414,0.03265381,-0.1951294
1601134245088,2049,0.46289062,0.14984131,-0.4277954
1601134245088,2050,0.22631836,0.45159912,-0.50787354
1601134245088,2051,0.49243164,9.1552734E-4,-0.3743286
1601134245088,2052,-0.48461914,-0.41290283,0.007019043
1601134245088,2053,0.49243164,9.1552734E-4,-0.3743286
1601134245088,2054,-0.8967285,1.2682495,-1.9998169
1601134245088,2055,-0.8779297,-0.17047119,-0.26153564
1601134245089,2056,-0.9104004,1.1779175,-0.7300415
1601134245089,2057,-0.9104004,1.1779175,-0.7300415
1601134245089,2058,0.22631836,0.45159912,-0.50787354
1601134245089,2059,0.46289062,0.14984131,-0.4277954
1601134245089,2060,0.15454102,1.0778198,-1.7905884
1601134245089,2061,0.15454102,1.0778198,-1.7905884
1601134245089,2062,-0.8967285,1.2682495,-1.9998169
1601134245089,2063,-0.98876953,0.90179443,-1.7210083
1601134245089,2064,0.22631836,0.45159912,-0.50787354
1601134245090,2065,-0.9104004,1.1779175,-0.7300415
1601134245090,2066,0.46289062,0.14984131,-0.4277954
1601134245090,2067,0.22631836,0.45159912,-0.50787354
1601134245090,2068,0.22631836,0.45159912,-0.50787354
1601134245091,2069,0.49243164,9.1552734E-4,-0.3743286
1601134245091,2070,-0.98876953,0.90179443,-1.7210083
1601134245091,2071,0.49243164,9.1552734E-4,-0.3743286
1601134245091,2072,-0.97216797,1.4611206,-1.9998169
1601134245091,2073,-0.25,0.45794678,-0.58917236
1601134245092,2074,-0.31274414,0.03265381,-0.1951294
1601134245094,2075,0.49243164,9.1552734E-4,-0.3743286
1601134245095,2076,0.46289062,0.14984131,-0.4277954
1601134245107,2077,0.46289062,0.14984131,-0.4277954
1601134245107,2078,0.46289062,0.14984131,-0.4277954
1601134245107,2079,0.49243164,9.1552734E-4,-0.3743286
1601134245107,2080,-0.4963379,-0.25128174,-0.19659424
1601134245108,2081,0.15454102,1.0778198,-1.7905884
1601134245108,2082,-0.48461914,-0.41290283,0.007019043
1601134245108,2083,-0.8779297,-0.17047119,-0.26153564
1601134245108,2084,-0.8967285,1.2682495,-1.9998169
1601134245108,2085,-0.9104004,1.1779175,-0.7300415
1601134245108,2086,-0.98876953,0.90179443,-1.7210083
1601134245108,2087,-0.25,0.45794678,-0.58917236
1601134245108,2088,-0.97216797,1.4611206,-1.9998169
1601134245108,2089,0.46289062,0.14984131,-0.4277954
1601134245109,2090,-0.6208496,1.0639038,-0.47906494
1601134245109,2091,0.15454102,1.0778198,-1.7905884
1601134245109,2092,0.15454102,1.0778198,-1.7905884
1601134245109,2093,-0.25,0.45794678,-0.58917236
1601134245113,2094,0.22631836,0.45159912,-0.50787354
1601134245113,2095,0.15454102,1.0778198,-1.7905884
1601134245157,2096,0.49243164,9.1552734E-4,-0.3743286
1601134245158,2097,0.21166992,0.21380615,-0.7432251
1601134245158,2098,-0.31274414,0.03265381,-0.1951294
1601134245158,2099,-0.6208496,1.0639038,-0.47906494
1601134245158,2100,-0.98876953,0.90179443,-1.7210083
1601134245159,2101,-0.8779297,-0.17047119,-0.26153564
1601134245159,2102,-0.31274414,0.03265381,-0.1951294
1601134245160,2103,-0.97216797,1.4611206,-1.9998169
1601134245160,2104,0.15454102,1.0778198,-1.7905884
1601134245161,2105,-0.6208496,1.0639038,-0.47906494
1601134245161,2106,-0.8779297,-0.17047119,-0.26153564
1601134245162,2107,0.46289062,0.14984131,-0.4277954
1601134245164,2108,-0.97216797,1.4611206,-1.9998169
1601134245166,2109,0.21166992,0.21380615,-0.7432251
1601134245166,2110,-0.6208496,1.0639038,-0.47906494
1601134245166,2111,0.15454102,1.0778198,-1.7905884
1601134245166,2112,0.21166992,0.21380615,-0.7432251
1601134245166,2113,-0.9104004,1.1779175,-0.7300415
1601134245166,2114,0.6101074,0.15765381,-0.60357666
1601134245167,2115,-0.98876953,0.90179443,-1.7210083
1601134245167,2116,0.6101074,0.15765381,-0.60357666
1601134245167,2117,-0.25,0.45794678,-0.58917236
1601134245167,2118,-0.98876953,0.90179443,-1.7210083
1601134245167,2119,-0.31274414,0.03265381,-0.1951294
1601134245167,2120,-0.25,0.45794678,-0.58917236
1601134245167,2121,0.6101074,0.15765381,-0.60357666
1601134245168,2122,-0.8779297,-0.17047119,-0.26153564
1601134245168,2123,-0.98876953,0.90179443,-1.7210083
1601134245168,2124,0.3959961,0.40252686,-0.5628052
1601134245168,2125,-0.25,0.45794678,-0.58917236
1601134245168,2126,-0.31274414,0.03265381,-0.1951294
1601134245168,2127,-0.8779297,-0.17047119,-0.26153564
1601134245168,2128,-0.97216797,1.4611206,-1.9998169
1601134245168,2129,-0.31274414,0.03265381,-0.1951294
1601134245168,2130,-0.8779297,-0.17047119,-0.26153564
1601134245168,2131,-0.97216797,1.4611206,-1.9998169
1601134245168,2132,0.3959961,0.40252686,-0.5628052
1601134245169,2133,-0.97216797,1.4611206,-1.9998169
1601134245169,2134,0.3959961,0.40252686,-0.5628052
1601134245169,2135,-0.6208496,1.0639038,-0.47906494
1601134245169,2136,-0.44433594,0.84954834,-1.9998169
1601134245169,2137,-0.44433594,0.84954834,-1.9998169
1601134245169,2138,0.21166992,0.21380615,-0.7432251
1601134245169,2139,-0.6208496,1.0639038,-0.47906494
1601134245169,2140,-0.78222656,0.76483154,-1.385315
1601134245169,2141,0.6101074,0.15765381,-0.60357666
1601134245169,2142,-0.47509766,0.39300537,-0.41949463
1601134245169,2143,-0.44433594,0.84954834,-1.9998169
1601134245170,2144,-0.38671875,-0.0037231445,-0.074523926
1601134245170,2145,0.22631836,0.45159912,-0.50787354
1601134245170,2146,-0.78222656,0.76483154,-1.385315
1601134245170,2147,-0.25,0.45794678,-0.58917236
1601134245170,2148,-0.78222656,0.76483154,-1.385315
1601134245170,2149,-0.6208496,1.0639038,-0.47906494
1601134245170,2150,0.3959961,0.40252686,-0.5628052
1601134245170,2151,0.49243164,9.1552734E-4,-0.3743286
1601134245170,2152,-0.44433594,0.84954834,-1.9998169
1601134245170,2153,-0.72387695,-0.14361572,-0.4890747
1601134245170,2154,-0.78222656,0.76483154,-1.385315
1601134245171,2155,0.21166992,0.21380615,-0.7432251
1601134245172,2156,-1.1477051,1.1273804,-1.9317017
1601134245172,2157,0.21166992,0.21380615,-0.7432251
1601134245172,2158,-0.47509766,0.39300537,-0.41949463
1601134245172,2159,-0.31274414,0.03265381,-0.1951294
1601134245172,2160,0.21166992,0.21380615,-0.7432251
1601134245178,2161,-0.47509766,0.39300537,-0.41949463
1601134245178,2162,0.46289062,0.14984131,-0.4277954
1601134245178,2163,-0.98876953,0.90179443,-1.7210083
1601134245179,2164,-0.47509766,0.39300537,-0.41949463
1601134245179,2165,0.6101074,0.15765381,-0.60357666
1601134245180,2166,-0.38671875,-0.0037231445,-0.074523926
1601134245180,2167,0.3959961,0.40252686,-0.5628052
1601134245180,2168,-0.72387695,-0.14361572,-0.4890747
1601134245180,2169,-0.8779297,-0.17047119,-0.26153564
1601134245180,2170,-1.1477051,1.1273804,-1.9317017
1601134245180,2171,-0.38671875,-0.0037231445,-0.074523926
1601134245180,2172,0.6101074,0.15765381,-0.60357666
1601134245181,2173,0.15454102,1.0778198,-1.7905884
1601134245181,2174,-0.44433594,0.84954834,-1.9998169
1601134245182,2175,0.3959961,0.40252686,-0.5628052
1601134245182,2176,-0.72387695,-0.14361572,-0.4890747
1601134245182,2177,-0.44433594,0.84954834,-1.9998169
1601134245182,2178,-0.78222656,0.76483154,-1.385315
1601134245186,2179,-0.25,0.45794678,-0.58917236
1601134245186,2180,-0.98876953,0.90179443,-1.7210083
1601134245191,2181,-0.31274414,0.03265381,-0.1951294
1601134245192,2182,-0.78222656,0.76483154,-1.385315
1601134245192,2183,-1.1477051,1.1273804,-1.9317017
1601134245192,2184,-0.47509766,0.39300537,-0.41949463
1601134245192,2185,0.6101074,0.15765381,-0.60357666
1601134245192,2186,-0.38671875,-0.0037231445,-0.074523926
1601134245192,2187,-0.8779297,-0.17047119,-0.26153564
1601134245192,2188,-0.97216797,1.4611206,-1.9998169
1601134245192,2189,-0.25,0.45794678,-0.58917236
1601134245192,2190,-0.97216797,1.4611206,-1.9998169
1601134245194,2191,-0.47509766,0.39300537,-0.41949463
1601134245194,2192,0.3959961,0.40252686,-0.5628052
1601134245195,2193,-0.72387695,-0.14361572,-0.4890747
1601134245206,2194,-0.31274414,0.03265381,-0.1951294
1601134245206,2195,-0.6208496,1.0639038,-0.47906494
1601134245206,2196,-0.38671875,-0.0037231445,-0.074523926
1601134245206,2197,-0.8779297,-0.17047119,-0.26153564
1601134245206,2198,-0.72387695,-0.14361572,-0.4890747
1601134245206,2199,-0.6208496,1.0639038,-0.47906494
1601134245206,2200,-1.1477051,1.1273804,-1.9317017
1601134245206,2201,-1.1477051,1.1273804,-1.9317017
1601134245206,2202,0.21166992,0.21380615,-0.7432251
1601134245207,2203,-0.97216797,1.4611206,-1.9998169
1601134245207,2204,-0.44433594,0.84954834,-1.9998169
1601134245207,2205,-0.6208496,1.0639038,-0.47906494
1601134245208,2206,-0.78222656,0.76483154,-1.385315
1601134245208,2207,-0.38671875,-0.0037231445,-0.074523926
1601134245208,2208,0.6101074,0.15765381,-0.60357666
1601134245208,2209,-0.47509766,0.39300537,-0.41949463
1601134245211,2210,0.21166992,0.21380615,-0.7432251
1601134245213,2211,0.21166992,0.21380615,-0.7432251
1601134245213,2212,0.3959961,0.40252686,-0.5628052
1601134245213,2213,-0.38671875,-0.0037231445,-0.074523926
1601134245213,2214,-0.44433594,0.84954834,-1.9998169
1601134245214,2215,-0.72387695,-0.14361572,-0.4890747
1601134245214,2216,-0.78222656,0.76483154,-1.385315
1601134245215,2217,-1.1477051,1.1273804,-1.9317017
1601134245216,2218,0.6101074,0.15765381,-0.60357666
1601134245216,2219,-0.72387695,-0.14361572,-0.4890747
1601134245217,2220,-0.47509766,0.39300537,-0.41949463
1601134245218,2221,-1.1477051,1.1273804,-1.9317017
1601134245219,2222,-0.38671875,-0.0037231445,-0.074523926
1601134245220,2223,-0.72387695,-0.14361572,-0.4890747
1601134245221,2224,0.6101074,0.15765381,-0.60357666
1601134245223,2225,0.3959961,0.40252686,-0.5628052
1601134245224,2226,-1.1477051,1.1273804,-1.9317017
1601134245224,2227,0.3959961,0.40252686,-0.5628052
1601134245225,2228,-0.44433594,0.84954834,-1.9998169
1601134245225,2229,-0.44433594,0.84954834,-1.9998169
1601134245229,2230,-0.78222656,0.76483154,-1.385315
1601134245229,2231,-0.47509766,0.39300537,-0.41949463
1601134245229,2232,-0.78222656,0.76483154,-1.385315
1601134245232,2233,-0.38671875,-0.0037231445,-0.074523926
1601134245232,2234,-0.47509766,0.39300537,-0.41949463
1601134245232,2235,-0.72387695,-0.14361572,-0.4890747
1601134245232,2236,-1.1477051,1.1273804,-1.9317017
1601134245232,2237,-0.38671875,-0.0037231445,-0.074523926
1601134245235,2238,-0.72387695,-0.14361572,-0.4890747
1601134245235,2239,-1.1477051,1.1273804,-1.9317017
1601134247492,2240,-0.782959,1.2706909,-0.6712036
1601134247492,2241,-0.782959,1.2706909,-0.6712036
1601134247492,2242,-0.782959,1.2706909,-0.6712036
1601134247492,2243,-0.782959,1.2706909,-0.6712036
1601134247492,2244,0.6479492,0.17816162,-1.1411743
1601134247492,2245,-0.782959,1.2706909,-0.6712036
1601134247492,2246,0.6479492,0.17816162,-1.1411743
1601134247493,2247,0.6479492,0.17816162,-1.1411743
1601134247493,2248,-0.782959,1.2706909,-0.6712036
1601134247493,2249,0.6687012,0.19989014,-0.10064697
1601134247493,2250,-0.782959,1.2706909,-0.6712036
1601134247493,2251,-0.782959,1.2706909,-0.6712036
1601134247493,2252,-0.782959,1.2706909,-0.6712036
1601134247496,2253,0.6479492,0.17816162,-1.1411743
1601134247496,2254,0.6479492,0.17816162,-1.1411743
1601134247506,2255,0.6687012,0.19989014,-0.10064697
1601134247506,2256,0.57788086,0.34735107,-1.0186157
1601134247506,2257,0.57788086,0.34735107,-1.0186157
1601134247506,2258,0.6479492,0.17816162,-1.1411743
1601134247506,2259,0.6687012,0.19989014,-0.10064697
1601134247506,2260,0.6479492,0.17816162,-1.1411743
1601134247506,2261,-0.5842285,0.86834717,-1.9998169
1601134247506,2262,0.6479492,0.17816162,-1.1411743
1601134247507,2263,-0.5371094,0.5963745,-1.0205688
1601134247507,2264,0.6687012,0.19989014,-0.10064697
1601134247507,2265,-0.30786133,0.03363037,-0.270813
1601134247508,2266,0.6479492,0.17816162,-1.1411743
1601134247509,2267,-0.5842285,0.86834717,-1.9998169
1601134247509,2268,0.57788086,0.34735107,-1.0186157
1601134247509,2269,0.6687012,0.19989014,-0.10064697
1601134247509,2270,0.57788086,0.34735107,-1.0186157
1601134247509,2271,0.6687012,0.19989014,-0.10064697
1601134247509,2272,0.57788086,0.34735107,-1.0186157
1601134247509,2273,-0.5842285,0.86834717,-1.9998169
1601134247509,2274,-0.5371094,0.5963745,-1.0205688
1601134247525,2275,0.6687012,0.19989014,-0.10064697
1601134247525,2276,-0.5371094,0.5963745,-1.0205688
1601134247525,2277,0.6687012,0.19989014,-0.10064697
1601134247525,2278,0.57788086,0.34735107,-1.0186157
1601134247525,2279,0.6687012,0.19989014,-0.10064697
1601134247525,2280,0.57788086,0.34735107,-1.0186157
1601134247525,2281,-0.42626953,-0.56622314,-0.5171509
1601134247526,2282,-0.5842285,0.86834717,-1.9998169
1601134247526,2283,-0.5842285,0.86834717,-1.9998169
1601134247526,2284,-0.30786133,0.03363037,-0.270813
1601134247526,2285,-0.5371094,0.5963745,-1.0205688
1601134247526,2286,-0.782959,1.2706909,-0.6712036
1601134247526,2287,-0.30786133,0.03363037,-0.270813
1601134247526,2288,0.57788086,0.34735107,-1.0186157
1601134247528,2289,-0.5842285,0.86834717,-1.9998169
1601134247529,2290,0.57788086,0.34735107,-1.0186157
1601134247530,2291,-0.42626953,-0.56622314,-0.5171509
1601134247530,2292,-0.5842285,0.86834717,-1.9998169
1601134247530,2293,-0.5371094,0.5963745,-1.0205688
1601134247530,2294,-0.6418457,0.8900757,-1.6724243
1601134247530,2295,-0.5371094,0.5963745,-1.0205688
1601134247530,2296,-0.30786133,0.03363037,-0.270813
1601134247530,2297,0.6479492,0.17816162,-1.1411743
1601134247530,2298,-0.30786133,0.03363037,-0.270813
1601134247531,2299,-0.5842285,0.86834717,-1.9998169
1601134247531,2300,-0.42626953,-0.56622314,-0.5171509
1601134247531,2301,-0.5842285,0.86834717,-1.9998169
1601134247531,2302,-0.42626953,-0.56622314,-0.5171509
1601134247531,2303,-0.5371094,0.5963745,-1.0205688
1601134247531,2304,-0.30786133,0.03363037,-0.270813
1601134247531,2305,-0.89941406,0.9110718,-1.3401489
1601134247531,2306,-0.6418457,0.8900757,-1.6724243
1601134247531,2307,0.6687012,0.19989014,-0.10064697
1601134247531,2308,-0.5371094,0.5963745,-1.0205688
1601134247531,2309,-0.42626953,-0.56622314,-0.5171509
1601134247531,2310,-0.6418457,0.8900757,-1.6724243
1601134247532,2311,-0.30786133,0.03363037,-0.270813
