# Sensor position: Chest
# Sensor side: Right
# Activity type: Running
# Activity code: 11
# Subject id: s1735229
timestamp,seq,accel_x,accel_y,accel_z
1601136948646,0,0.40551758,-1.1377563,-0.07208252
1601136948647,1,0.40551758,-1.1377563,-0.07208252
1601136948647,2,0.40551758,-1.1377563,-0.07208252
1601136948647,3,0.40551758,-1.1377563,-0.07208252
1601136948648,4,0.40551758,-1.1377563,-0.07208252
1601136948648,5,0.40551758,-1.1377563,-0.07208252
1601136948648,6,0.33764648,-1.0747681,0.07733154
1601136948648,7,0.40551758,-1.1377563,-0.07208252
1601136948649,8,0.33764648,-1.0747681,0.07733154
1601136948649,9,0.40551758,-1.1377563,-0.07208252
1601136948649,10,0.33764648,-1.0747681,0.07733154
1601136948649,11,0.25073242,-0.94317627,-0.08404541
1601136948649,12,0.33764648,-1.0747681,0.07733154
1601136948649,13,0.40551758,-1.1377563,-0.07208252
1601136948649,14,0.40551758,-1.1377563,-0.07208252
1601136948649,15,0.33764648,-1.0747681,0.07733154
1601136948649,16,0.33764648,-1.0747681,0.07733154
1601136948650,17,0.25073242,-0.94317627,-0.08404541
1601136948650,18,0.33764648,-1.0747681,0.07733154
1601136948650,19,0.33398438,-0.9483032,-0.06500244
1601136948650,20,0.25073242,-0.94317627,-0.08404541
1601136948650,21,0.30737305,-1.019104,-0.06378174
1601136948650,22,0.33764648,-1.0747681,0.07733154
1601136948651,23,0.33398438,-0.9483032,-0.06500244
1601136948651,24,0.25073242,-0.94317627,-0.08404541
1601136948651,25,0.33764648,-1.0747681,0.07733154
1601136948651,26,0.33398438,-0.9483032,-0.06500244
1601136948651,27,0.25073242,-0.94317627,-0.08404541
1601136948651,28,0.25073242,-0.94317627,-0.08404541
1601136948652,29,0.33398438,-0.9483032,-0.06500244
1601136948652,30,0.33764648,-1.0747681,0.07733154
1601136948652,31,0.1928711,-1.0935669,-0.027404785
1601136948652,32,0.25073242,-0.94317627,-0.08404541
1601136948652,33,0.30737305,-1.019104,-0.06378174
1601136948652,34,0.33398438,-0.9483032,-0.06500244
1601136948652,35,0.25073242,-0.94317627,-0.08404541
1601136948653,36,0.30737305,-1.019104,-0.06378174
1601136948653,37,0.25073242,-0.94317627,-0.08404541
1601136948653,38,0.30737305,-1.019104,-0.06378174
1601136948653,39,0.08178711,-0.96173096,-0.09893799
1601136948656,40,0.029785156,-1.0525513,0.066345215
1601136948657,41,0.1928711,-1.0935669,-0.027404785
1601136948657,42,0.08178711,-0.96173096,-0.09893799
1601136948670,43,0.1928711,-1.0935669,-0.027404785
1601136948670,44,0.33398438,-0.9483032,-0.06500244
1601136948670,45,0.1928711,-1.0935669,-0.027404785
1601136948670,46,0.25073242,-0.94317627,-0.08404541
1601136948670,47,0.33398438,-0.9483032,-0.06500244
1601136948670,48,0.051513672,-1.006897,0.0446167
1601136948671,49,0.08178711,-0.96173096,-0.09893799
1601136948671,50,0.33398438,-0.9483032,-0.06500244
1601136948671,51,0.029785156,-1.0525513,0.066345215
1601136948671,52,0.30737305,-1.019104,-0.06378174
1601136948671,53,0.33398438,-0.9483032,-0.06500244
1601136948671,54,0.08178711,-0.96173096,-0.09893799
1601136948671,55,0.30737305,-1.019104,-0.06378174
1601136948672,56,0.30737305,-1.019104,-0.06378174
1601136948672,57,0.33398438,-0.9483032,-0.06500244
1601136948672,58,0.029785156,-1.0525513,0.066345215
1601136948672,59,0.051513672,-1.006897,0.0446167
1601136948674,60,0.028320312,-1.0249634,0.08001709
1601136948675,61,0.30737305,-1.019104,-0.06378174
1601136948682,62,0.1928711,-1.0935669,-0.027404785
1601136948683,63,0.051513672,-1.006897,0.0446167
1601136948683,64,0.30737305,-1.019104,-0.06378174
1601136948683,65,0.029785156,-1.0525513,0.066345215
1601136948683,66,0.30737305,-1.019104,-0.06378174
1601136948683,67,0.1928711,-1.0935669,-0.027404785
1601136948683,68,0.022216797,-1.0264282,0.0848999
1601136948683,69,0.1928711,-1.0935669,-0.027404785
1601136948683,70,0.1928711,-1.0935669,-0.027404785
1601136948683,71,0.051513672,-1.006897,0.0446167
1601136948687,72,0.028320312,-1.0249634,0.08001709
1601136948688,73,0.028320312,-1.0249634,0.08001709
1601136948688,74,0.022216797,-1.0264282,0.0848999
1601136948688,75,0.08178711,-0.96173096,-0.09893799
1601136948688,76,0.010009766,-1.0020142,0.077819824
1601136948688,77,0.022216797,-1.0264282,0.0848999
1601136948688,78,-0.009033203,-1.0366821,0.08660889
1601136948688,79,0.08178711,-0.96173096,-0.09893799
1601136948688,80,-0.034179688,-0.9849243,0.09857178
1601136948689,81,0.08178711,-0.96173096,-0.09893799
1601136948689,82,0.010009766,-1.0020142,0.077819824
1601136948689,83,0.1928711,-1.0935669,-0.027404785
1601136948701,84,0.08178711,-0.96173096,-0.09893799
1601136948701,85,0.029785156,-1.0525513,0.066345215
1601136948701,86,0.1928711,-1.0935669,-0.027404785
1601136948701,87,0.051513672,-1.006897,0.0446167
1601136948702,88,-0.0053710938,-1.0010376,0.11883545
1601136948702,89,0.08178711,-0.96173096,-0.09893799
1601136948702,90,0.029785156,-1.0525513,0.066345215
1601136948702,91,0.028320312,-1.0249634,0.08001709
1601136948702,92,-0.009033203,-1.0366821,0.08660889
1601136948702,93,0.08178711,-0.96173096,-0.09893799
1601136948702,94,0.010009766,-1.0020142,0.077819824
1601136948702,95,0.029785156,-1.0525513,0.066345215
1601136948703,96,-0.034179688,-0.9849243,0.09857178
1601136948703,97,0.029785156,-1.0525513,0.066345215
1601136948704,98,0.029785156,-1.0525513,0.066345215
1601136948704,99,0.051513672,-1.006897,0.0446167
1601136948704,100,0.051513672,-1.006897,0.0446167
1601136948704,101,0.051513672,-1.006897,0.0446167
1601136948714,102,0.029785156,-1.0525513,0.066345215
1601136948714,103,0.028320312,-1.0249634,0.08001709
1601136948714,104,-0.0053710938,-1.0010376,0.11883545
1601136948714,105,0.028320312,-1.0249634,0.08001709
1601136948714,106,0.051513672,-1.006897,0.0446167
1601136948714,107,0.022216797,-1.0264282,0.0848999
1601136948715,108,0.022216797,-1.0264282,0.0848999
1601136948715,109,-0.009033203,-1.0366821,0.08660889
1601136948715,110,0.029296875,-0.9783325,0.09075928
1601136948715,111,0.051513672,-1.006897,0.0446167
1601136948715,112,0.028320312,-1.0249634,0.08001709
1601136948715,113,0.029296875,-0.9783325,0.09075928
1601136948715,114,0.028320312,-1.0249634,0.08001709
1601136948715,115,0.040283203,-0.99005127,0.06439209
1601136948715,116,0.079833984,-1.0081177,0.07098389
1601136948716,117,0.010009766,-1.0020142,0.077819824
1601136948720,118,-0.034179688,-0.9849243,0.09857178
1601136948720,119,0.010009766,-1.0020142,0.077819824
1601136948721,120,-0.009033203,-1.0366821,0.08660889
1601136948721,121,0.040283203,-0.99005127,0.06439209
1601136948721,122,0.028320312,-1.0249634,0.08001709
1601136948721,123,0.022216797,-1.0264282,0.0848999
1601136948721,124,0.022216797,-1.0264282,0.0848999
1601136948721,125,0.022216797,-1.0264282,0.0848999
1601136948722,126,0.0793457,-1.0252075,0.082214355
1601136948722,127,-0.009033203,-1.0366821,0.08660889
1601136948729,128,0.028320312,-1.0249634,0.08001709
1601136948729,129,-0.0053710938,-1.0010376,0.11883545
1601136948729,130,-0.034179688,-0.9849243,0.09857178
1601136948729,131,0.022216797,-1.0264282,0.0848999
1601136948730,132,0.010009766,-1.0020142,0.077819824
1601136948730,133,0.022216797,-1.0264282,0.0848999
1601136948730,134,0.010009766,-1.0020142,0.077819824
1601136948730,135,-0.0053710938,-1.0010376,0.11883545
1601136948730,136,-0.034179688,-0.9849243,0.09857178
1601136948730,137,0.0871582,-1.036438,0.07659912
1601136948730,138,0.079833984,-1.0081177,0.07098389
1601136948744,139,-0.009033203,-1.0366821,0.08660889
1601136948744,140,0.010009766,-1.0020142,0.077819824
1601136948744,141,0.010009766,-1.0020142,0.077819824
1601136948744,142,-0.009033203,-1.0366821,0.08660889
1601136948744,143,-0.009033203,-1.0366821,0.08660889
1601136948744,144,0.010009766,-1.0020142,0.077819824
1601136948744,145,-0.0053710938,-1.0010376,0.11883545
1601136948744,146,0.04321289,-1.0046997,0.16766357
1601136948745,147,0.029296875,-0.9783325,0.09075928
1601136948745,148,0.029296875,-0.9783325,0.09075928
1601136948746,149,0.0793457,-1.0252075,0.082214355
1601136948746,150,0.033691406,-1.0540161,0.2345581
1601136948746,151,-0.009033203,-1.0366821,0.08660889
1601136948746,152,0.029296875,-0.9783325,0.09075928
1601136948746,153,-0.034179688,-0.9849243,0.09857178
1601136948746,154,-0.034179688,-0.9849243,0.09857178
1601136948746,155,0.040283203,-0.99005127,0.06439209
1601136948746,156,-0.034179688,-0.9849243,0.09857178
1601136948746,157,-0.034179688,-0.9849243,0.09857178
1601136948746,158,-0.0053710938,-1.0010376,0.11883545
1601136948746,159,0.040283203,-0.99005127,0.06439209
1601136948746,160,-0.0053710938,-1.0010376,0.11883545
1601136948746,161,0.10864258,-1.0095825,0.15960693
1601136948746,162,-0.009033203,-1.0366821,0.08660889
1601136948747,163,0.029296875,-0.9783325,0.09075928
1601136948747,164,0.0871582,-1.036438,0.07659912
1601136948747,165,-0.034179688,-0.9849243,0.09857178
1601136948749,166,0.079833984,-1.0081177,0.07098389
1601136948749,167,0.079833984,-1.0081177,0.07098389
1601136948749,168,0.029296875,-0.9783325,0.09075928
1601136948749,169,0.040283203,-0.99005127,0.06439209
1601136948750,170,0.0793457,-1.0252075,0.082214355
1601136948750,171,0.040283203,-0.99005127,0.06439209
1601136948750,172,0.04321289,-1.0046997,0.16766357
1601136948750,173,-0.0053710938,-1.0010376,0.11883545
1601136948750,174,-0.0053710938,-1.0010376,0.11883545
1601136948750,175,0.078125,-0.93829346,0.14666748
1601136948751,176,0.040283203,-0.99005127,0.06439209
1601136948751,177,-0.0053710938,-1.0010376,0.11883545
1601136948756,178,0.079833984,-1.0081177,0.07098389
1601136948756,179,0.033691406,-1.0540161,0.2345581
1601136948756,180,0.0793457,-1.0252075,0.082214355
1601136948757,181,0.029296875,-0.9783325,0.09075928
1601136948757,182,0.079833984,-1.0081177,0.07098389
1601136948757,183,0.029296875,-0.9783325,0.09075928
1601136948757,184,0.045166016,-0.97613525,0.19622803
1601136948757,185,0.0871582,-1.036438,0.07659912
1601136948757,186,0.055419922,-0.9998169,0.12347412
1601136948757,187,0.0793457,-1.0252075,0.082214355
1601136948758,188,0.079833984,-1.0081177,0.07098389
1601136948764,189,0.029296875,-0.9783325,0.09075928
1601136948765,190,0.0793457,-1.0252075,0.082214355
1601136948765,191,0.0793457,-1.0252075,0.082214355
1601136948765,192,0.040283203,-0.99005127,0.06439209
1601136948765,193,0.04321289,-1.0046997,0.16766357
1601136948765,194,0.11987305,-1.050354,0.059020996
1601136948765,195,0.0871582,-1.036438,0.07659912
1601136948765,196,0.16259766,-0.99713135,0.1305542
1601136948765,197,0.040283203,-0.99005127,0.06439209
1601136948771,198,0.040283203,-0.99005127,0.06439209
1601136948771,199,0.0871582,-1.036438,0.07659912
1601136948771,200,0.079833984,-1.0081177,0.07098389
1601136948771,201,0.079833984,-1.0081177,0.07098389
1601136948771,202,0.0871582,-1.036438,0.07659912
1601136948771,203,0.04321289,-1.0046997,0.16766357
1601136948771,204,0.033691406,-1.0540161,0.2345581
1601136948772,205,0.12695312,-1.0125122,0.1618042
1601136948772,206,0.10864258,-1.0095825,0.15960693
1601136948772,207,0.10864258,-1.0095825,0.15960693
1601136948772,208,0.079833984,-1.0081177,0.07098389
1601136948778,209,0.0871582,-1.036438,0.07659912
1601136948778,210,0.0793457,-1.0252075,0.082214355
1601136948779,211,0.0793457,-1.0252075,0.082214355
1601136948779,212,0.0871582,-1.036438,0.07659912
1601136948779,213,0.033691406,-1.0540161,0.2345581
1601136948779,214,0.0871582,-1.036438,0.07659912
1601136948779,215,0.04321289,-1.0046997,0.16766357
1601136948780,216,0.078125,-0.93829346,0.14666748
1601136948780,217,0.0793457,-1.0252075,0.082214355
1601136948780,218,0.078125,-0.93829346,0.14666748
1601136948790,219,0.04321289,-1.0046997,0.16766357
1601136948790,220,0.04321289,-1.0046997,0.16766357
1601136948790,221,0.033691406,-1.0540161,0.2345581
1601136948790,222,0.033691406,-1.0540161,0.2345581
1601136948791,223,0.10864258,-1.0095825,0.15960693
1601136948791,224,0.04321289,-1.0046997,0.16766357
1601136948791,225,0.045166016,-0.97613525,0.19622803
1601136948791,226,0.0871582,-1.036438,0.07659912
1601136948791,227,0.033691406,-1.0540161,0.2345581
1601136948791,228,0.033691406,-1.0540161,0.2345581
1601136948791,229,0.04321289,-1.0046997,0.16766357
1601136948792,230,0.10864258,-1.0095825,0.15960693
1601136948792,231,0.10864258,-1.0095825,0.15960693
1601136948792,232,0.10864258,-1.0095825,0.15960693
1601136948792,233,0.078125,-0.93829346,0.14666748
1601136948792,234,0.04321289,-1.0046997,0.16766357
1601136948792,235,0.078125,-0.93829346,0.14666748
1601136948792,236,0.055419922,-0.9998169,0.12347412
1601136948792,237,0.045166016,-0.97613525,0.19622803
1601136948797,238,0.10864258,-1.0095825,0.15960693
1601136948797,239,0.033691406,-1.0540161,0.2345581
1601136948797,240,0.078125,-0.93829346,0.14666748
1601136948797,241,0.078125,-0.93829346,0.14666748
1601136948798,242,0.10864258,-1.0095825,0.15960693
1601136948798,243,0.045166016,-0.97613525,0.19622803
1601136948798,244,0.045166016,-0.97613525,0.19622803
1601136948798,245,0.11987305,-1.050354,0.059020996
1601136948798,246,0.055419922,-0.9998169,0.12347412
1601136948798,247,0.033691406,-1.0540161,0.2345581
1601136948798,248,0.16259766,-0.99713135,0.1305542
1601136948798,249,0.11987305,-1.050354,0.059020996
1601136948798,250,0.16259766,-0.99713135,0.1305542
1601136948800,251,0.078125,-0.93829346,0.14666748
1601136948800,252,0.055419922,-0.9998169,0.12347412
1601136948801,253,0.078125,-0.93829346,0.14666748
1601136948802,254,0.10864258,-1.0095825,0.15960693
1601136948818,255,0.2319336,-1.0737915,-0.12994385
1601136948819,256,0.078125,-0.93829346,0.14666748
1601136948819,257,0.055419922,-0.9998169,0.12347412
1601136948819,258,0.045166016,-0.97613525,0.19622803
1601136948819,259,0.045166016,-0.97613525,0.19622803
1601136948819,260,0.11987305,-1.050354,0.059020996
1601136948819,261,0.055419922,-0.9998169,0.12347412
1601136948819,262,0.045166016,-0.97613525,0.19622803
1601136948819,263,0.16259766,-0.99713135,0.1305542
1601136948820,264,0.11987305,-1.050354,0.059020996
1601136948820,265,0.12695312,-1.0125122,0.1618042
1601136948820,266,0.36401367,-0.98321533,-0.12017822
1601136948820,267,0.11987305,-1.050354,0.059020996
1601136948820,268,0.12695312,-1.0125122,0.1618042
1601136948820,269,0.045166016,-0.97613525,0.19622803
1601136948820,270,0.055419922,-0.9998169,0.12347412
1601136948820,271,0.2319336,-1.0737915,-0.12994385
1601136948821,272,0.045166016,-0.97613525,0.19622803
1601136948821,273,0.16259766,-0.99713135,0.1305542
1601136948821,274,0.055419922,-0.9998169,0.12347412
1601136948821,275,0.055419922,-0.9998169,0.12347412
1601136948821,276,0.2319336,-1.0737915,-0.12994385
1601136948821,277,0.35253906,-0.90753174,-0.22369385
1601136948821,278,0.11987305,-1.050354,0.059020996
1601136948821,279,0.16259766,-0.99713135,0.1305542
1601136948822,280,0.055419922,-0.9998169,0.12347412
1601136948822,281,0.11987305,-1.050354,0.059020996
1601136948822,282,0.11987305,-1.050354,0.059020996
1601136948822,283,0.12695312,-1.0125122,0.1618042
1601136948822,284,0.12695312,-1.0125122,0.1618042
1601136948830,285,0.12695312,-1.0125122,0.1618042
1601136948831,286,0.36401367,-0.98321533,-0.12017822
1601136948831,287,0.16259766,-0.99713135,0.1305542
1601136948831,288,0.36401367,-0.98321533,-0.12017822
1601136948831,289,0.2319336,-1.0737915,-0.12994385
1601136948831,290,0.12695312,-1.0125122,0.1618042
1601136948831,291,0.35253906,-0.90753174,-0.22369385
1601136948831,292,0.36401367,-0.98321533,-0.12017822
1601136948831,293,0.16259766,-0.99713135,0.1305542
1601136948836,294,0.35253906,-0.90753174,-0.22369385
1601136948837,295,0.2319336,-1.0737915,-0.12994385
1601136948837,296,0.11987305,-1.050354,0.059020996
1601136948837,297,0.2319336,-1.0737915,-0.12994385
1601136948837,298,0.35253906,-0.90753174,-0.22369385
1601136948837,299,0.12695312,-1.0125122,0.1618042
1601136948837,300,0.2319336,-1.0737915,-0.12994385
1601136948838,301,0.16259766,-0.99713135,0.1305542
1601136948839,302,0.36401367,-0.98321533,-0.12017822
1601136948849,303,0.36401367,-0.98321533,-0.12017822
1601136948849,304,0.16259766,-0.99713135,0.1305542
1601136948849,305,0.12695312,-1.0125122,0.1618042
1601136948849,306,0.35253906,-0.90753174,-0.22369385
1601136948849,307,0.12695312,-1.0125122,0.1618042
1601136948849,308,0.2319336,-1.0737915,-0.12994385
1601136948849,309,0.36401367,-0.98321533,-0.12017822
1601136948849,310,0.35253906,-0.90753174,-0.22369385
1601136948849,311,0.2319336,-1.0737915,-0.12994385
1601136948849,312,0.35253906,-0.90753174,-0.22369385
1601136948850,313,0.36401367,-0.98321533,-0.12017822
1601136948852,314,0.36401367,-0.98321533,-0.12017822
1601136948853,315,0.35253906,-0.90753174,-0.22369385
1601136948855,316,0.35253906,-0.90753174,-0.22369385
1601136948855,317,0.2319336,-1.0737915,-0.12994385
1601136948857,318,0.36401367,-0.98321533,-0.12017822
1601136948859,319,0.35253906,-0.90753174,-0.22369385
1601136951166,320,0.296875,-0.8970337,-0.10699463
1601136951167,321,0.296875,-0.8970337,-0.10699463
1601136951167,322,0.30273438,-0.88604736,-0.21832275
1601136951185,323,0.296875,-0.8970337,-0.10699463
1601136951186,324,0.296875,-0.8970337,-0.10699463
1601136951186,325,0.30273438,-0.88604736,-0.21832275
1601136951186,326,0.296875,-0.8970337,-0.10699463
1601136951186,327,0.296875,-0.8970337,-0.10699463
1601136951186,328,0.296875,-0.8970337,-0.10699463
1601136951186,329,0.296875,-0.8970337,-0.10699463
1601136951186,330,0.30273438,-0.88604736,-0.21832275
1601136951186,331,0.296875,-0.8970337,-0.10699463
1601136951186,332,0.30273438,-0.88604736,-0.21832275
1601136951187,333,0.36010742,-0.98516846,-0.121154785
1601136951187,334,0.36010742,-0.98516846,-0.121154785
1601136951187,335,0.36010742,-0.98516846,-0.121154785
1601136951187,336,0.30273438,-0.88604736,-0.21832275
1601136951187,337,0.35009766,-1.0383911,-0.0178833
1601136951187,338,0.30273438,-0.88604736,-0.21832275
1601136951187,339,0.30273438,-0.88604736,-0.21832275
1601136951187,340,0.30273438,-0.88604736,-0.21832275
1601136951187,341,0.36010742,-0.98516846,-0.121154785
1601136951188,342,0.2890625,-1.0667114,0.045837402
1601136951188,343,0.30273438,-0.88604736,-0.21832275
1601136951188,344,0.16699219,-1.0396118,-0.032287598
1601136951188,345,0.296875,-0.8970337,-0.10699463
1601136951188,346,0.36010742,-0.98516846,-0.121154785
1601136951188,347,0.30273438,-0.88604736,-0.21832275
1601136951188,348,0.35009766,-1.0383911,-0.0178833
1601136951190,349,0.36010742,-0.98516846,-0.121154785
1601136951199,350,0.35009766,-1.0383911,-0.0178833
1601136951199,351,0.35009766,-1.0383911,-0.0178833
1601136951199,352,0.2890625,-1.0667114,0.045837402
1601136951200,353,0.35009766,-1.0383911,-0.0178833
1601136951200,354,0.36010742,-0.98516846,-0.121154785
1601136951201,355,0.36010742,-0.98516846,-0.121154785
1601136951201,356,0.36010742,-0.98516846,-0.121154785
1601136951201,357,0.35009766,-1.0383911,-0.0178833
1601136951201,358,0.36010742,-0.98516846,-0.121154785
1601136951227,359,0.35009766,-1.0383911,-0.0178833
1601136951227,360,0.2890625,-1.0667114,0.045837402
1601136951227,361,0.16699219,-1.0396118,-0.032287598
1601136951228,362,0.2890625,-1.0667114,0.045837402
1601136951228,363,-0.13183594,-0.95318604,-0.21759033
1601136951228,364,0.2890625,-1.0667114,0.045837402
1601136951228,365,0.2890625,-1.0667114,0.045837402
1601136951228,366,0.16699219,-1.0396118,-0.032287598
1601136951228,367,0.35009766,-1.0383911,-0.0178833
1601136951228,368,-0.13183594,-0.95318604,-0.21759033
1601136951229,369,0.35009766,-1.0383911,-0.0178833
1601136951229,370,0.16699219,-1.0396118,-0.032287598
1601136951229,371,0.16699219,-1.0396118,-0.032287598
1601136951230,372,0.2890625,-1.0667114,0.045837402
1601136951232,373,0.35009766,-1.0383911,-0.0178833
1601136951232,374,0.16699219,-1.0396118,-0.032287598
1601136951232,375,0.16699219,-1.0396118,-0.032287598
1601136951232,376,-0.13183594,-0.95318604,-0.21759033
1601136951232,377,-0.13183594,-0.95318604,-0.21759033
1601136951232,378,0.2890625,-1.0667114,0.045837402
1601136951232,379,0.23095703,-1.241272,0.09686279
1601136951232,380,-0.13183594,-0.95318604,-0.21759033
1601136951232,381,0.16699219,-1.0396118,-0.032287598
1601136951233,382,-0.13183594,-0.95318604,-0.21759033
1601136951233,383,0.23095703,-1.241272,0.09686279
1601136951233,384,0.23095703,-1.241272,0.09686279
1601136951233,385,0.07739258,-1.1426392,-0.0256958
1601136951233,386,-0.13183594,-0.95318604,-0.21759033
1601136951233,387,0.2890625,-1.0667114,0.045837402
1601136951233,388,0.12963867,-0.82037354,0.04901123
1601136951233,389,0.2890625,-1.0667114,0.045837402
1601136951233,390,0.23095703,-1.241272,0.09686279
1601136951233,391,0.07739258,-1.1426392,-0.0256958
1601136951233,392,-0.13183594,-0.95318604,-0.21759033
1601136951233,393,0.07739258,-1.1426392,-0.0256958
1601136951234,394,0.07739258,-1.1426392,-0.0256958
1601136951234,395,0.23095703,-1.241272,0.09686279
1601136951234,396,0.16699219,-1.0396118,-0.032287598
1601136951234,397,0.12963867,-0.82037354,0.04901123
1601136951234,398,0.23095703,-1.241272,0.09686279
1601136951234,399,-0.13183594,-0.95318604,-0.21759033
1601136951234,400,0.072753906,-0.43707275,-0.13067627
1601136951234,401,0.12963867,-0.82037354,0.04901123
1601136951234,402,0.23095703,-1.241272,0.09686279
1601136951234,403,0.23095703,-1.241272,0.09686279
1601136951235,404,0.16357422,-1.2976685,-0.30621338
1601136951235,405,0.07739258,-1.1426392,-0.0256958
1601136951239,406,0.16699219,-1.0396118,-0.032287598
1601136951239,407,0.23095703,-1.241272,0.09686279
1601136951239,408,0.07739258,-1.1426392,-0.0256958
1601136951239,409,0.12963867,-0.82037354,0.04901123
1601136951239,410,0.12963867,-0.82037354,0.04901123
1601136951240,411,0.072753906,-0.43707275,-0.13067627
1601136951240,412,0.07739258,-1.1426392,-0.0256958
1601136951240,413,0.21191406,-1.7495728,0.12030029
1601136951240,414,0.072753906,-0.43707275,-0.13067627
1601136951240,415,0.16357422,-1.2976685,-0.30621338
1601136951240,416,0.12963867,-0.82037354,0.04901123
1601136951240,417,0.07739258,-1.1426392,-0.0256958
1601136951240,418,0.16357422,-1.2976685,-0.30621338
1601136951241,419,-0.13183594,-0.95318604,-0.21759033
1601136951241,420,0.072753906,-0.43707275,-0.13067627
1601136951241,421,0.12963867,-0.82037354,0.04901123
1601136951241,422,0.21191406,-1.7495728,0.12030029
1601136951241,423,0.12963867,-0.82037354,0.04901123
1601136951241,424,0.072753906,-0.43707275,-0.13067627
1601136951243,425,0.16357422,-1.2976685,-0.30621338
1601136951246,426,0.23095703,-1.241272,0.09686279
1601136951246,427,0.072753906,-0.43707275,-0.13067627
1601136951250,428,0.07739258,-1.1426392,-0.0256958
1601136951250,429,0.07739258,-1.1426392,-0.0256958
1601136951251,430,0.072753906,-0.43707275,-0.13067627
1601136951251,431,0.24707031,-1.0779419,-0.13580322
1601136951252,432,0.12963867,-0.82037354,0.04901123
1601136951252,433,0.072753906,-0.43707275,-0.13067627
1601136951252,434,0.16357422,-1.2976685,-0.30621338
1601136951252,435,0.21191406,-1.7495728,0.12030029
1601136951252,436,0.16357422,-1.2976685,-0.30621338
1601136951252,437,0.21191406,-1.7495728,0.12030029
1601136951252,438,0.12963867,-0.82037354,0.04901123
1601136951258,439,0.16357422,-1.2976685,-0.30621338
1601136951258,440,-0.019042969,-0.487854,-0.13043213
1601136951258,441,0.072753906,-0.43707275,-0.13067627
1601136951258,442,0.072753906,-0.43707275,-0.13067627
1601136951258,443,0.21191406,-1.7495728,0.12030029
1601136951259,444,0.21191406,-1.7495728,0.12030029
1601136951259,445,0.16357422,-1.2976685,-0.30621338
1601136951259,446,0.24707031,-1.0779419,-0.13580322
1601136951259,447,0.21191406,-1.7495728,0.12030029
1601136951259,448,-0.019042969,-0.487854,-0.13043213
1601136951259,449,0.21191406,-1.7495728,0.12030029
1601136951268,450,-0.2763672,-0.38946533,-0.2937622
1601136951268,451,0.16357422,-1.2976685,-0.30621338
1601136951268,452,0.24707031,-1.0779419,-0.13580322
1601136951268,453,0.24707031,-1.0779419,-0.13580322
1601136951268,454,0.24707031,-1.0779419,-0.13580322
1601136951269,455,0.24707031,-1.0779419,-0.13580322
1601136951269,456,-0.019042969,-0.487854,-0.13043213
1601136951269,457,-0.2763672,-0.38946533,-0.2937622
1601136951269,458,-0.019042969,-0.487854,-0.13043213
1601136951269,459,-0.2763672,-0.38946533,-0.2937622
1601136951269,460,0.24707031,-1.0779419,-0.13580322
1601136951269,461,0.103759766,-1.8955688,-0.05645752
1601136951269,462,-0.019042969,-0.487854,-0.13043213
1601136951269,463,0.103759766,-1.8955688,-0.05645752
1601136951270,464,0.103759766,-1.8955688,-0.05645752
1601136951270,465,-0.03564453,-1.3672485,-0.19342041
1601136951270,466,-0.2763672,-0.38946533,-0.2937622
1601136951270,467,-0.03564453,-1.3672485,-0.19342041
1601136951270,468,-0.2763672,-0.38946533,-0.2937622
1601136951270,469,0.103759766,-1.8955688,-0.05645752
1601136951270,470,0.21191406,-1.7495728,0.12030029
1601136951271,471,-0.019042969,-0.487854,-0.13043213
1601136951271,472,-0.03564453,-1.3672485,-0.19342041
1601136951274,473,-0.019042969,-0.487854,-0.13043213
1601136951275,474,0.16357422,-1.2976685,-0.30621338
1601136951283,475,0.32421875,-0.6416626,0.04534912
1601136951283,476,0.103759766,-1.8955688,-0.05645752
1601136951283,477,0.32421875,-0.6416626,0.04534912
1601136951288,478,0.17797852,-0.010559082,-0.26055908
1601136951289,479,-0.037109375,-1.6358032,-0.34454346
1601136951289,480,0.24707031,-1.0779419,-0.13580322
1601136951289,481,-0.2763672,-0.38946533,-0.2937622
1601136951289,482,0.51538086,-1.7810669,0.29241943
1601136951289,483,0.24707031,-1.0779419,-0.13580322
1601136951289,484,0.32421875,-0.6416626,0.04534912
1601136951292,485,-0.2763672,-0.38946533,-0.2937622
1601136951292,486,0.17797852,-0.010559082,-0.26055908
1601136951294,487,0.21191406,-1.7495728,0.12030029
1601136951304,488,-0.019042969,-0.487854,-0.13043213
1601136951305,489,-0.019042969,-0.487854,-0.13043213
1601136951305,490,0.103759766,-1.8955688,-0.05645752
1601136951305,491,-0.03564453,-1.3672485,-0.19342041
1601136951305,492,-0.2763672,-0.38946533,-0.2937622
1601136951305,493,-0.03564453,-1.3672485,-0.19342041
1601136951305,494,0.2854004,-1.1524048,0.06365967
1601136951305,495,0.103759766,-1.8955688,-0.05645752
1601136951306,496,-0.037109375,-1.6358032,-0.34454346
1601136951307,497,0.24707031,-1.0779419,-0.13580322
1601136951307,498,-0.019042969,-0.487854,-0.13043213
1601136951326,499,0.17797852,-0.010559082,-0.26055908
1601136951326,500,-0.2763672,-0.38946533,-0.2937622
1601136951327,501,0.103759766,-1.8955688,-0.05645752
1601136951327,502,-0.037109375,-1.6358032,-0.34454346
1601136951327,503,0.103759766,-1.8955688,-0.05645752
1601136951327,504,0.32421875,-0.6416626,0.04534912
1601136951327,505,0.51538086,-1.7810669,0.29241943
1601136951327,506,-0.2763672,-0.38946533,-0.2937622
1601136951327,507,-0.03564453,-1.3672485,-0.19342041
1601136951327,508,0.32421875,-0.6416626,0.04534912
1601136951327,509,0.32421875,-0.6416626,0.04534912
1601136951328,510,0.103759766,-1.8955688,-0.05645752
1601136951328,511,0.17797852,-0.010559082,-0.26055908
1601136951328,512,-0.03564453,-1.3672485,-0.19342041
1601136951328,513,0.51538086,-1.7810669,0.29241943
1601136951328,514,-0.03564453,-1.3672485,-0.19342041
1601136951328,515,-0.037109375,-1.6358032,-0.34454346
1601136951328,516,0.2854004,-1.1524048,0.06365967
1601136951328,517,0.32421875,-0.6416626,0.04534912
1601136951328,518,0.51538086,-1.7810669,0.29241943
1601136951329,519,-0.03564453,-1.3672485,-0.19342041
1601136951329,520,-0.21459961,-0.19195557,-0.26617432
1601136951329,521,0.17797852,-0.010559082,-0.26055908
1601136951329,522,-0.03564453,-1.3672485,-0.19342041
1601136951330,523,-0.037109375,-1.6358032,-0.34454346
1601136951330,524,0.51538086,-1.7810669,0.29241943
1601136951331,525,0.17797852,-0.010559082,-0.26055908
1601136951331,526,0.32421875,-0.6416626,0.04534912
1601136951331,527,0.2854004,-1.1524048,0.06365967
1601136951332,528,-0.21459961,-0.19195557,-0.26617432
1601136951334,529,0.32421875,-0.6416626,0.04534912
1601136951366,530,0.17797852,-0.010559082,-0.26055908
1601136951366,531,0.2854004,-1.1524048,0.06365967
1601136951366,532,-0.037109375,-1.6358032,-0.34454346
1601136951366,533,0.17797852,-0.010559082,-0.26055908
1601136951366,534,0.51538086,-1.7810669,0.29241943
1601136951366,535,0.17797852,-0.010559082,-0.26055908
1601136951366,536,0.2854004,-1.1524048,0.06365967
1601136951367,537,-0.36914062,-0.51226807,-0.47662354
1601136951367,538,-0.21459961,-0.19195557,-0.26617432
1601136951368,539,-0.037109375,-1.6358032,-0.34454346
1601136951368,540,-0.21459961,-0.19195557,-0.26617432
1601136951370,541,-0.037109375,-1.6358032,-0.34454346
1601136951370,542,-0.21459961,-0.19195557,-0.26617432
1601136951370,543,-0.36914062,-0.51226807,-0.47662354
1601136951371,544,0.2854004,-1.1524048,0.06365967
1601136951371,545,-0.36914062,-0.51226807,-0.47662354
1601136951371,546,0.32421875,-0.6416626,0.04534912
1601136951372,547,-0.21459961,-0.19195557,-0.26617432
1601136951372,548,0.48095703,-1.984436,0.1564331
1601136951372,549,-0.36914062,-0.51226807,-0.47662354
1601136951372,550,0.51538086,-1.7810669,0.29241943
1601136951372,551,0.48095703,-1.984436,0.1564331
1601136951372,552,-0.36914062,-0.51226807,-0.47662354
1601136951372,553,-0.037109375,-1.6358032,-0.34454346
1601136951373,554,0.48095703,-1.984436,0.1564331
1601136951373,555,0.48095703,-1.984436,0.1564331
1601136951373,556,0.22949219,-0.98809814,-0.03326416
1601136951373,557,-0.36914062,-0.51226807,-0.47662354
1601136951373,558,0.22949219,-0.98809814,-0.03326416
1601136951373,559,0.22949219,-0.98809814,-0.03326416
1601136951373,560,0.51538086,-1.7810669,0.29241943
1601136951373,561,0.2854004,-1.1524048,0.06365967
1601136951373,562,0.48095703,-1.984436,0.1564331
1601136951373,563,0.2854004,-1.1524048,0.06365967
1601136951373,564,0.22949219,-0.98809814,-0.03326416
1601136951374,565,0.22949219,-0.98809814,-0.03326416
1601136951375,566,0.18432617,-0.5154419,0.11517334
1601136951375,567,0.18432617,-0.5154419,0.11517334
1601136951375,568,-0.14575195,-0.27911377,-0.48712158
1601136951376,569,0.48095703,-1.984436,0.1564331
1601136951376,570,0.18432617,-0.5154419,0.11517334
1601136951376,571,0.55566406,-1.9998169,0.12860107
1601136951376,572,0.18432617,-0.5154419,0.11517334
1601136951376,573,0.22949219,-0.98809814,-0.03326416
1601136951376,574,-0.14575195,-0.27911377,-0.48712158
1601136951376,575,0.18432617,-0.5154419,0.11517334
1601136951376,576,0.17797852,-0.010559082,-0.26055908
1601136951376,577,0.51538086,-1.7810669,0.29241943
1601136951376,578,-0.21459961,-0.19195557,-0.26617432
1601136951376,579,-0.14575195,-0.27911377,-0.48712158
1601136951376,580,0.018798828,-1.3418579,0.101257324
1601136951376,581,-0.21459961,-0.19195557,-0.26617432
1601136951377,582,-0.36914062,-0.51226807,-0.47662354
1601136951377,583,0.55566406,-1.9998169,0.12860107
1601136951377,584,-0.037109375,-1.6358032,-0.34454346
1601136951377,585,-0.14575195,-0.27911377,-0.48712158
1601136951378,586,0.55566406,-1.9998169,0.12860107
1601136951378,587,0.47998047,-0.7835083,0.08538818
1601136951382,588,-0.14575195,-0.27911377,-0.48712158
1601136951382,589,0.48095703,-1.984436,0.1564331
1601136951382,590,0.018798828,-1.3418579,0.101257324
1601136951382,591,0.22949219,-0.98809814,-0.03326416
1601136951383,592,0.47998047,-0.7835083,0.08538818
1601136951383,593,0.018798828,-1.3418579,0.101257324
1601136951383,594,0.55566406,-1.9998169,0.12860107
1601136951383,595,-0.36914062,-0.51226807,-0.47662354
1601136951383,596,0.48095703,-1.984436,0.1564331
1601136951389,597,0.51538086,-1.7810669,0.29241943
1601136951389,598,0.18432617,-0.5154419,0.11517334
1601136951389,599,0.2854004,-1.1524048,0.06365967
1601136951389,600,-0.14575195,-0.27911377,-0.48712158
1601136951390,601,0.18432617,-0.5154419,0.11517334
1601136951390,602,0.55566406,-1.9998169,0.12860107
1601136951390,603,0.2854004,-1.1524048,0.06365967
1601136951390,604,0.22949219,-0.98809814,-0.03326416
1601136951390,605,-0.21459961,-0.19195557,-0.26617432
1601136951390,606,0.018798828,-1.3418579,0.101257324
1601136951390,607,-0.14575195,-0.27911377,-0.48712158
1601136951390,608,-0.21459961,-0.19195557,-0.26617432
1601136951390,609,-0.36914062,-0.51226807,-0.47662354
1601136951390,610,0.55566406,-1.9998169,0.12860107
1601136951390,611,0.47998047,-0.7835083,0.08538818
1601136951390,612,0.55566406,-1.9998169,0.12860107
1601136951395,613,0.018798828,-1.3418579,0.101257324
1601136951395,614,0.018798828,-1.3418579,0.101257324
1601136951395,615,0.18432617,-0.5154419,0.11517334
1601136951395,616,0.47998047,-0.7835083,0.08538818
1601136951395,617,-0.36914062,-0.51226807,-0.47662354
1601136951395,618,0.47998047,-0.7835083,0.08538818
1601136951396,619,0.018798828,-1.3418579,0.101257324
1601136951396,620,0.47998047,-0.7835083,0.08538818
1601136951400,621,0.48095703,-1.984436,0.1564331
1601136951400,622,0.22949219,-0.98809814,-0.03326416
1601136951400,623,0.47998047,-0.7835083,0.08538818
1601136951400,624,0.18432617,-0.5154419,0.11517334
1601136951402,625,-0.14575195,-0.27911377,-0.48712158
1601136951403,626,0.48095703,-1.984436,0.1564331
1601136951404,627,0.55566406,-1.9998169,0.12860107
1601136951404,628,-0.14575195,-0.27911377,-0.48712158
1601136951404,629,0.22949219,-0.98809814,-0.03326416
1601136951405,630,0.018798828,-1.3418579,0.101257324
1601136951405,631,0.18432617,-0.5154419,0.11517334
1601136951405,632,0.55566406,-1.9998169,0.12860107
1601136951409,633,0.47998047,-0.7835083,0.08538818
1601136951409,634,-0.14575195,-0.27911377,-0.48712158
1601136951409,635,0.018798828,-1.3418579,0.101257324
1601136951409,636,0.55566406,-1.9998169,0.12860107
1601136951409,637,0.018798828,-1.3418579,0.101257324
1601136951410,638,0.47998047,-0.7835083,0.08538818
1601136951410,639,0.47998047,-0.7835083,0.08538818
1601136953673,640,-0.29296875,-0.2732544,-0.24371338
1601136953673,641,-0.29296875,-0.2732544,-0.24371338
1601136953673,642,-0.29296875,-0.2732544,-0.24371338
1601136953673,643,-0.29296875,-0.2732544,-0.24371338
1601136953673,644,-0.29296875,-0.2732544,-0.24371338
1601136953673,645,-0.29296875,-0.2732544,-0.24371338
1601136953673,646,-0.4567871,-0.9573364,-0.2781372
1601136953673,647,-0.29296875,-0.2732544,-0.24371338
1601136953673,648,-0.29296875,-0.2732544,-0.24371338
1601136953674,649,-0.29296875,-0.2732544,-0.24371338
1601136953682,650,-0.29296875,-0.2732544,-0.24371338
1601136953683,651,-0.4567871,-0.9573364,-0.2781372
1601136953683,652,-0.4567871,-0.9573364,-0.2781372
1601136953683,653,0.50439453,-1.6799927,-0.06109619
1601136953683,654,-0.4567871,-0.9573364,-0.2781372
1601136953683,655,0.50439453,-1.6799927,-0.06109619
1601136953683,656,-0.4567871,-0.9573364,-0.2781372
1601136953683,657,-0.4567871,-0.9573364,-0.2781372
1601136953683,658,-0.4567871,-0.9573364,-0.2781372
1601136953683,659,0.2524414,-1.2522583,0.055114746
1601136953683,660,-0.4567871,-0.9573364,-0.2781372
1601136953684,661,0.50439453,-1.6799927,-0.06109619
1601136953684,662,-0.4567871,-0.9573364,-0.2781372
1601136953684,663,0.50439453,-1.6799927,-0.06109619
1601136953684,664,0.50439453,-1.6799927,-0.06109619
1601136953684,665,0.2524414,-1.2522583,0.055114746
1601136953684,666,0.2524414,-1.2522583,0.055114746
1601136953685,667,0.50439453,-1.6799927,-0.06109619
1601136953686,668,0.2524414,-1.2522583,0.055114746
1601136953691,669,0.2524414,-1.2522583,0.055114746
1601136953691,670,0.50439453,-1.6799927,-0.06109619
1601136953691,671,0.2524414,-1.2522583,0.055114746
1601136953691,672,0.1484375,-0.56256104,0.078308105
1601136953691,673,0.50439453,-1.6799927,-0.06109619
1601136953692,674,0.2524414,-1.2522583,0.055114746
1601136953692,675,-0.4567871,-0.9573364,-0.2781372
1601136953692,676,0.1484375,-0.56256104,0.078308105
1601136953692,677,0.1484375,-0.56256104,0.078308105
1601136953692,678,0.1484375,-0.56256104,0.078308105
1601136953692,679,0.007080078,-0.16314697,-0.19366455
1601136953693,680,0.1484375,-0.56256104,0.078308105
1601136953693,681,0.2524414,-1.2522583,0.055114746
1601136953701,682,0.007080078,-0.16314697,-0.19366455
1601136953701,683,0.1484375,-0.56256104,0.078308105
1601136953702,684,0.007080078,-0.16314697,-0.19366455
1601136953702,685,0.1484375,-0.56256104,0.078308105
1601136953702,686,0.007080078,-0.16314697,-0.19366455
1601136953702,687,0.007080078,-0.16314697,-0.19366455
1601136953702,688,0.007080078,-0.16314697,-0.19366455
1601136953702,689,0.3005371,-1.8589478,-0.109191895
1601136953702,690,0.50439453,-1.6799927,-0.06109619
1601136953702,691,0.1484375,-0.56256104,0.078308105
1601136953702,692,0.3005371,-1.8589478,-0.109191895
1601136953702,693,0.007080078,-0.16314697,-0.19366455
1601136953707,694,0.39575195,-1.3225708,0.64642334
1601136953707,695,0.3005371,-1.8589478,-0.109191895
1601136953708,696,0.007080078,-0.16314697,-0.19366455
1601136953710,697,0.3005371,-1.8589478,-0.109191895
1601136953710,698,0.3005371,-1.8589478,-0.109191895
1601136953710,699,0.39575195,-1.3225708,0.64642334
1601136953710,700,0.50439453,-1.6799927,-0.06109619
1601136953710,701,0.2524414,-1.2522583,0.055114746
1601136953710,702,0.3005371,-1.8589478,-0.109191895
1601136953710,703,0.3005371,-1.8589478,-0.109191895
1601136953710,704,0.27148438,-1.1167603,0.23284912
1601136953713,705,0.3005371,-1.8589478,-0.109191895
1601136953713,706,0.39575195,-1.3225708,0.64642334
1601136953713,707,0.27148438,-1.1167603,0.23284912
1601136953713,708,0.2524414,-1.2522583,0.055114746
1601136953714,709,0.39575195,-1.3225708,0.64642334
1601136953715,710,0.1484375,-0.56256104,0.078308105
1601136953715,711,0.1484375,-0.56256104,0.078308105
1601136953715,712,0.39575195,-1.3225708,0.64642334
1601136953715,713,0.39575195,-1.3225708,0.64642334
1601136953734,714,0.27148438,-1.1167603,0.23284912
1601136953734,715,0.39575195,-1.3225708,0.64642334
1601136953735,716,0.27148438,-1.1167603,0.23284912
1601136953735,717,0.009277344,-0.6177368,-0.20172119
1601136953735,718,0.39575195,-1.3225708,0.64642334
1601136953736,719,0.27148438,-1.1167603,0.23284912
1601136953736,720,0.007080078,-0.16314697,-0.19366455
1601136953736,721,-0.26782227,-0.17706299,-0.17022705
1601136953736,722,0.27148438,-1.1167603,0.23284912
1601136953736,723,0.009277344,-0.6177368,-0.20172119
1601136953736,724,-7.324219E-4,-1.6838989,-0.18585205
1601136953736,725,0.3005371,-1.8589478,-0.109191895
1601136953736,726,0.27148438,-1.1167603,0.23284912
1601136953736,727,0.39575195,-1.3225708,0.64642334
1601136953736,728,0.009277344,-0.6177368,-0.20172119
1601136953737,729,0.27148438,-1.1167603,0.23284912
1601136953737,730,0.009277344,-0.6177368,-0.20172119
1601136953737,731,-0.26782227,-0.17706299,-0.17022705
1601136953737,732,0.009277344,-0.6177368,-0.20172119
1601136953737,733,0.27148438,-1.1167603,0.23284912
1601136953737,734,-0.26782227,-0.17706299,-0.17022705
1601136953737,735,0.10546875,-1.4314575,0.09051514
1601136953738,736,0.009277344,-0.6177368,-0.20172119
1601136953738,737,0.009277344,-0.6177368,-0.20172119
1601136953739,738,-0.26782227,-0.17706299,-0.17022705
1601136953739,739,0.009277344,-0.6177368,-0.20172119
1601136953740,740,0.009277344,-0.6177368,-0.20172119
1601136953741,741,-0.26782227,-0.17706299,-0.17022705
1601136953741,742,0.007080078,-0.16314697,-0.19366455
1601136953741,743,-7.324219E-4,-1.6838989,-0.18585205
1601136953742,744,-0.26782227,-0.17706299,-0.17022705
1601136953742,745,0.10546875,-1.4314575,0.09051514
1601136953742,746,-7.324219E-4,-1.6838989,-0.18585205
1601136953742,747,0.18896484,-1.2019653,-0.0022583008
1601136953743,748,-7.324219E-4,-1.6838989,-0.18585205
1601136953743,749,-0.26782227,-0.17706299,-0.17022705
1601136953743,750,-7.324219E-4,-1.6838989,-0.18585205
1601136953743,751,-7.324219E-4,-1.6838989,-0.18585205
1601136953743,752,0.3005371,-1.8589478,-0.109191895
1601136953744,753,0.10546875,-1.4314575,0.09051514
1601136953744,754,0.18896484,-1.2019653,-0.0022583008
1601136953744,755,-0.26782227,-0.17706299,-0.17022705
1601136953748,756,0.10546875,-1.4314575,0.09051514
1601136953748,757,0.0625,-0.35894775,-0.0569458
1601136953748,758,0.10546875,-1.4314575,0.09051514
1601136953749,759,-0.26782227,-0.17706299,-0.17022705
1601136953749,760,0.10546875,-1.4314575,0.09051514
1601136953749,761,-7.324219E-4,-1.6838989,-0.18585205
1601136953749,762,0.18896484,-1.2019653,-0.0022583008
1601136953750,763,0.18896484,-1.2019653,-0.0022583008
1601136953750,764,0.0625,-0.35894775,-0.0569458
1601136953750,765,-7.324219E-4,-1.6838989,-0.18585205
1601136953750,766,0.0625,-0.35894775,-0.0569458
1601136953750,767,0.18896484,-1.2019653,-0.0022583008
1601136953750,768,0.044921875,-0.36773682,-0.44903564
1601136953750,769,-7.324219E-4,-1.6838989,-0.18585205
1601136953750,770,0.10546875,-1.4314575,0.09051514
1601136953751,771,0.0625,-0.35894775,-0.0569458
1601136953752,772,0.10546875,-1.4314575,0.09051514
1601136953752,773,0.044921875,-0.36773682,-0.44903564
1601136953752,774,0.18896484,-1.2019653,-0.0022583008
1601136953752,775,0.10546875,-1.4314575,0.09051514
1601136953752,776,0.0625,-0.35894775,-0.0569458
1601136953752,777,0.18896484,-1.2019653,-0.0022583008
1601136953752,778,0.25170898,-1.8845825,0.5036011
1601136953752,779,0.25170898,-1.8845825,0.5036011
1601136953752,780,0.18896484,-1.2019653,-0.0022583008
1601136953752,781,0.0625,-0.35894775,-0.0569458
1601136953752,782,0.39575195,-1.3225708,0.64642334
1601136953753,783,0.044921875,-0.36773682,-0.44903564
1601136953753,784,0.27148438,-1.1167603,0.23284912
1601136953753,785,0.0625,-0.35894775,-0.0569458
1601136953753,786,0.044921875,-0.36773682,-0.44903564
1601136953753,787,0.4189453,-1.58844,0.12835693
1601136953753,788,0.23242188,-0.7385864,0.020690918
1601136953758,789,0.044921875,-0.36773682,-0.44903564
1601136953758,790,0.25170898,-1.8845825,0.5036011
1601136953758,791,0.25170898,-1.8845825,0.5036011
1601136953758,792,0.25170898,-1.8845825,0.5036011
1601136953758,793,0.009277344,-0.6177368,-0.20172119
1601136953758,794,0.4189453,-1.58844,0.12835693
1601136953758,795,0.0625,-0.35894775,-0.0569458
1601136953759,796,0.4189453,-1.58844,0.12835693
1601136953759,797,-0.29663086,-0.30743408,-0.22930908
1601136953759,798,0.044921875,-0.36773682,-0.44903564
1601136953760,799,0.18896484,-1.2019653,-0.0022583008
1601136953760,800,0.4189453,-1.58844,0.12835693
1601136953761,801,0.23242188,-0.7385864,0.020690918
1601136953782,802,0.044921875,-0.36773682,-0.44903564
1601136953783,803,-0.30493164,-0.60601807,-0.36383057
1601136953783,804,0.044921875,-0.36773682,-0.44903564
1601136953783,805,0.25170898,-1.8845825,0.5036011
1601136953783,806,0.4189453,-1.58844,0.12835693
1601136953783,807,0.25170898,-1.8845825,0.5036011
1601136953784,808,-0.26782227,-0.17706299,-0.17022705
1601136953784,809,0.23242188,-0.7385864,0.020690918
1601136953785,810,-0.29663086,-0.30743408,-0.22930908
1601136953785,811,0.23242188,-0.7385864,0.020690918
1601136953785,812,0.23242188,-0.7385864,0.020690918
1601136953785,813,-7.324219E-4,-1.6838989,-0.18585205
1601136953785,814,0.20166016,-1.9702759,0.08856201
1601136953786,815,-0.29663086,-0.30743408,-0.22930908
1601136953786,816,0.25170898,-1.8845825,0.5036011
1601136953788,817,-0.30493164,-0.60601807,-0.36383057
1601136953788,818,-0.30493164,-0.60601807,-0.36383057
1601136953788,819,0.0625,-0.35894775,-0.0569458
1601136953788,820,0.20166016,-1.9702759,0.08856201
1601136953788,821,0.10546875,-1.4314575,0.09051514
1601136953788,822,0.044921875,-0.36773682,-0.44903564
1601136953789,823,0.4189453,-1.58844,0.12835693
1601136953789,824,-0.29663086,-0.30743408,-0.22930908
1601136953789,825,0.03149414,-1.322815,-0.10845947
1601136953789,826,0.03149414,-1.322815,-0.10845947
1601136953789,827,0.4189453,-1.58844,0.12835693
1601136953789,828,0.15234375,-0.7085571,0.11956787
1601136953789,829,0.15234375,-0.7085571,0.11956787
1601136953789,830,0.20166016,-1.9702759,0.08856201
1601136953790,831,0.4189453,-1.58844,0.12835693
1601136953790,832,0.25170898,-1.8845825,0.5036011
1601136953790,833,0.23242188,-0.7385864,0.020690918
1601136953790,834,0.23242188,-0.7385864,0.020690918
1601136953790,835,-0.30493164,-0.60601807,-0.36383057
1601136953790,836,0.23242188,-0.7385864,0.020690918
1601136953790,837,0.06665039,-0.17095947,-0.31793213
1601136953790,838,0.20166016,-1.9702759,0.08856201
1601136953790,839,0.18896484,-1.2019653,-0.0022583008
1601136953790,840,0.03149414,-1.322815,-0.10845947
1601136953790,841,0.12158203,-1.22052,-0.02911377
1601136953790,842,0.06665039,-0.17095947,-0.31793213
1601136953791,843,0.44458008,-1.4859009,0.45306396
1601136953791,844,-0.29663086,-0.30743408,-0.22930908
1601136953791,845,-0.29663086,-0.30743408,-0.22930908
1601136953791,846,0.12158203,-1.22052,-0.02911377
1601136953791,847,0.37670898,-1.3587036,0.08270264
1601136953791,848,-0.29663086,-0.30743408,-0.22930908
1601136953791,849,0.03149414,-1.322815,-0.10845947
1601136953791,850,-0.30493164,-0.60601807,-0.36383057
1601136953791,851,0.44458008,-1.4859009,0.45306396
1601136953791,852,0.4189453,-1.58844,0.12835693
1601136953791,853,0.15234375,-0.7085571,0.11956787
1601136953791,854,-0.30493164,-0.60601807,-0.36383057
1601136953795,855,0.15234375,-0.7085571,0.11956787
1601136953795,856,0.06518555,-0.66729736,-0.028869629
1601136953795,857,-0.30493164,-0.60601807,-0.36383057
1601136953795,858,0.0625,-0.35894775,-0.0569458
1601136953795,859,0.20166016,-1.9702759,0.08856201
1601136953795,860,-0.29663086,-0.30743408,-0.22930908
1601136953796,861,0.06665039,-0.17095947,-0.31793213
1601136953796,862,0.03149414,-1.322815,-0.10845947
1601136953796,863,0.37670898,-1.3587036,0.08270264
1601136953796,864,0.20166016,-1.9702759,0.08856201
1601136953796,865,0.06665039,-0.17095947,-0.31793213
1601136953806,866,0.23242188,-0.7385864,0.020690918
1601136953810,867,0.15234375,-0.7085571,0.11956787
1601136953810,868,0.20166016,-1.9702759,0.08856201
1601136953810,869,-0.29663086,-0.30743408,-0.22930908
1601136953810,870,-0.30493164,-0.60601807,-0.36383057
1601136953810,871,0.06518555,-0.66729736,-0.028869629
1601136953810,872,0.044921875,-0.36773682,-0.44903564
1601136953810,873,-0.17407227,-0.3357544,-0.15167236
1601136953810,874,-0.17407227,-0.3357544,-0.15167236
1601136953810,875,0.12158203,-1.22052,-0.02911377
1601136953810,876,-0.19335938,-0.7522583,-0.27789307
1601136953811,877,0.44458008,-1.4859009,0.45306396
1601136953811,878,0.12158203,-1.22052,-0.02911377
1601136953811,879,0.03149414,-1.322815,-0.10845947
1601136953811,880,-0.30493164,-0.60601807,-0.36383057
1601136953811,881,0.20166016,-1.9702759,0.08856201
1601136953811,882,0.03149414,-1.322815,-0.10845947
1601136953811,883,0.20166016,-1.9702759,0.08856201
1601136953811,884,0.03149414,-1.322815,-0.10845947
1601136953823,885,0.06665039,-0.17095947,-0.31793213
1601136953823,886,0.16137695,-1.9998169,0.29681396
1601136953825,887,0.37670898,-1.3587036,0.08270264
1601136953825,888,0.03149414,-1.322815,-0.10845947
1601136953825,889,0.15234375,-0.7085571,0.11956787
1601136953825,890,0.25170898,-1.8845825,0.5036011
1601136953825,891,0.06665039,-0.17095947,-0.31793213
1601136953825,892,-0.19335938,-0.7522583,-0.27789307
1601136953825,893,0.15234375,-0.7085571,0.11956787
1601136953825,894,0.44458008,-1.4859009,0.45306396
1601136953825,895,0.16137695,-1.9998169,0.29681396
1601136953825,896,0.15234375,-0.7085571,0.11956787
1601136953825,897,0.06518555,-0.66729736,-0.028869629
1601136953825,898,0.15234375,-0.7085571,0.11956787
1601136953825,899,0.06665039,-0.17095947,-0.31793213
1601136953825,900,-0.17407227,-0.3357544,-0.15167236
1601136953826,901,0.12158203,-1.22052,-0.02911377
1601136953826,902,0.06665039,-0.17095947,-0.31793213
1601136953828,903,0.37670898,-1.3587036,0.08270264
1601136953828,904,0.12158203,-1.22052,-0.02911377
1601136953828,905,0.4189453,-1.58844,0.12835693
1601136953828,906,0.12158203,-1.22052,-0.02911377
1601136953828,907,0.06665039,-0.17095947,-0.31793213
1601136953828,908,0.44458008,-1.4859009,0.45306396
1601136953828,909,0.12158203,-1.22052,-0.02911377
1601136953828,910,0.44458008,-1.4859009,0.45306396
1601136953828,911,0.12158203,-1.22052,-0.02911377
1601136953828,912,0.06518555,-0.66729736,-0.028869629
1601136953828,913,0.44458008,-1.4859009,0.45306396
1601136953828,914,0.23242188,-0.7385864,0.020690918
1601136953829,915,-0.17407227,-0.3357544,-0.15167236
1601136953829,916,-0.19335938,-0.7522583,-0.27789307
1601136953829,917,0.44458008,-1.4859009,0.45306396
1601136953829,918,0.37670898,-1.3587036,0.08270264
1601136953829,919,0.37670898,-1.3587036,0.08270264
1601136953829,920,0.37670898,-1.3587036,0.08270264
1601136953829,921,-0.29663086,-0.30743408,-0.22930908
1601136953834,922,0.16137695,-1.9998169,0.29681396
1601136953834,923,0.37670898,-1.3587036,0.08270264
1601136953834,924,0.06518555,-0.66729736,-0.028869629
1601136953835,925,0.06518555,-0.66729736,-0.028869629
1601136953835,926,0.06518555,-0.66729736,-0.028869629
1601136953835,927,-0.19335938,-0.7522583,-0.27789307
1601136953835,928,-0.17407227,-0.3357544,-0.15167236
1601136953835,929,-0.30493164,-0.60601807,-0.36383057
1601136953835,930,0.44458008,-1.4859009,0.45306396
1601136953845,931,0.06518555,-0.66729736,-0.028869629
1601136953845,932,-0.17407227,-0.3357544,-0.15167236
1601136953845,933,0.16137695,-1.9998169,0.29681396
1601136953845,934,-0.19335938,-0.7522583,-0.27789307
1601136953845,935,-0.19335938,-0.7522583,-0.27789307
1601136953845,936,0.20166016,-1.9702759,0.08856201
1601136953845,937,0.16137695,-1.9998169,0.29681396
1601136953846,938,-0.17407227,-0.3357544,-0.15167236
1601136953846,939,-0.17407227,-0.3357544,-0.15167236
1601136953846,940,0.16137695,-1.9998169,0.29681396
1601136953846,941,0.03149414,-1.322815,-0.10845947
1601136953846,942,-0.19335938,-0.7522583,-0.27789307
1601136953846,943,0.37670898,-1.3587036,0.08270264
1601136953846,944,-0.19335938,-0.7522583,-0.27789307
1601136953846,945,0.06518555,-0.66729736,-0.028869629
1601136953852,946,0.15234375,-0.7085571,0.11956787
1601136953852,947,0.16137695,-1.9998169,0.29681396
1601136953852,948,0.16137695,-1.9998169,0.29681396
1601136953852,949,-0.17407227,-0.3357544,-0.15167236
1601136953852,950,0.06665039,-0.17095947,-0.31793213
1601136953852,951,-0.19335938,-0.7522583,-0.27789307
1601136953852,952,0.12158203,-1.22052,-0.02911377
1601136953852,953,0.16137695,-1.9998169,0.29681396
1601136953852,954,0.44458008,-1.4859009,0.45306396
1601136953856,955,0.37670898,-1.3587036,0.08270264
1601136953856,956,0.06518555,-0.66729736,-0.028869629
1601136953856,957,-0.17407227,-0.3357544,-0.15167236
1601136953856,958,-0.19335938,-0.7522583,-0.27789307
1601136953856,959,0.16137695,-1.9998169,0.29681396
1601136956238,960,0.050048828,-1.3411255,0.061462402
1601136956249,961,0.050048828,-1.3411255,0.061462402
1601136956250,962,0.050048828,-1.3411255,0.061462402
1601136956252,963,0.050048828,-1.3411255,0.061462402
1601136956253,964,0.029052734,-0.60943604,0.042907715
1601136956254,965,0.029052734,-0.60943604,0.042907715
1601136956254,966,0.1508789,-0.11529541,-0.28009033
1601136956254,967,0.029052734,-0.60943604,0.042907715
1601136956255,968,0.029052734,-0.60943604,0.042907715
1601136956255,969,0.1508789,-0.11529541,-0.28009033
1601136956255,970,0.050048828,-1.3411255,0.061462402
1601136956255,971,0.1508789,-0.11529541,-0.28009033
1601136956260,972,0.050048828,-1.3411255,0.061462402
1601136956260,973,0.29589844,-1.4653931,0.055114746
1601136956260,974,0.050048828,-1.3411255,0.061462402
1601136956260,975,0.46972656,-1.649231,0.12738037
1601136956260,976,0.050048828,-1.3411255,0.061462402
1601136956260,977,0.29589844,-1.4653931,0.055114746
1601136956260,978,0.029052734,-0.60943604,0.042907715
1601136956260,979,0.050048828,-1.3411255,0.061462402
1601136956260,980,0.1508789,-0.11529541,-0.28009033
1601136956260,981,0.29589844,-1.4653931,0.055114746
1601136956261,982,0.029052734,-0.60943604,0.042907715
1601136956261,983,0.050048828,-1.3411255,0.061462402
1601136956261,984,0.1508789,-0.11529541,-0.28009033
1601136956261,985,0.029052734,-0.60943604,0.042907715
1601136956261,986,0.32543945,-1.2075806,0.057556152
1601136956261,987,0.029052734,-0.60943604,0.042907715
1601136956262,988,0.46972656,-1.649231,0.12738037
1601136956265,989,0.29589844,-1.4653931,0.055114746
1601136956265,990,0.46972656,-1.649231,0.12738037
1601136956265,991,0.46972656,-1.649231,0.12738037
1601136956266,992,0.32543945,-1.2075806,0.057556152
1601136956266,993,0.32543945,-1.2075806,0.057556152
1601136956278,994,-0.11303711,-0.4331665,-0.14752197
1601136956278,995,0.32543945,-1.2075806,0.057556152
1601136956279,996,0.029052734,-0.60943604,0.042907715
1601136956279,997,0.1508789,-0.11529541,-0.28009033
1601136956279,998,0.029052734,-0.60943604,0.042907715
1601136956279,999,-0.11303711,-0.4331665,-0.14752197
1601136956279,1000,0.29589844,-1.4653931,0.055114746
1601136956279,1001,-0.11303711,-0.4331665,-0.14752197
1601136956280,1002,0.1508789,-0.11529541,-0.28009033
1601136956280,1003,0.46972656,-1.649231,0.12738037
1601136956280,1004,0.29589844,-1.4653931,0.055114746
1601136956280,1005,-0.34423828,-0.29034424,-0.24810791
1601136956280,1006,0.1508789,-0.11529541,-0.28009033
1601136956280,1007,-0.34423828,-0.29034424,-0.24810791
1601136956280,1008,-0.11303711,-0.4331665,-0.14752197
1601136956280,1009,0.1508789,-0.11529541,-0.28009033
1601136956280,1010,-0.34423828,-0.29034424,-0.24810791
1601136956280,1011,0.1508789,-0.11529541,-0.28009033
1601136956280,1012,0.15161133,-1.9597778,0.1161499
1601136956280,1013,0.32543945,-1.2075806,0.057556152
1601136956280,1014,0.46972656,-1.649231,0.12738037
1601136956290,1015,0.29589844,-1.4653931,0.055114746
1601136956291,1016,0.32543945,-1.2075806,0.057556152
1601136956291,1017,0.15161133,-1.9597778,0.1161499
1601136956291,1018,-0.11303711,-0.4331665,-0.14752197
1601136956291,1019,-0.34423828,-0.29034424,-0.24810791
1601136956291,1020,0.29589844,-1.4653931,0.055114746
1601136956291,1021,0.2541504,-1.3618774,-0.124816895
1601136956291,1022,-0.11303711,-0.4331665,-0.14752197
1601136956291,1023,0.46972656,-1.649231,0.12738037
1601136956291,1024,0.15161133,-1.9597778,0.1161499
1601136956292,1025,0.46972656,-1.649231,0.12738037
1601136956292,1026,0.29589844,-1.4653931,0.055114746
1601136956292,1027,0.29589844,-1.4653931,0.055114746
1601136956292,1028,0.2541504,-1.3618774,-0.124816895
1601136956292,1029,-0.34423828,-0.29034424,-0.24810791
1601136956292,1030,0.15161133,-1.9597778,0.1161499
1601136956293,1031,7.324219E-4,-0.8831177,0.1942749
1601136956293,1032,-0.34423828,-0.29034424,-0.24810791
1601136956301,1033,0.15161133,-1.9597778,0.1161499
1601136956302,1034,0.32543945,-1.2075806,0.057556152
1601136956302,1035,0.2541504,-1.3618774,-0.124816895
1601136956302,1036,0.46972656,-1.649231,0.12738037
1601136956302,1037,7.324219E-4,-0.8831177,0.1942749
1601136956302,1038,0.2541504,-1.3618774,-0.124816895
1601136956302,1039,0.083496094,-0.059387207,-0.17144775
1601136956302,1040,0.15161133,-1.9597778,0.1161499
1601136956302,1041,7.324219E-4,-0.8831177,0.1942749
1601136956303,1042,0.2541504,-1.3618774,-0.124816895
1601136956305,1043,0.46972656,-1.649231,0.12738037
1601136956328,1044,-0.11303711,-0.4331665,-0.14752197
1601136956328,1045,0.32543945,-1.2075806,0.057556152
1601136956329,1046,0.083496094,-0.059387207,-0.17144775
1601136956329,1047,0.32543945,-1.2075806,0.057556152
1601136956329,1048,-0.11303711,-0.4331665,-0.14752197
1601136956329,1049,0.083496094,-0.059387207,-0.17144775
1601136956329,1050,-0.11303711,-0.4331665,-0.14752197
1601136956329,1051,0.0925293,-0.78863525,-0.3352661
1601136956329,1052,0.0925293,-0.78863525,-0.3352661
1601136956329,1053,0.32543945,-1.2075806,0.057556152
1601136956329,1054,0.0925293,-0.78863525,-0.3352661
1601136956329,1055,-0.34423828,-0.29034424,-0.24810791
1601136956330,1056,0.2541504,-1.3618774,-0.124816895
1601136956330,1057,-0.11303711,-0.4331665,-0.14752197
1601136956330,1058,-0.34423828,-0.29034424,-0.24810791
1601136956330,1059,7.324219E-4,-0.8831177,0.1942749
1601136956330,1060,7.324219E-4,-0.8831177,0.1942749
1601136956330,1061,0.15161133,-1.9597778,0.1161499
1601136956330,1062,0.42944336,-1.8943481,0.57440186
1601136956330,1063,0.083496094,-0.059387207,-0.17144775
1601136956331,1064,0.42944336,-1.8943481,0.57440186
1601136956331,1065,0.2421875,-1.4868774,0.30389404
1601136956331,1066,-0.34423828,-0.29034424,-0.24810791
1601136956331,1067,0.17480469,-0.6572876,-0.066711426
1601136956332,1068,0.42944336,-1.8943481,0.57440186
1601136956332,1069,-0.30786133,-0.15386963,-0.23956299
1601136956332,1070,0.15161133,-1.9597778,0.1161499
1601136956332,1071,0.083496094,-0.059387207,-0.17144775
1601136956332,1072,0.2541504,-1.3618774,-0.124816895
1601136956332,1073,0.2421875,-1.4868774,0.30389404
1601136956332,1074,7.324219E-4,-0.8831177,0.1942749
1601136956333,1075,0.0925293,-0.78863525,-0.3352661
1601136956333,1076,0.15161133,-1.9597778,0.1161499
1601136956343,1077,0.04638672,-0.91607666,-0.09185791
1601136956344,1078,0.2541504,-1.3618774,-0.124816895
1601136956344,1079,0.06591797,-1.9050903,0.36761475
1601136956344,1080,7.324219E-4,-0.8831177,0.1942749
1601136956344,1081,7.324219E-4,-0.8831177,0.1942749
1601136956344,1082,0.083496094,-0.059387207,-0.17144775
1601136956344,1083,0.17480469,-0.6572876,-0.066711426
1601136956344,1084,0.2541504,-1.3618774,-0.124816895
1601136956344,1085,-0.34423828,-0.29034424,-0.24810791
1601136956344,1086,-0.30786133,-0.15386963,-0.23956299
1601136956345,1087,7.324219E-4,-0.8831177,0.1942749
1601136956345,1088,0.0925293,-0.78863525,-0.3352661
1601136956345,1089,0.2421875,-1.4868774,0.30389404
1601136956346,1090,0.15161133,-1.9597778,0.1161499
1601136956346,1091,0.083496094,-0.059387207,-0.17144775
1601136956346,1092,0.083496094,-0.059387207,-0.17144775
1601136956346,1093,0.0925293,-0.78863525,-0.3352661
1601136956346,1094,0.0925293,-0.78863525,-0.3352661
1601136956355,1095,0.42944336,-1.8943481,0.57440186
1601136956355,1096,0.42944336,-1.8943481,0.57440186
1601136956355,1097,0.2541504,-1.3618774,-0.124816895
1601136956355,1098,0.17480469,-0.6572876,-0.066711426
1601136956356,1099,0.083496094,-0.059387207,-0.17144775
1601136956356,1100,0.22314453,-1.4243774,0.15545654
1601136956356,1101,0.0925293,-0.78863525,-0.3352661
1601136956356,1102,0.0925293,-0.78863525,-0.3352661
1601136956356,1103,0.42944336,-1.8943481,0.57440186
1601136956356,1104,0.42944336,-1.8943481,0.57440186
1601136956359,1105,0.2421875,-1.4868774,0.30389404
1601136956359,1106,0.2421875,-1.4868774,0.30389404
1601136956361,1107,0.17480469,-0.6572876,-0.066711426
1601136956361,1108,7.324219E-4,-0.8831177,0.1942749
1601136956362,1109,0.42944336,-1.8943481,0.57440186
1601136956374,1110,0.42944336,-1.8943481,0.57440186
1601136956374,1111,0.2421875,-1.4868774,0.30389404
1601136956374,1112,0.2421875,-1.4868774,0.30389404
1601136956374,1113,-0.30786133,-0.15386963,-0.23956299
1601136956374,1114,0.17480469,-0.6572876,-0.066711426
1601136956375,1115,0.04638672,-0.91607666,-0.09185791
1601136956375,1116,-0.30786133,-0.15386963,-0.23956299
1601136956375,1117,-0.30786133,-0.15386963,-0.23956299
1601136956375,1118,0.2421875,-1.4868774,0.30389404
1601136956375,1119,0.06591797,-1.9050903,0.36761475
1601136956375,1120,0.04638672,-0.91607666,-0.09185791
1601136956375,1121,0.2421875,-1.4868774,0.30389404
1601136956375,1122,0.06591797,-1.9050903,0.36761475
1601136956375,1123,0.1015625,-0.5610962,0.10662842
1601136956376,1124,0.22314453,-1.4243774,0.15545654
1601136956376,1125,0.04638672,-0.91607666,-0.09185791
1601136956376,1126,0.083496094,-0.059387207,-0.17144775
1601136956376,1127,0.12426758,-0.021057129,-0.24786377
1601136956405,1128,0.22314453,-1.4243774,0.15545654
1601136956405,1129,0.17480469,-0.6572876,-0.066711426
1601136956405,1130,0.17480469,-0.6572876,-0.066711426
1601136956405,1131,-0.30786133,-0.15386963,-0.23956299
1601136956405,1132,0.17480469,-0.6572876,-0.066711426
1601136956405,1133,0.1015625,-0.5610962,0.10662842
1601136956406,1134,0.17480469,-0.6572876,-0.066711426
1601136956406,1135,0.04638672,-0.91607666,-0.09185791
1601136956406,1136,0.06591797,-1.9050903,0.36761475
1601136956406,1137,0.06591797,-1.9050903,0.36761475
1601136956406,1138,-0.30786133,-0.15386963,-0.23956299
1601136956406,1139,0.22314453,-1.4243774,0.15545654
1601136956407,1140,0.04638672,-0.91607666,-0.09185791
1601136956407,1141,-0.30786133,-0.15386963,-0.23956299
1601136956407,1142,0.22314453,-1.4243774,0.15545654
1601136956408,1143,-0.30786133,-0.15386963,-0.23956299
1601136956408,1144,0.12426758,-0.021057129,-0.24786377
1601136956408,1145,0.0925293,-0.78863525,-0.3352661
1601136956408,1146,0.1015625,-0.5610962,0.10662842
1601136956408,1147,0.04638672,-0.91607666,-0.09185791
1601136956408,1148,0.1015625,-0.5610962,0.10662842
1601136956408,1149,0.12426758,-0.021057129,-0.24786377
1601136956409,1150,0.06347656,-1.4190063,-0.06329346
1601136956409,1151,0.12426758,-0.021057129,-0.24786377
1601136956409,1152,0.42944336,-1.8943481,0.57440186
1601136956410,1153,0.06591797,-1.9050903,0.36761475
1601136956412,1154,0.1015625,-0.5610962,0.10662842
1601136956412,1155,0.2421875,-1.4868774,0.30389404
1601136956412,1156,0.12426758,-0.021057129,-0.24786377
1601136956412,1157,0.06347656,-1.4190063,-0.06329346
1601136956412,1158,0.06347656,-1.4190063,-0.06329346
1601136956412,1159,0.06591797,-1.9050903,0.36761475
1601136956412,1160,0.06347656,-1.4190063,-0.06329346
1601136956412,1161,0.04638672,-0.91607666,-0.09185791
1601136956412,1162,0.06347656,-1.4190063,-0.06329346
1601136956412,1163,0.04638672,-0.91607666,-0.09185791
1601136956412,1164,0.06591797,-1.9050903,0.36761475
1601136956412,1165,0.17480469,-0.6572876,-0.066711426
1601136956412,1166,0.06591797,-1.9050903,0.36761475
1601136956413,1167,0.7717285,-1.586731,0.5619507
1601136956413,1168,0.22314453,-1.4243774,0.15545654
1601136956413,1169,0.22314453,-1.4243774,0.15545654
1601136956413,1170,0.7717285,-1.586731,0.5619507
1601136956413,1171,0.22314453,-1.4243774,0.15545654
1601136956413,1172,0.7717285,-1.586731,0.5619507
1601136956421,1173,-0.30786133,-0.15386963,-0.23956299
1601136956421,1174,0.21777344,-1.3960571,0.23626709
1601136956422,1175,0.04638672,-0.91607666,-0.09185791
1601136956422,1176,0.22314453,-1.4243774,0.15545654
1601136956422,1177,0.1015625,-0.5610962,0.10662842
1601136956422,1178,0.21777344,-1.3960571,0.23626709
1601136956422,1179,0.1015625,-0.5610962,0.10662842
1601136956422,1180,0.1015625,-0.5610962,0.10662842
1601136956422,1181,0.7717285,-1.586731,0.5619507
1601136956422,1182,0.21777344,-1.3960571,0.23626709
1601136956422,1183,0.06591797,-1.9050903,0.36761475
1601136956424,1184,0.7717285,-1.586731,0.5619507
1601136956424,1185,0.1015625,-0.5610962,0.10662842
1601136956434,1186,0.12426758,-0.021057129,-0.24786377
1601136956434,1187,0.12426758,-0.021057129,-0.24786377
1601136956434,1188,0.21777344,-1.3960571,0.23626709
1601136956434,1189,0.06347656,-1.4190063,-0.06329346
1601136956434,1190,-0.080322266,-0.35699463,-0.053527832
1601136956434,1191,0.22314453,-1.4243774,0.15545654
1601136956435,1192,0.12426758,-0.021057129,-0.24786377
1601136956435,1193,0.7717285,-1.586731,0.5619507
1601136956435,1194,-0.080322266,-0.35699463,-0.053527832
1601136956435,1195,0.12426758,-0.021057129,-0.24786377
1601136956449,1196,0.06347656,-1.4190063,-0.06329346
1601136956449,1197,-0.080322266,-0.35699463,-0.053527832
1601136956449,1198,0.21777344,-1.3960571,0.23626709
1601136956449,1199,-0.080322266,-0.35699463,-0.053527832
1601136956449,1200,0.06347656,-1.4190063,-0.06329346
1601136956449,1201,0.21777344,-1.3960571,0.23626709
1601136956450,1202,-0.28100586,-0.0791626,-0.24542236
1601136956450,1203,-0.28100586,-0.0791626,-0.24542236
1601136956450,1204,-0.080322266,-0.35699463,-0.053527832
1601136956451,1205,0.06347656,-1.4190063,-0.06329346
1601136956451,1206,-0.28100586,-0.0791626,-0.24542236
1601136956451,1207,0.7717285,-1.586731,0.5619507
1601136956452,1208,0.103271484,-1.9089966,0.16912842
1601136956452,1209,-0.080322266,-0.35699463,-0.053527832
1601136956452,1210,0.21777344,-1.3960571,0.23626709
1601136956452,1211,0.7717285,-1.586731,0.5619507
1601136956452,1212,-0.080322266,-0.35699463,-0.053527832
1601136956452,1213,-0.28100586,-0.0791626,-0.24542236
1601136956452,1214,0.103271484,-1.9089966,0.16912842
1601136956466,1215,0.21411133,-1.4856567,-0.06695557
1601136956466,1216,0.21411133,-1.4856567,-0.06695557
1601136956466,1217,0.23168945,-1.0667114,0.33587646
1601136956466,1218,0.13989258,-0.3496704,-0.065979004
1601136956467,1219,0.1015625,-0.5610962,0.10662842
1601136956468,1220,0.103271484,-1.9089966,0.16912842
1601136956468,1221,-0.28100586,-0.0791626,-0.24542236
1601136956468,1222,0.103271484,-1.9089966,0.16912842
1601136956468,1223,0.12426758,-0.021057129,-0.24786377
1601136956468,1224,0.103271484,-1.9089966,0.16912842
1601136956468,1225,0.06347656,-1.4190063,-0.06329346
1601136956468,1226,-0.28100586,-0.0791626,-0.24542236
1601136956468,1227,-0.055419922,-0.19659424,-0.27056885
1601136956468,1228,0.21777344,-1.3960571,0.23626709
1601136956469,1229,0.23168945,-1.0667114,0.33587646
1601136956469,1230,0.21411133,-1.4856567,-0.06695557
1601136956469,1231,0.13989258,-0.3496704,-0.065979004
1601136956469,1232,-0.28100586,-0.0791626,-0.24542236
1601136956469,1233,-0.055419922,-0.19659424,-0.27056885
1601136956470,1234,0.21411133,-1.4856567,-0.06695557
1601136956471,1235,0.23168945,-1.0667114,0.33587646
1601136956472,1236,0.103271484,-1.9089966,0.16912842
1601136956485,1237,-0.080322266,-0.35699463,-0.053527832
1601136956485,1238,0.23168945,-1.0667114,0.33587646
1601136956485,1239,-0.28100586,-0.0791626,-0.24542236
1601136956486,1240,0.103271484,-1.9089966,0.16912842
1601136956486,1241,0.7717285,-1.586731,0.5619507
1601136956486,1242,0.7717285,-1.586731,0.5619507
1601136956486,1243,0.21777344,-1.3960571,0.23626709
1601136956486,1244,0.21777344,-1.3960571,0.23626709
1601136956486,1245,0.21411133,-1.4856567,-0.06695557
1601136956486,1246,-0.080322266,-0.35699463,-0.053527832
1601136956486,1247,-0.28100586,-0.0791626,-0.24542236
1601136956487,1248,0.13989258,-0.3496704,-0.065979004
1601136956487,1249,0.23168945,-1.0667114,0.33587646
1601136956488,1250,0.103271484,-1.9089966,0.16912842
1601136956488,1251,0.13989258,-0.3496704,-0.065979004
1601136956488,1252,0.13989258,-0.3496704,-0.065979004
1601136956488,1253,-0.080322266,-0.35699463,-0.053527832
1601136956488,1254,-0.055419922,-0.19659424,-0.27056885
1601136956488,1255,0.103271484,-1.9089966,0.16912842
1601136956495,1256,0.21411133,-1.4856567,-0.06695557
1601136956495,1257,-0.055419922,-0.19659424,-0.27056885
1601136956496,1258,0.23168945,-1.0667114,0.33587646
1601136956496,1259,-0.055419922,-0.19659424,-0.27056885
1601136956496,1260,0.13989258,-0.3496704,-0.065979004
1601136956496,1261,-0.28100586,-0.0791626,-0.24542236
1601136956496,1262,-0.055419922,-0.19659424,-0.27056885
1601136956497,1263,0.103271484,-1.9089966,0.16912842
1601136956499,1264,0.21411133,-1.4856567,-0.06695557
1601136956508,1265,0.21411133,-1.4856567,-0.06695557
1601136956509,1266,0.21411133,-1.4856567,-0.06695557
1601136956509,1267,0.21411133,-1.4856567,-0.06695557
1601136956509,1268,0.23168945,-1.0667114,0.33587646
1601136956516,1269,0.23168945,-1.0667114,0.33587646
1601136956516,1270,0.23168945,-1.0667114,0.33587646
1601136956517,1271,0.23168945,-1.0667114,0.33587646
1601136956517,1272,0.13989258,-0.3496704,-0.065979004
1601136956517,1273,0.13989258,-0.3496704,-0.065979004
1601136956517,1274,0.13989258,-0.3496704,-0.065979004
1601136956517,1275,0.13989258,-0.3496704,-0.065979004
1601136956517,1276,-0.055419922,-0.19659424,-0.27056885
1601136956517,1277,-0.055419922,-0.19659424,-0.27056885
1601136956518,1278,-0.055419922,-0.19659424,-0.27056885
1601136956522,1279,-0.055419922,-0.19659424,-0.27056885
1601136958746,1280,0.39624023,-1.9424438,0.4550171
1601136958746,1281,0.39624023,-1.9424438,0.4550171
1601136958751,1282,0.39624023,-1.9424438,0.4550171
1601136958752,1283,0.39624023,-1.9424438,0.4550171
1601136958752,1284,0.39624023,-1.9424438,0.4550171
1601136958756,1285,0.27954102,-1.3816528,0.369812
1601136958758,1286,0.39624023,-1.9424438,0.4550171
1601136958758,1287,0.27954102,-1.3816528,0.369812
1601136958758,1288,0.27954102,-1.3816528,0.369812
1601136958759,1289,0.39624023,-1.9424438,0.4550171
1601136958759,1290,0.39624023,-1.9424438,0.4550171
1601136958760,1291,0.39624023,-1.9424438,0.4550171
1601136958760,1292,0.35839844,-1.0361938,0.276062
1601136958760,1293,0.27954102,-1.3816528,0.369812
1601136958761,1294,0.27954102,-1.3816528,0.369812
1601136958771,1295,0.35839844,-1.0361938,0.276062
1601136958771,1296,0.35839844,-1.0361938,0.276062
1601136958771,1297,-0.06542969,-0.317688,-0.3098755
1601136958772,1298,-0.06542969,-0.317688,-0.3098755
1601136958772,1299,0.27954102,-1.3816528,0.369812
1601136958772,1300,-0.30615234,-0.3262329,-0.14703369
1601136958772,1301,0.27954102,-1.3816528,0.369812
1601136958772,1302,0.35839844,-1.0361938,0.276062
1601136958772,1303,0.35839844,-1.0361938,0.276062
1601136958782,1304,-0.06542969,-0.317688,-0.3098755
1601136958782,1305,-0.06542969,-0.317688,-0.3098755
1601136958782,1306,0.27954102,-1.3816528,0.369812
1601136958782,1307,-0.30615234,-0.3262329,-0.14703369
1601136958782,1308,-0.30615234,-0.3262329,-0.14703369
1601136958782,1309,0.35839844,-1.0361938,0.276062
1601136958782,1310,0.39624023,-1.9424438,0.4550171
1601136958782,1311,-0.0024414062,-1.9605103,0.34173584
1601136958782,1312,-0.0024414062,-1.9605103,0.34173584
1601136958783,1313,-2.4414062E-4,-1.6243286,0.15228271
1601136958789,1314,0.35839844,-1.0361938,0.276062
1601136958790,1315,-0.06542969,-0.317688,-0.3098755
1601136958790,1316,-0.06542969,-0.317688,-0.3098755
1601136958790,1317,-2.4414062E-4,-1.6243286,0.15228271
1601136958790,1318,-0.0024414062,-1.9605103,0.34173584
1601136958790,1319,0.35839844,-1.0361938,0.276062
1601136958790,1320,0.27954102,-1.3816528,0.369812
1601136958791,1321,0.23242188,-0.70391846,0.034118652
1601136958792,1322,-0.06542969,-0.317688,-0.3098755
1601136958792,1323,0.27954102,-1.3816528,0.369812
1601136958792,1324,-0.30615234,-0.3262329,-0.14703369
1601136958792,1325,-0.0024414062,-1.9605103,0.34173584
1601136958792,1326,0.35839844,-1.0361938,0.276062
1601136958792,1327,0.23242188,-0.70391846,0.034118652
1601136958794,1328,0.35839844,-1.0361938,0.276062
1601136958794,1329,0.03466797,-0.06011963,-0.12310791
1601136958795,1330,-0.30615234,-0.3262329,-0.14703369
1601136958799,1331,-0.30615234,-0.3262329,-0.14703369
1601136958799,1332,-0.30615234,-0.3262329,-0.14703369
1601136958800,1333,-0.06542969,-0.317688,-0.3098755
1601136958805,1334,-2.4414062E-4,-1.6243286,0.15228271
1601136958806,1335,-0.06542969,-0.317688,-0.3098755
1601136958830,1336,-2.4414062E-4,-1.6243286,0.15228271
1601136958831,1337,-0.30615234,-0.3262329,-0.14703369
1601136958831,1338,-0.0024414062,-1.9605103,0.34173584
1601136958831,1339,-0.06542969,-0.317688,-0.3098755
1601136958831,1340,-0.0024414062,-1.9605103,0.34173584
1601136958831,1341,-0.0024414062,-1.9605103,0.34173584
1601136958831,1342,-2.4414062E-4,-1.6243286,0.15228271
1601136958831,1343,-0.30615234,-0.3262329,-0.14703369
1601136958832,1344,0.048339844,-0.8201294,-0.26275635
1601136958832,1345,-0.0024414062,-1.9605103,0.34173584
1601136958832,1346,0.03466797,-0.06011963,-0.12310791
1601136958832,1347,-2.4414062E-4,-1.6243286,0.15228271
1601136958832,1348,-2.4414062E-4,-1.6243286,0.15228271
1601136958832,1349,-2.4414062E-4,-1.6243286,0.15228271
1601136958832,1350,0.048339844,-0.8201294,-0.26275635
1601136958832,1351,0.23242188,-0.70391846,0.034118652
1601136958832,1352,0.61865234,-1.9998169,0.31658936
1601136958833,1353,0.23242188,-0.70391846,0.034118652
1601136958833,1354,-0.0024414062,-1.9605103,0.34173584
1601136958833,1355,0.03466797,-0.06011963,-0.12310791
1601136958833,1356,-0.30615234,-0.3262329,-0.14703369
1601136958833,1357,0.048339844,-0.8201294,-0.26275635
1601136958833,1358,0.23242188,-0.70391846,0.034118652
1601136958833,1359,-0.0024414062,-1.9605103,0.34173584
1601136958833,1360,0.29882812,-1.6411743,0.1876831
1601136958833,1361,0.23242188,-0.70391846,0.034118652
1601136958833,1362,0.23242188,-0.70391846,0.034118652
1601136958833,1363,0.61865234,-1.9998169,0.31658936
1601136958833,1364,0.61865234,-1.9998169,0.31658936
1601136958833,1365,0.03466797,-0.06011963,-0.12310791
1601136958833,1366,0.048339844,-0.8201294,-0.26275635
1601136958834,1367,-2.4414062E-4,-1.6243286,0.15228271
1601136958834,1368,0.03466797,-0.06011963,-0.12310791
1601136958834,1369,0.03466797,-0.06011963,-0.12310791
1601136958834,1370,0.03466797,-0.06011963,-0.12310791
1601136958834,1371,-0.037841797,-0.4282837,-0.2234497
1601136958834,1372,0.048339844,-0.8201294,-0.26275635
1601136958834,1373,0.29882812,-1.6411743,0.1876831
1601136958834,1374,0.61865234,-1.9998169,0.31658936
1601136958834,1375,0.29882812,-1.6411743,0.1876831
1601136958836,1376,0.61865234,-1.9998169,0.31658936
1601136958843,1377,0.048339844,-0.8201294,-0.26275635
1601136958843,1378,0.048339844,-0.8201294,-0.26275635
1601136958843,1379,-0.3552246,-0.026916504,-0.2510376
1601136958844,1380,0.61865234,-1.9998169,0.31658936
1601136958844,1381,-2.4414062E-4,-1.6243286,0.15228271
1601136958844,1382,-0.037841797,-0.4282837,-0.2234497
1601136958844,1383,0.29882812,-1.6411743,0.1876831
1601136958844,1384,-0.3552246,-0.026916504,-0.2510376
1601136958844,1385,0.23242188,-0.70391846,0.034118652
1601136958844,1386,-0.037841797,-0.4282837,-0.2234497
1601136958858,1387,0.61865234,-1.9998169,0.31658936
1601136958858,1388,0.23242188,-0.70391846,0.034118652
1601136958859,1389,0.03466797,-0.06011963,-0.12310791
1601136958859,1390,0.29882812,-1.6411743,0.1876831
1601136958859,1391,0.29882812,-1.6411743,0.1876831
1601136958859,1392,-0.037841797,-0.4282837,-0.2234497
1601136958859,1393,0.29882812,-1.6411743,0.1876831
1601136958860,1394,-0.037841797,-0.4282837,-0.2234497
1601136958860,1395,-0.3552246,-0.026916504,-0.2510376
1601136958860,1396,-0.3552246,-0.026916504,-0.2510376
1601136958860,1397,-0.14428711,-1.4255981,-0.24932861
1601136958860,1398,0.23242188,-0.70391846,0.034118652
1601136958860,1399,0.048339844,-0.8201294,-0.26275635
1601136958860,1400,0.1652832,-1.8276978,0.09222412
1601136958860,1401,-0.037841797,-0.4282837,-0.2234497
1601136958860,1402,-0.14428711,-1.4255981,-0.24932861
1601136958861,1403,-0.3552246,-0.026916504,-0.2510376
1601136958861,1404,0.32958984,-1.0774536,0.051452637
1601136958861,1405,0.61865234,-1.9998169,0.31658936
1601136958872,1406,-0.14428711,-1.4255981,-0.24932861
1601136958872,1407,0.03466797,-0.06011963,-0.12310791
1601136958873,1408,-0.037841797,-0.4282837,-0.2234497
1601136958873,1409,-0.14428711,-1.4255981,-0.24932861
1601136958873,1410,-0.3552246,-0.026916504,-0.2510376
1601136958873,1411,-0.14428711,-1.4255981,-0.24932861
1601136958873,1412,0.1652832,-1.8276978,0.09222412
1601136958873,1413,0.06518555,-0.19073486,-0.046203613
1601136958873,1414,0.29882812,-1.6411743,0.1876831
1601136958873,1415,0.1652832,-1.8276978,0.09222412
1601136958873,1416,-0.037841797,-0.4282837,-0.2234497
1601136958873,1417,0.1652832,-1.8276978,0.09222412
1601136958873,1418,0.048339844,-0.8201294,-0.26275635
1601136958873,1419,0.32958984,-1.0774536,0.051452637
1601136958873,1420,-0.14428711,-1.4255981,-0.24932861
1601136958873,1421,0.32958984,-1.0774536,0.051452637
1601136958874,1422,0.1652832,-1.8276978,0.09222412
1601136958874,1423,0.1652832,-1.8276978,0.09222412
1601136958874,1424,0.06518555,-0.19073486,-0.046203613
1601136958875,1425,0.32958984,-1.0774536,0.051452637
1601136958910,1426,-0.3552246,-0.026916504,-0.2510376
1601136958910,1427,0.61865234,-1.9998169,0.31658936
1601136958910,1428,0.06518555,-0.19073486,-0.046203613
1601136958911,1429,0.03466797,-0.06011963,-0.12310791
1601136958911,1430,0.32958984,-1.0774536,0.051452637
1601136958911,1431,0.048339844,-0.8201294,-0.26275635
1601136958911,1432,0.29882812,-1.6411743,0.1876831
1601136958916,1433,0.06518555,-0.19073486,-0.046203613
1601136958916,1434,0.61865234,-1.9998169,0.31658936
1601136958916,1435,0.06518555,-0.19073486,-0.046203613
1601136958916,1436,0.29882812,-1.6411743,0.1876831
1601136958916,1437,0.32958984,-1.0774536,0.051452637
1601136958916,1438,0.017822266,-0.077697754,-0.35894775
1601136958916,1439,-0.14428711,-1.4255981,-0.24932861
1601136958917,1440,0.017822266,-0.077697754,-0.35894775
1601136958917,1441,0.017822266,-0.077697754,-0.35894775
1601136958917,1442,-0.3552246,-0.026916504,-0.2510376
1601136958917,1443,0.017822266,-0.077697754,-0.35894775
1601136958917,1444,-0.037841797,-0.4282837,-0.2234497
1601136958917,1445,0.017822266,-0.077697754,-0.35894775
1601136958917,1446,-0.14428711,-1.4255981,-0.24932861
1601136958917,1447,-0.037841797,-0.4282837,-0.2234497
1601136958917,1448,0.1652832,-1.8276978,0.09222412
1601136958918,1449,0.06518555,-0.19073486,-0.046203613
1601136958918,1450,0.5498047,-1.9998169,0.48895264
1601136958918,1451,0.1652832,-1.8276978,0.09222412
1601136958918,1452,0.5498047,-1.9998169,0.48895264
1601136958918,1453,0.017822266,-0.077697754,-0.35894775
1601136958918,1454,0.5498047,-1.9998169,0.48895264
1601136958918,1455,-0.3552246,-0.026916504,-0.2510376
1601136958920,1456,0.34521484,-1.5881958,0.46795654
1601136958921,1457,-0.3552246,-0.026916504,-0.2510376
1601136958921,1458,0.3737793,-0.7600708,0.04119873
1601136958921,1459,0.5498047,-1.9998169,0.48895264
1601136958921,1460,-0.24731445,-0.16973877,-0.17340088
1601136958921,1461,0.34521484,-1.5881958,0.46795654
1601136958921,1462,0.32958984,-1.0774536,0.051452637
1601136958922,1463,0.5498047,-1.9998169,0.48895264
1601136958922,1464,0.06518555,-0.19073486,-0.046203613
1601136958922,1465,0.5498047,-1.9998169,0.48895264
1601136958922,1466,0.017822266,-0.077697754,-0.35894775
1601136958922,1467,-0.14428711,-1.4255981,-0.24932861
1601136958922,1468,0.34521484,-1.5881958,0.46795654
1601136958922,1469,0.3737793,-0.7600708,0.04119873
1601136958922,1470,0.3737793,-0.7600708,0.04119873
1601136958922,1471,-0.43847656,-0.33428955,-0.1675415
1601136958923,1472,-0.24731445,-0.16973877,-0.17340088
1601136958923,1473,0.34521484,-1.5881958,0.46795654
1601136958923,1474,0.34521484,-1.5881958,0.46795654
1601136958923,1475,0.34521484,-1.5881958,0.46795654
1601136958923,1476,0.5498047,-1.9998169,0.48895264
1601136958923,1477,0.3737793,-0.7600708,0.04119873
1601136958936,1478,0.32958984,-1.0774536,0.051452637
1601136958936,1479,0.1652832,-1.8276978,0.09222412
1601136958936,1480,-0.43847656,-0.33428955,-0.1675415
1601136958937,1481,-0.14428711,-1.4255981,-0.24932861
1601136958937,1482,0.10058594,-1.9998169,0.12200928
1601136958937,1483,0.10058594,-1.9998169,0.12200928
1601136958937,1484,-0.24731445,-0.16973877,-0.17340088
1601136958937,1485,0.1496582,-1.4590454,-0.19195557
1601136958937,1486,-0.24731445,-0.16973877,-0.17340088
1601136958937,1487,0.33984375,-0.8909302,0.28948975
1601136958937,1488,-0.43847656,-0.33428955,-0.1675415
1601136958937,1489,0.06518555,-0.19073486,-0.046203613
1601136958938,1490,0.32958984,-1.0774536,0.051452637
1601136958938,1491,0.10058594,-1.9998169,0.12200928
1601136958938,1492,0.1496582,-1.4590454,-0.19195557
1601136958938,1493,0.1652832,-1.8276978,0.09222412
1601136958938,1494,0.3737793,-0.7600708,0.04119873
1601136958938,1495,0.017822266,-0.077697754,-0.35894775
1601136958947,1496,0.3737793,-0.7600708,0.04119873
1601136958947,1497,0.34521484,-1.5881958,0.46795654
1601136958947,1498,-0.24731445,-0.16973877,-0.17340088
1601136958947,1499,0.06518555,-0.19073486,-0.046203613
1601136958947,1500,0.1496582,-1.4590454,-0.19195557
1601136958947,1501,-0.43847656,-0.33428955,-0.1675415
1601136958947,1502,0.32958984,-1.0774536,0.051452637
1601136958947,1503,0.33984375,-0.8909302,0.28948975
1601136958947,1504,0.04321289,0.19403076,-0.28863525
1601136958972,1505,0.06518555,-0.19073486,-0.046203613
1601136958972,1506,0.5498047,-1.9998169,0.48895264
1601136958972,1507,0.34521484,-1.5881958,0.46795654
1601136958972,1508,0.017822266,-0.077697754,-0.35894775
1601136958972,1509,0.3737793,-0.7600708,0.04119873
1601136958972,1510,-0.43847656,-0.33428955,-0.1675415
1601136958972,1511,-0.24731445,-0.16973877,-0.17340088
1601136958972,1512,0.27392578,-0.49468994,-0.21929932
1601136958972,1513,0.04321289,0.19403076,-0.28863525
1601136958973,1514,0.3737793,-0.7600708,0.04119873
1601136958973,1515,0.017822266,-0.077697754,-0.35894775
1601136958973,1516,-0.24731445,-0.16973877,-0.17340088
1601136958973,1517,0.5498047,-1.9998169,0.48895264
1601136958973,1518,0.5498047,-1.9998169,0.48895264
1601136958973,1519,0.10058594,-1.9998169,0.12200928
1601136958973,1520,-0.24731445,-0.16973877,-0.17340088
1601136958973,1521,0.34521484,-1.5881958,0.46795654
1601136958973,1522,0.10058594,-1.9998169,0.12200928
1601136958973,1523,0.3737793,-0.7600708,0.04119873
1601136958973,1524,-0.43847656,-0.33428955,-0.1675415
1601136958973,1525,0.27392578,-0.49468994,-0.21929932
1601136958974,1526,0.10058594,-1.9998169,0.12200928
1601136958974,1527,-0.43847656,-0.33428955,-0.1675415
1601136958974,1528,-0.43847656,-0.33428955,-0.1675415
1601136958974,1529,0.1496582,-1.4590454,-0.19195557
1601136958974,1530,0.10058594,-1.9998169,0.12200928
1601136958974,1531,0.1496582,-1.4590454,-0.19195557
1601136958974,1532,0.1496582,-1.4590454,-0.19195557
1601136958974,1533,-0.24731445,-0.16973877,-0.17340088
1601136958974,1534,0.1496582,-1.4590454,-0.19195557
1601136958974,1535,0.19360352,-1.9998169,0.3534546
1601136958974,1536,0.33984375,-0.8909302,0.28948975
1601136958974,1537,0.19360352,-1.9998169,0.3534546
1601136958974,1538,0.10058594,-1.9998169,0.12200928
1601136958975,1539,0.33984375,-0.8909302,0.28948975
1601136958975,1540,0.33984375,-0.8909302,0.28948975
1601136958986,1541,0.33984375,-0.8909302,0.28948975
1601136958986,1542,0.34521484,-1.5881958,0.46795654
1601136958986,1543,0.30371094,-1.5911255,0.17474365
1601136958986,1544,0.04321289,0.19403076,-0.28863525
1601136958986,1545,0.3737793,-0.7600708,0.04119873
1601136958987,1546,0.30371094,-1.5911255,0.17474365
1601136958987,1547,0.110839844,-0.57598877,-0.0881958
1601136958987,1548,0.04321289,0.19403076,-0.28863525
1601136958987,1549,-0.43847656,-0.33428955,-0.1675415
1601136958987,1550,0.04321289,0.19403076,-0.28863525
1601136958987,1551,0.10058594,-1.9998169,0.12200928
1601136958987,1552,0.33984375,-0.8909302,0.28948975
1601136958988,1553,-0.24731445,-0.16973877,-0.17340088
1601136958988,1554,0.1496582,-1.4590454,-0.19195557
1601136958988,1555,0.27392578,-0.49468994,-0.21929932
1601136958988,1556,0.04321289,0.19403076,-0.28863525
1601136958988,1557,0.33984375,-0.8909302,0.28948975
1601136958988,1558,0.27392578,-0.49468994,-0.21929932
1601136958989,1559,0.27392578,-0.49468994,-0.21929932
1601136958989,1560,0.1496582,-1.4590454,-0.19195557
1601136958992,1561,-0.43847656,-0.33428955,-0.1675415
1601136958992,1562,0.19360352,-1.9998169,0.3534546
1601136958992,1563,0.04321289,0.19403076,-0.28863525
1601136958992,1564,0.10058594,-1.9998169,0.12200928
1601136958992,1565,0.19360352,-1.9998169,0.3534546
1601136958998,1566,0.19360352,-1.9998169,0.3534546
1601136958998,1567,0.33984375,-0.8909302,0.28948975
1601136958998,1568,0.30371094,-1.5911255,0.17474365
1601136958998,1569,0.110839844,-0.57598877,-0.0881958
1601136958998,1570,0.30371094,-1.5911255,0.17474365
1601136958998,1571,0.1496582,-1.4590454,-0.19195557
1601136958998,1572,0.30371094,-1.5911255,0.17474365
1601136958998,1573,0.27392578,-0.49468994,-0.21929932
1601136959001,1574,0.27392578,-0.49468994,-0.21929932
1601136959019,1575,0.19360352,-1.9998169,0.3534546
1601136959019,1576,0.04321289,0.19403076,-0.28863525
1601136959019,1577,0.110839844,-0.57598877,-0.0881958
1601136959019,1578,0.27392578,-0.49468994,-0.21929932
1601136959020,1579,0.33984375,-0.8909302,0.28948975
1601136959020,1580,0.19360352,-1.9998169,0.3534546
1601136959020,1581,0.19360352,-1.9998169,0.3534546
1601136959020,1582,0.04321289,0.19403076,-0.28863525
1601136959020,1583,0.04321289,0.19403076,-0.28863525
1601136959020,1584,0.30371094,-1.5911255,0.17474365
1601136959020,1585,0.27392578,-0.49468994,-0.21929932
1601136959020,1586,0.19360352,-1.9998169,0.3534546
1601136959020,1587,0.30371094,-1.5911255,0.17474365
1601136959020,1588,0.27392578,-0.49468994,-0.21929932
1601136959020,1589,0.110839844,-0.57598877,-0.0881958
1601136959021,1590,0.30371094,-1.5911255,0.17474365
1601136959021,1591,0.19360352,-1.9998169,0.3534546
1601136959022,1592,0.110839844,-0.57598877,-0.0881958
1601136959022,1593,0.30371094,-1.5911255,0.17474365
1601136959022,1594,0.30371094,-1.5911255,0.17474365
1601136959022,1595,0.110839844,-0.57598877,-0.0881958
1601136959022,1596,0.110839844,-0.57598877,-0.0881958
1601136959022,1597,0.110839844,-0.57598877,-0.0881958
1601136959023,1598,0.110839844,-0.57598877,-0.0881958
1601136959027,1599,0.110839844,-0.57598877,-0.0881958
1601136961300,1600,-0.37817383,0.024841309,-0.22271729
1601136961300,1601,-0.37817383,0.024841309,-0.22271729
1601136961300,1602,-0.37817383,0.024841309,-0.22271729
1601136961300,1603,-0.37817383,0.024841309,-0.22271729
1601136961300,1604,-0.16357422,-1.4622192,-0.29888916
1601136961300,1605,-0.37817383,0.024841309,-0.22271729
1601136961301,1606,-0.16357422,-1.4622192,-0.29888916
1601136961308,1607,-0.37817383,0.024841309,-0.22271729
1601136961308,1608,-0.37817383,0.024841309,-0.22271729
1601136961308,1609,-0.37817383,0.024841309,-0.22271729
1601136961308,1610,0.19506836,-1.6726685,0.053894043
1601136961308,1611,-0.16357422,-1.4622192,-0.29888916
1601136961308,1612,-0.16357422,-1.4622192,-0.29888916
1601136961309,1613,-0.16357422,-1.4622192,-0.29888916
1601136961309,1614,-0.37817383,0.024841309,-0.22271729
1601136961309,1615,-0.16357422,-1.4622192,-0.29888916
1601136961316,1616,0.19506836,-1.6726685,0.053894043
1601136961316,1617,-0.37817383,0.024841309,-0.22271729
1601136961317,1618,0.1496582,-1.1880493,0.16326904
1601136961317,1619,-0.16357422,-1.4622192,-0.29888916
1601136961317,1620,0.1496582,-0.43145752,-0.04864502
1601136961317,1621,0.19506836,-1.6726685,0.053894043
1601136961317,1622,-0.16357422,-1.4622192,-0.29888916
1601136961317,1623,0.1496582,-1.1880493,0.16326904
1601136961317,1624,0.1496582,-1.1880493,0.16326904
1601136961317,1625,0.19506836,-1.6726685,0.053894043
1601136961318,1626,0.19506836,-1.6726685,0.053894043
1601136961318,1627,0.19506836,-1.6726685,0.053894043
1601136961318,1628,0.19506836,-1.6726685,0.053894043
1601136961319,1629,-0.015136719,-0.24029541,-0.21392822
1601136961319,1630,0.19506836,-1.6726685,0.053894043
1601136961327,1631,-0.16357422,-1.4622192,-0.29888916
1601136961327,1632,0.1496582,-0.43145752,-0.04864502
1601136961329,1633,0.1496582,-1.1880493,0.16326904
1601136961329,1634,0.1496582,-1.1880493,0.16326904
1601136961335,1635,0.1496582,-0.43145752,-0.04864502
1601136961337,1636,-0.16357422,-1.4622192,-0.29888916
1601136961337,1637,0.43725586,-1.7390747,0.168396
1601136961337,1638,0.1496582,-1.1880493,0.16326904
1601136961338,1639,0.1496582,-0.43145752,-0.04864502
1601136961338,1640,0.1496582,-0.43145752,-0.04864502
1601136961338,1641,-0.015136719,-0.24029541,-0.21392822
1601136961338,1642,-0.015136719,-0.24029541,-0.21392822
1601136961338,1643,0.19506836,-1.6726685,0.053894043
1601136961338,1644,0.1496582,-1.1880493,0.16326904
1601136961338,1645,0.43725586,-1.7390747,0.168396
1601136961340,1646,0.1496582,-0.43145752,-0.04864502
1601136961340,1647,-0.015136719,-0.24029541,-0.21392822
1601136961340,1648,0.1496582,-1.1880493,0.16326904
1601136961340,1649,0.37670898,-1.5513306,0.34710693
1601136961340,1650,0.43725586,-1.7390747,0.168396
1601136961340,1651,0.1496582,-1.1880493,0.16326904
1601136961340,1652,0.37670898,-1.5513306,0.34710693
1601136961347,1653,-0.015136719,-0.24029541,-0.21392822
1601136961347,1654,0.1496582,-0.43145752,-0.04864502
1601136961347,1655,0.43725586,-1.7390747,0.168396
1601136961347,1656,-0.015136719,-0.24029541,-0.21392822
1601136961347,1657,0.19506836,-1.6726685,0.053894043
1601136961349,1658,0.2692871,-0.99420166,0.13201904
1601136961349,1659,0.37670898,-1.5513306,0.34710693
1601136961349,1660,0.1496582,-0.43145752,-0.04864502
1601136961349,1661,0.2692871,-0.99420166,0.13201904
1601136961349,1662,0.1496582,-0.43145752,-0.04864502
1601136961349,1663,-0.015136719,-0.24029541,-0.21392822
1601136961349,1664,0.43725586,-1.7390747,0.168396
1601136961350,1665,0.43725586,-1.7390747,0.168396
1601136961350,1666,-0.0073242188,-0.2564087,-0.17462158
1601136961350,1667,0.37670898,-1.5513306,0.34710693
1601136961350,1668,0.1496582,-1.1880493,0.16326904
1601136961350,1669,0.2692871,-0.99420166,0.13201904
1601136961350,1670,-0.015136719,-0.24029541,-0.21392822
1601136961350,1671,0.37670898,-1.5513306,0.34710693
1601136961350,1672,0.43725586,-1.7390747,0.168396
1601136961350,1673,-0.0073242188,-0.2564087,-0.17462158
1601136961359,1674,0.37670898,-1.5513306,0.34710693
1601136961359,1675,-0.47070312,-0.47125244,-0.27520752
1601136961359,1676,0.2692871,-0.99420166,0.13201904
1601136961359,1677,0.1496582,-0.43145752,-0.04864502
1601136961359,1678,-0.015136719,-0.24029541,-0.21392822
1601136961359,1679,0.43725586,-1.7390747,0.168396
1601136961360,1680,-0.0073242188,-0.2564087,-0.17462158
1601136961360,1681,0.2692871,-0.99420166,0.13201904
1601136961360,1682,0.37670898,-1.5513306,0.34710693
1601136961360,1683,-0.0073242188,-0.2564087,-0.17462158
1601136961360,1684,0.2692871,-0.99420166,0.13201904
1601136961360,1685,0.09057617,-1.9998169,0.22381592
1601136961360,1686,-0.0073242188,-0.2564087,-0.17462158
1601136961360,1687,-0.0073242188,-0.2564087,-0.17462158
1601136961360,1688,-0.47070312,-0.47125244,-0.27520752
1601136961360,1689,0.37670898,-1.5513306,0.34710693
1601136961360,1690,0.43725586,-1.7390747,0.168396
1601136961360,1691,-0.47070312,-0.47125244,-0.27520752
1601136961360,1692,-0.47070312,-0.47125244,-0.27520752
1601136961361,1693,-0.015136719,-0.24029541,-0.21392822
1601136961361,1694,0.43725586,-1.7390747,0.168396
1601136961369,1695,-0.47070312,-0.47125244,-0.27520752
1601136961369,1696,0.09057617,-1.9998169,0.22381592
1601136961369,1697,0.37670898,-1.5513306,0.34710693
1601136961369,1698,0.09057617,-1.9998169,0.22381592
1601136961369,1699,0.2692871,-0.99420166,0.13201904
1601136961369,1700,0.09057617,-1.9998169,0.22381592
1601136961370,1701,0.2692871,-0.99420166,0.13201904
1601136961370,1702,0.17358398,-1.2852173,-0.17584229
1601136961370,1703,-0.0073242188,-0.2564087,-0.17462158
1601136961370,1704,0.37670898,-1.5513306,0.34710693
1601136961370,1705,-0.0073242188,-0.2564087,-0.17462158
1601136961370,1706,0.17358398,-1.2852173,-0.17584229
1601136961370,1707,0.26000977,-0.87335205,0.25164795
1601136961370,1708,0.2692871,-0.99420166,0.13201904
1601136961370,1709,0.09057617,-1.9998169,0.22381592
1601136961370,1710,0.17358398,-1.2852173,-0.17584229
1601136961370,1711,-0.47070312,-0.47125244,-0.27520752
1601136961370,1712,-0.0073242188,-0.2564087,-0.17462158
1601136961370,1713,-0.47070312,-0.47125244,-0.27520752
1601136961370,1714,0.06323242,-0.08428955,-0.12432861
1601136961370,1715,0.17358398,-1.2852173,-0.17584229
1601136961371,1716,0.09057617,-1.9998169,0.22381592
1601136961371,1717,-0.47070312,-0.47125244,-0.27520752
1601136961371,1718,-0.47070312,-0.47125244,-0.27520752
1601136961371,1719,0.26000977,-0.87335205,0.25164795
1601136961371,1720,0.17358398,-1.2852173,-0.17584229
1601136961372,1721,0.17358398,-1.2852173,-0.17584229
1601136961378,1722,0.26000977,-0.87335205,0.25164795
1601136961378,1723,0.26000977,-0.87335205,0.25164795
1601136961378,1724,0.09057617,-1.9998169,0.22381592
1601136961378,1725,0.06323242,-0.08428955,-0.12432861
1601136961378,1726,0.09057617,-1.9998169,0.22381592
1601136961378,1727,0.06323242,-0.08428955,-0.12432861
1601136961378,1728,-0.072021484,-0.8220825,-0.28302002
1601136961378,1729,0.26000977,-0.87335205,0.25164795
1601136961378,1730,-0.072021484,-0.8220825,-0.28302002
1601136961379,1731,0.65063477,-1.8374634,0.26116943
1601136961379,1732,0.26000977,-0.87335205,0.25164795
1601136961379,1733,0.06323242,-0.08428955,-0.12432861
1601136961379,1734,-0.072021484,-0.8220825,-0.28302002
1601136961379,1735,-0.072021484,-0.8220825,-0.28302002
1601136961379,1736,0.65063477,-1.8374634,0.26116943
1601136961379,1737,0.2692871,-0.99420166,0.13201904
1601136961379,1738,0.09057617,-1.9998169,0.22381592
1601136961379,1739,0.65063477,-1.8374634,0.26116943
1601136961384,1740,0.06323242,-0.08428955,-0.12432861
1601136961385,1741,0.17358398,-1.2852173,-0.17584229
1601136961385,1742,0.06323242,-0.08428955,-0.12432861
1601136961385,1743,0.65063477,-1.8374634,0.26116943
1601136961385,1744,0.26000977,-0.87335205,0.25164795
1601136961385,1745,-0.072021484,-0.8220825,-0.28302002
1601136961385,1746,0.17358398,-1.2852173,-0.17584229
1601136961385,1747,0.17358398,-1.2852173,-0.17584229
1601136961385,1748,0.65063477,-1.8374634,0.26116943
1601136961385,1749,0.24023438,-1.6582642,0.15179443
1601136961385,1750,0.22338867,-0.4336548,-0.0049438477
1601136961385,1751,0.24023438,-1.6582642,0.15179443
1601136961386,1752,0.24023438,-1.6582642,0.15179443
1601136961386,1753,-0.0073242188,-0.2564087,-0.17462158
1601136961392,1754,0.26000977,-0.87335205,0.25164795
1601136961393,1755,0.26000977,-0.87335205,0.25164795
1601136961393,1756,0.06323242,-0.08428955,-0.12432861
1601136961393,1757,0.24023438,-1.6582642,0.15179443
1601136961393,1758,-0.19873047,-0.07623291,-0.2571411
1601136961393,1759,0.06323242,-0.08428955,-0.12432861
1601136961393,1760,0.22338867,-0.4336548,-0.0049438477
1601136961394,1761,0.24023438,-1.6582642,0.15179443
1601136961394,1762,0.22338867,-0.4336548,-0.0049438477
1601136961394,1763,-0.47070312,-0.47125244,-0.27520752
1601136961401,1764,-0.072021484,-0.8220825,-0.28302002
1601136961401,1765,0.06323242,-0.08428955,-0.12432861
1601136961402,1766,-0.072021484,-0.8220825,-0.28302002
1601136961402,1767,-0.49121094,-1.7510376,-0.23516846
1601136961402,1768,0.22338867,-0.4336548,-0.0049438477
1601136961402,1769,-0.072021484,-0.8220825,-0.28302002
1601136961403,1770,0.09057617,-1.9998169,0.22381592
1601136961403,1771,0.14208984,-1.4519653,-0.08282471
1601136961403,1772,-0.072021484,-0.8220825,-0.28302002
1601136961403,1773,0.03125,-1.3335571,0.20111084
1601136961403,1774,0.22338867,-0.4336548,-0.0049438477
1601136961406,1775,-0.19873047,-0.07623291,-0.2571411
1601136961406,1776,-0.19873047,-0.07623291,-0.2571411
1601136961406,1777,-0.49121094,-1.7510376,-0.23516846
1601136961406,1778,-0.19873047,-0.07623291,-0.2571411
1601136961406,1779,0.65063477,-1.8374634,0.26116943
1601136961407,1780,0.65063477,-1.8374634,0.26116943
1601136961407,1781,0.15039062,-0.21905518,-0.02911377
1601136961407,1782,0.65063477,-1.8374634,0.26116943
1601136961407,1783,-0.19873047,-0.07623291,-0.2571411
1601136961408,1784,0.24023438,-1.6582642,0.15179443
1601136961408,1785,0.17358398,-1.2852173,-0.17584229
1601136961409,1786,-0.49121094,-1.7510376,-0.23516846
1601136961409,1787,-0.49121094,-1.7510376,-0.23516846
1601136961409,1788,0.22338867,-0.4336548,-0.0049438477
1601136961409,1789,0.24023438,-1.6582642,0.15179443
1601136961410,1790,0.14208984,-1.4519653,-0.08282471
1601136961412,1791,0.26000977,-0.87335205,0.25164795
1601136961415,1792,-0.19873047,-0.07623291,-0.2571411
1601136961415,1793,-0.49121094,-1.7510376,-0.23516846
1601136961419,1794,-0.49121094,-1.7510376,-0.23516846
1601136961419,1795,0.65063477,-1.8374634,0.26116943
1601136961421,1796,0.03125,-1.3335571,0.20111084
1601136961421,1797,0.24023438,-1.6582642,0.15179443
1601136961422,1798,0.14208984,-1.4519653,-0.08282471
1601136961422,1799,0.14208984,-1.4519653,-0.08282471
1601136961431,1800,0.06323242,-0.08428955,-0.12432861
1601136961431,1801,0.14208984,-1.4519653,-0.08282471
1601136961431,1802,0.24023438,-1.6582642,0.15179443
1601136961431,1803,-0.072021484,-0.8220825,-0.28302002
1601136961431,1804,0.22338867,-0.4336548,-0.0049438477
1601136961431,1805,0.22338867,-0.4336548,-0.0049438477
1601136961432,1806,0.15039062,-0.21905518,-0.02911377
1601136961432,1807,0.03125,-1.3335571,0.20111084
1601136961432,1808,0.14208984,-1.4519653,-0.08282471
1601136961432,1809,0.03125,-1.3335571,0.20111084
1601136961433,1810,0.03125,-1.3335571,0.20111084
1601136961433,1811,-0.018310547,-0.023986816,-0.3616333
1601136961433,1812,0.15039062,-0.21905518,-0.02911377
1601136961434,1813,0.03125,-1.3335571,0.20111084
1601136961437,1814,0.65063477,-1.8374634,0.26116943
1601136961437,1815,0.22338867,-0.4336548,-0.0049438477
1601136961437,1816,-0.19873047,-0.07623291,-0.2571411
1601136961437,1817,0.15039062,-0.21905518,-0.02911377
1601136961437,1818,-0.018310547,-0.023986816,-0.3616333
1601136961438,1819,0.26171875,-1.9998169,0.23187256
1601136961439,1820,-0.018310547,-0.023986816,-0.3616333
1601136961441,1821,0.15039062,-0.21905518,-0.02911377
1601136961441,1822,0.30297852,-1.4390259,0.28045654
1601136961441,1823,-0.018310547,-0.023986816,-0.3616333
1601136961441,1824,-0.018310547,-0.023986816,-0.3616333
1601136961441,1825,0.24023438,-1.6582642,0.15179443
1601136961442,1826,-0.49121094,-1.7510376,-0.23516846
1601136961442,1827,0.26171875,-1.9998169,0.23187256
1601136961442,1828,-0.19873047,-0.07623291,-0.2571411
1601136961442,1829,0.26171875,-1.9998169,0.23187256
1601136961444,1830,0.15039062,-0.21905518,-0.02911377
1601136961444,1831,0.26171875,-1.9998169,0.23187256
1601136961445,1832,0.22338867,-0.4336548,-0.0049438477
1601136961445,1833,0.30297852,-1.4390259,0.28045654
1601136961445,1834,-0.19873047,-0.07623291,-0.2571411
1601136961445,1835,0.26171875,-1.9998169,0.23187256
1601136961445,1836,-0.49121094,-1.7510376,-0.23516846
1601136961445,1837,0.32641602,-1.1707153,-0.0020141602
1601136961445,1838,0.30297852,-1.4390259,0.28045654
1601136961445,1839,0.14208984,-1.4519653,-0.08282471
1601136961449,1840,0.03125,-1.3335571,0.20111084
1601136961449,1841,-0.49121094,-1.7510376,-0.23516846
1601136961449,1842,-0.19873047,-0.07623291,-0.2571411
1601136961449,1843,-0.49121094,-1.7510376,-0.23516846
1601136961449,1844,0.30297852,-1.4390259,0.28045654
1601136961449,1845,0.14208984,-1.4519653,-0.08282471
1601136961449,1846,0.30297852,-1.4390259,0.28045654
1601136961449,1847,0.03125,-1.3335571,0.20111084
1601136961450,1848,0.15039062,-0.21905518,-0.02911377
1601136961450,1849,0.15039062,-0.21905518,-0.02911377
1601136961451,1850,0.32641602,-1.1707153,-0.0020141602
1601136961456,1851,0.14208984,-1.4519653,-0.08282471
1601136961457,1852,-0.04272461,-0.17486572,-0.17999268
1601136961457,1853,0.03125,-1.3335571,0.20111084
1601136961457,1854,0.32641602,-1.1707153,-0.0020141602
1601136961457,1855,0.15039062,-0.21905518,-0.02911377
1601136961457,1856,-0.018310547,-0.023986816,-0.3616333
1601136961457,1857,-0.018310547,-0.023986816,-0.3616333
1601136961457,1858,0.32641602,-1.1707153,-0.0020141602
1601136961457,1859,0.14208984,-1.4519653,-0.08282471
1601136961457,1860,-0.04272461,-0.17486572,-0.17999268
1601136961457,1861,-0.32641602,-0.2695923,-0.35821533
1601136961457,1862,0.03125,-1.3335571,0.20111084
1601136961470,1863,-0.018310547,-0.023986816,-0.3616333
1601136961471,1864,0.26171875,-1.9998169,0.23187256
1601136961471,1865,-0.018310547,-0.023986816,-0.3616333
1601136961471,1866,0.26171875,-1.9998169,0.23187256
1601136961471,1867,0.30297852,-1.4390259,0.28045654
1601136961471,1868,0.32641602,-1.1707153,-0.0020141602
1601136961471,1869,0.15039062,-0.21905518,-0.02911377
1601136961471,1870,-0.007080078,-1.9998169,0.121520996
1601136961471,1871,-0.04272461,-0.17486572,-0.17999268
1601136961471,1872,-0.32641602,-0.2695923,-0.35821533
1601136961471,1873,0.26171875,-1.9998169,0.23187256
1601136961471,1874,0.30297852,-1.4390259,0.28045654
1601136961471,1875,-0.007080078,-1.9998169,0.121520996
1601136961471,1876,0.32641602,-1.1707153,-0.0020141602
1601136961472,1877,-0.018310547,-0.023986816,-0.3616333
1601136961473,1878,-0.04272461,-0.17486572,-0.17999268
1601136961475,1879,-0.32641602,-0.2695923,-0.35821533
1601136961479,1880,-0.007080078,-1.9998169,0.121520996
1601136961480,1881,-0.04272461,-0.17486572,-0.17999268
1601136961480,1882,0.034179688,-1.4619751,-0.113342285
1601136961480,1883,0.32641602,-1.1707153,-0.0020141602
1601136961480,1884,0.034179688,-1.4619751,-0.113342285
1601136961480,1885,0.26171875,-1.9998169,0.23187256
1601136961480,1886,-0.04272461,-0.17486572,-0.17999268
1601136961480,1887,0.30297852,-1.4390259,0.28045654
1601136961482,1888,0.26171875,-1.9998169,0.23187256
1601136961486,1889,0.30297852,-1.4390259,0.28045654
1601136961486,1890,-0.04272461,-0.17486572,-0.17999268
1601136961486,1891,-0.32641602,-0.2695923,-0.35821533
1601136961486,1892,0.30297852,-1.4390259,0.28045654
1601136961487,1893,-0.32641602,-0.2695923,-0.35821533
1601136961487,1894,0.32641602,-1.1707153,-0.0020141602
1601136961487,1895,0.034179688,-1.4619751,-0.113342285
1601136961488,1896,-0.32641602,-0.2695923,-0.35821533
1601136961494,1897,-0.32641602,-0.2695923,-0.35821533
1601136961494,1898,-0.007080078,-1.9998169,0.121520996
1601136961494,1899,0.32641602,-1.1707153,-0.0020141602
1601136961494,1900,-0.04272461,-0.17486572,-0.17999268
1601136961495,1901,0.32641602,-1.1707153,-0.0020141602
1601136961495,1902,-0.007080078,-1.9998169,0.121520996
1601136961495,1903,-0.007080078,-1.9998169,0.121520996
1601136961495,1904,0.034179688,-1.4619751,-0.113342285
1601136961495,1905,-0.007080078,-1.9998169,0.121520996
1601136961495,1906,-0.04272461,-0.17486572,-0.17999268
1601136961496,1907,0.034179688,-1.4619751,-0.113342285
1601136961497,1908,-0.04272461,-0.17486572,-0.17999268
1601136961497,1909,0.034179688,-1.4619751,-0.113342285
1601136961500,1910,0.034179688,-1.4619751,-0.113342285
1601136961500,1911,-0.32641602,-0.2695923,-0.35821533
1601136961500,1912,-0.32641602,-0.2695923,-0.35821533
1601136961502,1913,-0.32641602,-0.2695923,-0.35821533
1601136961502,1914,-0.007080078,-1.9998169,0.121520996
1601136961502,1915,-0.007080078,-1.9998169,0.121520996
1601136961512,1916,-0.007080078,-1.9998169,0.121520996
1601136961512,1917,0.034179688,-1.4619751,-0.113342285
1601136961512,1918,0.034179688,-1.4619751,-0.113342285
1601136961512,1919,0.034179688,-1.4619751,-0.113342285
1601136963836,1920,0.16430664,-1.0418091,0.038513184
1601136963836,1921,0.16430664,-1.0418091,0.038513184
1601136963837,1922,0.16430664,-1.0418091,0.038513184
1601136963837,1923,0.16430664,-1.0418091,0.038513184
1601136963837,1924,0.16430664,-1.0418091,0.038513184
1601136963840,1925,0.16430664,-1.0418091,0.038513184
1601136963840,1926,0.16430664,-1.0418091,0.038513184
1601136963841,1927,0.021240234,-0.29986572,0.03338623
1601136963841,1928,0.16430664,-1.0418091,0.038513184
1601136963843,1929,0.16430664,-1.0418091,0.038513184
1601136963843,1930,0.021240234,-0.29986572,0.03338623
1601136963844,1931,0.16430664,-1.0418091,0.038513184
1601136963857,1932,0.021240234,-0.29986572,0.03338623
1601136963857,1933,0.0031738281,-0.23614502,-0.21368408
1601136963857,1934,0.021240234,-0.29986572,0.03338623
1601136963857,1935,0.0031738281,-0.23614502,-0.21368408
1601136963857,1936,0.021240234,-0.29986572,0.03338623
1601136963857,1937,0.021240234,-0.29986572,0.03338623
1601136963857,1938,0.021240234,-0.29986572,0.03338623
1601136963857,1939,0.4621582,-1.9998169,-0.004211426
1601136963857,1940,0.0031738281,-0.23614502,-0.21368408
1601136963857,1941,0.0031738281,-0.23614502,-0.21368408
1601136963858,1942,0.0031738281,-0.23614502,-0.21368408
1601136963858,1943,0.0031738281,-0.23614502,-0.21368408
1601136963858,1944,0.021240234,-0.29986572,0.03338623
1601136963862,1945,0.021240234,-0.29986572,0.03338623
1601136963862,1946,0.4621582,-1.9998169,-0.004211426
1601136963862,1947,0.0031738281,-0.23614502,-0.21368408
1601136963862,1948,0.28833008,-1.3005981,0.4171753
1601136963862,1949,0.4621582,-1.9998169,-0.004211426
1601136963863,1950,0.28833008,-1.3005981,0.4171753
1601136963863,1951,0.4621582,-1.9998169,-0.004211426
1601136963863,1952,0.4621582,-1.9998169,-0.004211426
1601136963863,1953,0.0031738281,-0.23614502,-0.21368408
1601136963863,1954,0.26098633,-1.1443481,0.055603027
1601136963863,1955,0.4621582,-1.9998169,-0.004211426
1601136963869,1956,0.4621582,-1.9998169,-0.004211426
1601136963869,1957,0.4621582,-1.9998169,-0.004211426
1601136963869,1958,0.28833008,-1.3005981,0.4171753
1601136963870,1959,0.28833008,-1.3005981,0.4171753
1601136963870,1960,0.26098633,-1.1443481,0.055603027
1601136963870,1961,0.26098633,-1.1443481,0.055603027
1601136963870,1962,0.021240234,-0.29986572,0.03338623
1601136963870,1963,0.28833008,-1.3005981,0.4171753
1601136963870,1964,0.0031738281,-0.23614502,-0.21368408
1601136963870,1965,0.28833008,-1.3005981,0.4171753
1601136963871,1966,0.26098633,-1.1443481,0.055603027
1601136963871,1967,0.11254883,-0.331604,-0.17755127
1601136963873,1968,0.11254883,-0.331604,-0.17755127
1601136963880,1969,0.4621582,-1.9998169,-0.004211426
1601136963881,1970,-0.15698242,-0.29180908,-0.25250244
1601136963881,1971,0.26098633,-1.1443481,0.055603027
1601136963881,1972,0.28833008,-1.3005981,0.4171753
1601136963881,1973,-0.111083984,-1.5322876,0.01727295
1601136963881,1974,0.0031738281,-0.23614502,-0.21368408
1601136963881,1975,0.26098633,-1.1443481,0.055603027
1601136963881,1976,0.11254883,-0.331604,-0.17755127
1601136963881,1977,0.4621582,-1.9998169,-0.004211426
1601136963881,1978,0.28833008,-1.3005981,0.4171753
1601136963882,1979,0.28833008,-1.3005981,0.4171753
1601136963882,1980,-0.15698242,-0.29180908,-0.25250244
1601136963882,1981,0.3630371,-1.4024048,-0.06085205
1601136963882,1982,0.26098633,-1.1443481,0.055603027
1601136963885,1983,0.11254883,-0.331604,-0.17755127
1601136963885,1984,0.21582031,-1.3294067,0.061462402
1601136963886,1985,-0.111083984,-1.5322876,0.01727295
1601136963887,1986,0.11254883,-0.331604,-0.17755127
1601136963887,1987,0.17602539,-0.7268677,0.09222412
1601136963887,1988,0.19238281,-0.35699463,-0.09454346
1601136963892,1989,0.11254883,-0.331604,-0.17755127
1601136963893,1990,0.029052734,-0.9924927,-0.10357666
1601136963893,1991,0.11254883,-0.331604,-0.17755127
1601136963893,1992,-0.15698242,-0.29180908,-0.25250244
1601136963893,1993,0.28833008,-1.3005981,0.4171753
1601136963893,1994,0.3630371,-1.4024048,-0.06085205
1601136963893,1995,0.4741211,-1.3501587,-0.054748535
1601136963893,1996,-0.15698242,-0.29180908,-0.25250244
1601136963893,1997,0.33422852,-1.5408325,0.18450928
1601136963893,1998,0.26098633,-1.1443481,0.055603027
1601136963894,1999,0.25634766,-0.8706665,0.022155762
1601136963894,2000,0.21582031,-1.3294067,0.061462402
1601136963894,2001,0.26098633,-1.1443481,0.055603027
1601136963894,2002,0.17602539,-0.7268677,0.09222412
1601136963894,2003,0.11254883,-0.331604,-0.17755127
1601136963894,2004,-0.15698242,-0.29180908,-0.25250244
1601136963894,2005,-0.15698242,-0.29180908,-0.25250244
1601136963894,2006,0.26098633,-1.1443481,0.055603027
1601136963895,2007,-0.15698242,-0.29180908,-0.25250244
1601136963908,2008,0.22338867,-0.7112427,-0.023498535
1601136963908,2009,-0.111083984,-1.5322876,0.01727295
1601136963908,2010,-0.111083984,-1.5322876,0.01727295
1601136963908,2011,-0.111083984,-1.5322876,0.01727295
1601136963909,2012,-0.111083984,-1.5322876,0.01727295
1601136963912,2013,0.3630371,-1.4024048,-0.06085205
1601136963912,2014,0.3630371,-1.4024048,-0.06085205
1601136963913,2015,0.11254883,-0.331604,-0.17755127
1601136963913,2016,0.19238281,-0.35699463,-0.09454346
1601136963913,2017,0.11254883,-0.331604,-0.17755127
1601136963913,2018,0.38061523,-0.79400635,0.008972168
1601136963913,2019,0.3630371,-1.4024048,-0.06085205
1601136963913,2020,-0.111083984,-1.5322876,0.01727295
1601136963913,2021,0.21582031,-1.3294067,0.061462402
1601136963913,2022,0.21582031,-1.3294067,0.061462402
1601136963913,2023,-0.15698242,-0.29180908,-0.25250244
1601136963913,2024,0.3630371,-1.4024048,-0.06085205
1601136963916,2025,0.029052734,-0.9924927,-0.10357666
1601136963917,2026,0.21582031,-1.3294067,0.061462402
1601136963921,2027,0.107666016,-0.8740845,0.007751465
1601136963922,2028,0.17602539,-0.7268677,0.09222412
1601136963922,2029,0.3630371,-1.4024048,-0.06085205
1601136963923,2030,-0.15698242,-0.29180908,-0.25250244
1601136963923,2031,0.21582031,-1.3294067,0.061462402
1601136963923,2032,0.17602539,-0.7268677,0.09222412
1601136963923,2033,0.21582031,-1.3294067,0.061462402
1601136963923,2034,0.17602539,-0.7268677,0.09222412
1601136963923,2035,-0.111083984,-1.5322876,0.01727295
1601136963941,2036,-0.15698242,-0.29180908,-0.25250244
1601136963941,2037,0.17553711,-1.1226196,-0.012023926
1601136963941,2038,0.19238281,-0.35699463,-0.09454346
1601136963941,2039,-0.111083984,-1.5322876,0.01727295
1601136963942,2040,0.17602539,-0.7268677,0.09222412
1601136963942,2041,0.19238281,-0.35699463,-0.09454346
1601136963942,2042,0.19238281,-0.35699463,-0.09454346
1601136963942,2043,0.17602539,-0.7268677,0.09222412
1601136963942,2044,0.3630371,-1.4024048,-0.06085205
1601136963942,2045,0.029052734,-0.9924927,-0.10357666
1601136963942,2046,0.4741211,-1.3501587,-0.054748535
1601136963942,2047,-0.111083984,-1.5322876,0.01727295
1601136963942,2048,0.4741211,-1.3501587,-0.054748535
1601136963942,2049,0.3630371,-1.4024048,-0.06085205
1601136963943,2050,0.33422852,-1.5408325,0.18450928
1601136963943,2051,0.029052734,-0.9924927,-0.10357666
1601136963943,2052,0.25634766,-0.8706665,0.022155762
1601136963943,2053,0.4741211,-1.3501587,-0.054748535
1601136963943,2054,0.029052734,-0.9924927,-0.10357666
1601136963943,2055,0.33422852,-1.5408325,0.18450928
1601136963943,2056,0.19238281,-0.35699463,-0.09454346
1601136963943,2057,0.33422852,-1.5408325,0.18450928
1601136963943,2058,0.3630371,-1.4024048,-0.06085205
1601136963943,2059,0.029052734,-0.9924927,-0.10357666
1601136963944,2060,0.19238281,-0.35699463,-0.09454346
1601136963944,2061,0.21582031,-1.3294067,0.061462402
1601136963944,2062,0.4741211,-1.3501587,-0.054748535
1601136963945,2063,0.4741211,-1.3501587,-0.054748535
1601136963946,2064,0.06274414,-0.8257446,-0.13604736
1601136963953,2065,0.21582031,-1.3294067,0.061462402
1601136963953,2066,0.21582031,-1.3294067,0.061462402
1601136963953,2067,0.17602539,-0.7268677,0.09222412
1601136963953,2068,0.17602539,-0.7268677,0.09222412
1601136963953,2069,0.33422852,-1.5408325,0.18450928
1601136963953,2070,0.029052734,-0.9924927,-0.10357666
1601136963954,2071,0.19238281,-0.35699463,-0.09454346
1601136963954,2072,0.25634766,-0.8706665,0.022155762
1601136963954,2073,0.33422852,-1.5408325,0.18450928
1601136963954,2074,0.25634766,-0.8706665,0.022155762
1601136963954,2075,0.21044922,-1.5974731,0.27069092
1601136963954,2076,0.17602539,-0.7268677,0.09222412
1601136963955,2077,0.19238281,-0.35699463,-0.09454346
1601136963955,2078,0.4741211,-1.3501587,-0.054748535
1601136963957,2079,0.029052734,-0.9924927,-0.10357666
1601136963957,2080,0.25927734,-1.1797485,0.14520264
1601136963958,2081,0.22338867,-0.7112427,-0.023498535
1601136963974,2082,0.22338867,-0.7112427,-0.023498535
1601136963974,2083,0.19238281,-0.35699463,-0.09454346
1601136963974,2084,0.25634766,-0.8706665,0.022155762
1601136963974,2085,0.029052734,-0.9924927,-0.10357666
1601136963974,2086,0.38061523,-0.79400635,0.008972168
1601136963975,2087,0.33422852,-1.5408325,0.18450928
1601136963975,2088,0.107666016,-0.8740845,0.007751465
1601136963975,2089,0.22338867,-0.7112427,-0.023498535
1601136963975,2090,0.38061523,-0.79400635,0.008972168
1601136963975,2091,0.23608398,-0.8838501,0.121520996
1601136963975,2092,0.22338867,-0.7112427,-0.023498535
1601136963975,2093,0.029052734,-0.9924927,-0.10357666
1601136963975,2094,0.4741211,-1.3501587,-0.054748535
1601136963976,2095,0.25634766,-0.8706665,0.022155762
1601136963976,2096,0.4741211,-1.3501587,-0.054748535
1601136963976,2097,0.17553711,-1.1226196,-0.012023926
1601136963976,2098,0.25634766,-0.8706665,0.022155762
1601136963976,2099,0.38061523,-0.79400635,0.008972168
1601136963976,2100,0.107666016,-0.8740845,0.007751465
1601136963976,2101,0.22338867,-0.7112427,-0.023498535
1601136963976,2102,0.087402344,-0.39361572,-0.065979004
1601136963977,2103,0.4741211,-1.3501587,-0.054748535
1601136963990,2104,0.33422852,-1.5408325,0.18450928
1601136963992,2105,0.33422852,-1.5408325,0.18450928
1601136963992,2106,0.06274414,-0.8257446,-0.13604736
1601136963992,2107,0.38061523,-0.79400635,0.008972168
1601136963992,2108,0.107666016,-0.8740845,0.007751465
1601136963992,2109,0.17553711,-1.1226196,-0.012023926
1601136963992,2110,0.38061523,-0.79400635,0.008972168
1601136963992,2111,0.17553711,-1.1226196,-0.012023926
1601136963992,2112,0.06274414,-0.8257446,-0.13604736
1601136963992,2113,0.09838867,-0.76348877,-0.18536377
1601136963993,2114,0.107666016,-0.8740845,0.007751465
1601136963993,2115,0.21044922,-1.5974731,0.27069092
1601136963996,2116,0.25927734,-1.1797485,0.14520264
1601136963997,2117,0.21044922,-1.5974731,0.27069092
1601136963997,2118,0.33422852,-1.5408325,0.18450928
1601136963997,2119,0.23608398,-0.8838501,0.121520996
1601136963997,2120,0.06274414,-0.8257446,-0.13604736
1601136963997,2121,0.25634766,-0.8706665,0.022155762
1601136963998,2122,0.25927734,-1.1797485,0.14520264
1601136963998,2123,0.17553711,-1.1226196,-0.012023926
1601136963998,2124,0.4729004,-1.8821411,0.29534912
1601136963998,2125,0.06274414,-0.8257446,-0.13604736
1601136963998,2126,0.203125,-1.3504028,0.090026855
1601136963999,2127,0.25634766,-0.8706665,0.022155762
1601136964011,2128,0.15600586,-0.69537354,-0.1572876
1601136964011,2129,0.25634766,-0.8706665,0.022155762
1601136964011,2130,0.23608398,-0.8838501,0.121520996
1601136964011,2131,0.22338867,-0.7112427,-0.023498535
1601136964011,2132,0.21044922,-1.5974731,0.27069092
1601136964011,2133,0.107666016,-0.8740845,0.007751465
1601136964012,2134,0.087402344,-0.39361572,-0.065979004
1601136964012,2135,0.21044922,-1.5974731,0.27069092
1601136964012,2136,0.22338867,-0.7112427,-0.023498535
1601136964012,2137,0.25927734,-1.1797485,0.14520264
1601136964012,2138,0.22338867,-0.7112427,-0.023498535
1601136964012,2139,0.38061523,-0.79400635,0.008972168
1601136964012,2140,-0.021484375,-0.51519775,-0.07525635
1601136964012,2141,0.087402344,-0.39361572,-0.065979004
1601136964012,2142,0.38061523,-0.79400635,0.008972168
1601136964012,2143,0.22338867,-0.7112427,-0.023498535
1601136964012,2144,0.17553711,-1.1226196,-0.012023926
1601136964013,2145,0.09838867,-0.76348877,-0.18536377
1601136964013,2146,0.23608398,-0.8838501,0.121520996
1601136964013,2147,0.38061523,-0.79400635,0.008972168
1601136964031,2148,0.38061523,-0.79400635,0.008972168
1601136964031,2149,0.09838867,-0.76348877,-0.18536377
1601136964031,2150,0.107666016,-0.8740845,0.007751465
1601136964031,2151,0.107666016,-0.8740845,0.007751465
1601136964031,2152,0.4729004,-1.8821411,0.29534912
1601136964032,2153,0.087402344,-0.39361572,-0.065979004
1601136964033,2154,0.17553711,-1.1226196,-0.012023926
1601136964034,2155,0.06274414,-0.8257446,-0.13604736
1601136964035,2156,0.203125,-1.3504028,0.090026855
1601136964035,2157,0.4729004,-1.8821411,0.29534912
1601136964035,2158,0.25927734,-1.1797485,0.14520264
1601136964035,2159,0.107666016,-0.8740845,0.007751465
1601136964036,2160,-0.07739258,-0.8062134,-0.43902588
1601136964036,2161,0.23608398,-0.8838501,0.121520996
1601136964036,2162,0.17553711,-1.1226196,-0.012023926
1601136964036,2163,0.06274414,-0.8257446,-0.13604736
1601136964038,2164,0.09838867,-0.76348877,-0.18536377
1601136964038,2165,0.15600586,-0.69537354,-0.1572876
1601136964038,2166,0.107666016,-0.8740845,0.007751465
1601136964038,2167,0.17553711,-1.1226196,-0.012023926
1601136964038,2168,0.06274414,-0.8257446,-0.13604736
1601136964040,2169,0.21044922,-1.5974731,0.27069092
1601136964040,2170,0.21044922,-1.5974731,0.27069092
1601136964040,2171,0.203125,-1.3504028,0.090026855
1601136964041,2172,0.25927734,-1.1797485,0.14520264
1601136964041,2173,-0.021484375,-0.51519775,-0.07525635
1601136964041,2174,0.15600586,-0.69537354,-0.1572876
1601136964041,2175,0.23608398,-0.8838501,0.121520996
1601136964042,2176,-0.07739258,-0.8062134,-0.43902588
1601136964042,2177,-0.021484375,-0.51519775,-0.07525635
1601136964042,2178,0.06274414,-0.8257446,-0.13604736
1601136964043,2179,0.087402344,-0.39361572,-0.065979004
1601136964045,2180,0.4729004,-1.8821411,0.29534912
1601136964045,2181,0.087402344,-0.39361572,-0.065979004
1601136964047,2182,0.17553711,-1.1226196,-0.012023926
1601136964047,2183,0.09838867,-0.76348877,-0.18536377
1601136964047,2184,0.4729004,-1.8821411,0.29534912
1601136964048,2185,0.21044922,-1.5974731,0.27069092
1601136964048,2186,0.203125,-1.3504028,0.090026855
1601136964048,2187,0.09838867,-0.76348877,-0.18536377
1601136964060,2188,0.21044922,-1.5974731,0.27069092
1601136964060,2189,0.203125,-1.3504028,0.090026855
1601136964060,2190,0.25927734,-1.1797485,0.14520264
1601136964060,2191,0.06274414,-0.8257446,-0.13604736
1601136964061,2192,0.15600586,-0.69537354,-0.1572876
1601136964061,2193,0.25927734,-1.1797485,0.14520264
1601136964061,2194,-0.07739258,-0.8062134,-0.43902588
1601136964061,2195,0.15600586,-0.69537354,-0.1572876
1601136964061,2196,0.21044922,-1.5974731,0.27069092
1601136964061,2197,0.25927734,-1.1797485,0.14520264
1601136964061,2198,0.25927734,-1.1797485,0.14520264
1601136964061,2199,-0.021484375,-0.51519775,-0.07525635
1601136964061,2200,0.23608398,-0.8838501,0.121520996
1601136964061,2201,0.23608398,-0.8838501,0.121520996
1601136964061,2202,0.4729004,-1.8821411,0.29534912
1601136964062,2203,-0.07739258,-0.8062134,-0.43902588
1601136964062,2204,0.23608398,-0.8838501,0.121520996
1601136964062,2205,-0.021484375,-0.51519775,-0.07525635
1601136964067,2206,0.23608398,-0.8838501,0.121520996
1601136964068,2207,0.087402344,-0.39361572,-0.065979004
1601136964068,2208,0.087402344,-0.39361572,-0.065979004
1601136964068,2209,0.203125,-1.3504028,0.090026855
1601136964068,2210,0.09838867,-0.76348877,-0.18536377
1601136964068,2211,0.087402344,-0.39361572,-0.065979004
1601136964068,2212,0.15600586,-0.69537354,-0.1572876
1601136964068,2213,0.087402344,-0.39361572,-0.065979004
1601136964081,2214,0.09838867,-0.76348877,-0.18536377
1601136964081,2215,-0.021484375,-0.51519775,-0.07525635
1601136964081,2216,0.4729004,-1.8821411,0.29534912
1601136964081,2217,0.09838867,-0.76348877,-0.18536377
1601136964081,2218,0.09838867,-0.76348877,-0.18536377
1601136964081,2219,-0.07739258,-0.8062134,-0.43902588
1601136964081,2220,0.203125,-1.3504028,0.090026855
1601136964082,2221,0.4729004,-1.8821411,0.29534912
1601136964082,2222,0.4729004,-1.8821411,0.29534912
1601136964082,2223,0.15600586,-0.69537354,-0.1572876
1601136964082,2224,-0.07739258,-0.8062134,-0.43902588
1601136964082,2225,0.203125,-1.3504028,0.090026855
1601136964096,2226,0.15600586,-0.69537354,-0.1572876
1601136964096,2227,0.4729004,-1.8821411,0.29534912
1601136964096,2228,0.203125,-1.3504028,0.090026855
1601136964099,2229,-0.021484375,-0.51519775,-0.07525635
1601136964100,2230,-0.021484375,-0.51519775,-0.07525635
1601136964101,2231,-0.07739258,-0.8062134,-0.43902588
1601136964101,2232,-0.07739258,-0.8062134,-0.43902588
1601136964101,2233,0.203125,-1.3504028,0.090026855
1601136964101,2234,0.15600586,-0.69537354,-0.1572876
1601136964101,2235,0.15600586,-0.69537354,-0.1572876
1601136964103,2236,-0.021484375,-0.51519775,-0.07525635
1601136964103,2237,-0.021484375,-0.51519775,-0.07525635
1601136964117,2238,-0.07739258,-0.8062134,-0.43902588
1601136964119,2239,-0.07739258,-0.8062134,-0.43902588
1601136966344,2240,-0.030029297,-1.8609009,0.24676514
1601136966344,2241,-0.030029297,-1.8609009,0.24676514
1601136966345,2242,-0.030029297,-1.8609009,0.24676514
1601136966345,2243,0.10180664,-1.1963501,-0.15802002
1601136966347,2244,-0.030029297,-1.8609009,0.24676514
1601136966347,2245,0.10180664,-1.1963501,-0.15802002
1601136966368,2246,-0.030029297,-1.8609009,0.24676514
1601136966368,2247,0.10180664,-1.1963501,-0.15802002
1601136966369,2248,0.19335938,-0.7493286,0.028503418
1601136966369,2249,-0.030029297,-1.8609009,0.24676514
1601136966369,2250,-0.030029297,-1.8609009,0.24676514
1601136966369,2251,0.10180664,-1.1963501,-0.15802002
1601136966369,2252,-0.030029297,-1.8609009,0.24676514
1601136966369,2253,0.19335938,-0.7493286,0.028503418
1601136966369,2254,0.10180664,-1.1963501,-0.15802002
1601136966369,2255,-0.030029297,-1.8609009,0.24676514
1601136966369,2256,0.19335938,-0.7493286,0.028503418
1601136966369,2257,-0.030029297,-1.8609009,0.24676514
1601136966369,2258,0.0087890625,-0.35064697,-0.11529541
1601136966369,2259,0.10180664,-1.1963501,-0.15802002
1601136966369,2260,0.19335938,-0.7493286,0.028503418
1601136966369,2261,0.19335938,-0.7493286,0.028503418
1601136966369,2262,0.0087890625,-0.35064697,-0.11529541
1601136966369,2263,0.10180664,-1.1963501,-0.15802002
1601136966369,2264,0.0087890625,-0.35064697,-0.11529541
1601136966370,2265,0.10180664,-1.1963501,-0.15802002
1601136966370,2266,0.0087890625,-0.35064697,-0.11529541
1601136966370,2267,0.10180664,-1.1963501,-0.15802002
1601136966370,2268,0.20874023,-0.96661377,-0.18048096
1601136966370,2269,0.20874023,-0.96661377,-0.18048096
1601136966370,2270,0.19335938,-0.7493286,0.028503418
1601136966370,2271,0.20874023,-0.96661377,-0.18048096
1601136966373,2272,0.19335938,-0.7493286,0.028503418
1601136966373,2273,0.0087890625,-0.35064697,-0.11529541
1601136966373,2274,0.19335938,-0.7493286,0.028503418
1601136966374,2275,0.10180664,-1.1963501,-0.15802002
1601136966374,2276,0.20874023,-0.96661377,-0.18048096
