# Sensor position: Wrist
# Sensor side: Right
# Activity type: Lying down right
# Activity code: 6
# Subject id: s1735229
timestamp,seq,accel_x,accel_y,accel_z
1601133486623,0,0.24560547,-0.892395,0.54486084
1601133486624,1,0.24560547,-0.892395,0.54486084
1601133486624,2,0.24560547,-0.892395,0.54486084
1601133486624,3,0.24560547,-0.892395,0.54486084
1601133486624,4,0.24560547,-0.892395,0.54486084
1601133486625,5,0.2199707,-0.7683716,0.5932007
1601133486625,6,0.2199707,-0.7683716,0.5932007
1601133486625,7,0.2199707,-0.7683716,0.5932007
1601133486625,8,0.24560547,-0.892395,0.54486084
1601133486625,9,0.24560547,-0.892395,0.54486084
1601133486635,10,0.2199707,-0.7683716,0.5932007
1601133486636,11,0.2199707,-0.7683716,0.5932007
1601133486637,12,0.2199707,-0.7683716,0.5932007
1601133486637,13,0.24560547,-0.892395,0.54486084
1601133486638,14,0.24560547,-0.892395,0.54486084
1601133486638,15,0.2199707,-0.7683716,0.5932007
1601133486638,16,0.21923828,-0.7893677,0.5993042
1601133486638,17,0.25146484,-0.6970825,0.5492554
1601133486638,18,0.21923828,-0.7893677,0.5993042
1601133486639,19,0.21923828,-0.7893677,0.5993042
1601133486639,20,0.21923828,-0.7893677,0.5993042
1601133486639,21,0.24560547,-0.892395,0.54486084
1601133486639,22,0.25146484,-0.6970825,0.5492554
1601133486639,23,0.29760742,-0.7671509,0.51971436
1601133486639,24,0.25146484,-0.6970825,0.5492554
1601133486639,25,0.2199707,-0.7683716,0.5932007
1601133486639,26,0.29760742,-0.7671509,0.51971436
1601133486639,27,0.21923828,-0.7893677,0.5993042
1601133486639,28,0.36547852,-1.0256958,0.447937
1601133486639,29,0.29760742,-0.7671509,0.51971436
1601133486639,30,0.2199707,-0.7683716,0.5932007
1601133486640,31,0.21923828,-0.7893677,0.5993042
1601133486640,32,0.21923828,-0.7893677,0.5993042
1601133486640,33,0.36547852,-1.0256958,0.447937
1601133486640,34,0.25146484,-0.6970825,0.5492554
1601133486640,35,0.21923828,-0.7893677,0.5993042
1601133486640,36,0.25146484,-0.6970825,0.5492554
1601133486640,37,0.18334961,-0.35284424,0.61053467
1601133486642,38,0.36547852,-1.0256958,0.447937
1601133486642,39,0.25146484,-0.6970825,0.5492554
1601133486650,40,0.25146484,-0.6970825,0.5492554
1601133486651,41,0.18334961,-0.35284424,0.61053467
1601133486651,42,0.25146484,-0.6970825,0.5492554
1601133486651,43,0.29760742,-0.7671509,0.51971436
1601133486651,44,0.29760742,-0.7671509,0.51971436
1601133486651,45,0.29760742,-0.7671509,0.51971436
1601133486651,46,0.2199707,-0.7683716,0.5932007
1601133486651,47,0.36547852,-1.0256958,0.447937
1601133486651,48,0.21923828,-0.7893677,0.5993042
1601133486651,49,0.36547852,-1.0256958,0.447937
1601133486652,50,0.23486328,-0.7439575,0.635437
1601133486652,51,0.29760742,-0.7671509,0.51971436
1601133486652,52,0.18334961,-0.35284424,0.61053467
1601133486652,53,0.35180664,-0.9031372,0.3036499
1601133486652,54,0.36547852,-1.0256958,0.447937
1601133486652,55,0.29760742,-0.7671509,0.51971436
1601133486652,56,0.21923828,-0.7893677,0.5993042
1601133486653,57,0.27319336,-0.923645,0.31121826
1601133486666,58,0.23486328,-0.7439575,0.635437
1601133486667,59,0.18334961,-0.35284424,0.61053467
1601133486667,60,0.36547852,-1.0256958,0.447937
1601133486667,61,0.35180664,-0.9031372,0.3036499
1601133486667,62,0.18334961,-0.35284424,0.61053467
1601133486667,63,0.25146484,-0.6970825,0.5492554
1601133486667,64,0.36547852,-1.0256958,0.447937
1601133486667,65,0.3400879,-0.973938,0.10784912
1601133486667,66,0.25146484,-0.6970825,0.5492554
1601133486668,67,0.18334961,-0.35284424,0.61053467
1601133486668,68,0.18334961,-0.35284424,0.61053467
1601133486668,69,0.23486328,-0.7439575,0.635437
1601133486668,70,0.23486328,-0.7439575,0.635437
1601133486668,71,0.23486328,-0.7439575,0.635437
1601133486668,72,0.27319336,-0.923645,0.31121826
1601133486668,73,0.35180664,-0.9031372,0.3036499
1601133486668,74,0.34277344,-1.0593872,0.04437256
1601133486669,75,0.29760742,-0.7671509,0.51971436
1601133486669,76,0.32128906,-0.87823486,0.1593628
1601133486669,77,0.23486328,-0.7439575,0.635437
1601133486669,78,0.29760742,-0.7671509,0.51971436
1601133486669,79,0.18334961,-0.35284424,0.61053467
1601133486670,80,0.37304688,-0.92633057,0.08294678
1601133486670,81,0.36547852,-1.0256958,0.447937
1601133486670,82,0.3400879,-0.973938,0.10784912
1601133486670,83,0.23486328,-0.7439575,0.635437
1601133486678,84,0.35180664,-0.9031372,0.3036499
1601133486678,85,0.35180664,-0.9031372,0.3036499
1601133486678,86,0.35180664,-0.9031372,0.3036499
1601133486678,87,0.27319336,-0.923645,0.31121826
1601133486678,88,0.27319336,-0.923645,0.31121826
1601133486678,89,0.3400879,-0.973938,0.10784912
1601133486678,90,0.3400879,-0.973938,0.10784912
1601133486679,91,0.27319336,-0.923645,0.31121826
1601133486679,92,0.36547852,-1.0256958,0.447937
1601133486679,93,0.3400879,-0.973938,0.10784912
1601133486679,94,0.23486328,-0.7439575,0.635437
1601133486679,95,0.34277344,-1.0593872,0.04437256
1601133486679,96,0.35180664,-0.9031372,0.3036499
1601133486679,97,0.27319336,-0.923645,0.31121826
1601133486679,98,0.18334961,-0.35284424,0.61053467
1601133486680,99,0.35180664,-0.9031372,0.3036499
1601133486680,100,0.34277344,-1.0593872,0.04437256
1601133486680,101,0.34277344,-1.0593872,0.04437256
1601133486680,102,0.34277344,-1.0593872,0.04437256
1601133486686,103,0.3959961,-0.9729614,-0.019592285
1601133486686,104,0.32128906,-0.87823486,0.1593628
1601133486687,105,0.27319336,-0.923645,0.31121826
1601133486687,106,0.23486328,-0.7439575,0.635437
1601133486687,107,0.37304688,-0.92633057,0.08294678
1601133486687,108,0.3400879,-0.973938,0.10784912
1601133486687,109,0.35180664,-0.9031372,0.3036499
1601133486687,110,0.34277344,-1.0593872,0.04437256
1601133486687,111,0.27319336,-0.923645,0.31121826
1601133486688,112,0.32128906,-0.87823486,0.1593628
1601133486688,113,0.32128906,-0.87823486,0.1593628
1601133486688,114,0.27319336,-0.923645,0.31121826
1601133486689,115,0.3400879,-0.973938,0.10784912
1601133486689,116,0.43969727,-0.86920166,-0.22052002
1601133486689,117,0.37304688,-0.92633057,0.08294678
1601133486689,118,0.3400879,-0.973938,0.10784912
1601133486689,119,0.18334961,-0.35284424,0.61053467
1601133486689,120,0.32128906,-0.87823486,0.1593628
1601133486690,121,0.3400879,-0.973938,0.10784912
1601133486690,122,0.34277344,-1.0593872,0.04437256
1601133486704,123,0.34960938,-0.80426025,0.04168701
1601133486705,124,0.3959961,-0.9729614,-0.019592285
1601133486705,125,0.34277344,-1.0593872,0.04437256
1601133486705,126,0.3959961,-0.9729614,-0.019592285
1601133486705,127,0.23486328,-0.7439575,0.635437
1601133486705,128,0.37304688,-0.92633057,0.08294678
1601133486705,129,0.43969727,-0.86920166,-0.22052002
1601133486705,130,0.34277344,-1.0593872,0.04437256
1601133486705,131,0.3959961,-0.9729614,-0.019592285
1601133486705,132,0.32128906,-0.87823486,0.1593628
1601133486705,133,0.43969727,-0.86920166,-0.22052002
1601133486706,134,0.3798828,-0.989563,-0.12677002
1601133486706,135,0.34960938,-0.80426025,0.04168701
1601133486706,136,0.32128906,-0.87823486,0.1593628
1601133486706,137,0.4189453,-0.9265747,-0.3694458
1601133486706,138,0.35180664,-0.9031372,0.3036499
1601133486706,139,0.37304688,-0.92633057,0.08294678
1601133486706,140,0.37304688,-0.92633057,0.08294678
1601133486706,141,0.27319336,-0.923645,0.31121826
1601133486706,142,0.32128906,-0.87823486,0.1593628
1601133486706,143,0.3959961,-0.9729614,-0.019592285
1601133486706,144,0.34960938,-0.80426025,0.04168701
1601133486707,145,0.37304688,-0.92633057,0.08294678
1601133486707,146,0.43969727,-0.86920166,-0.22052002
1601133486707,147,0.3798828,-0.989563,-0.12677002
1601133486707,148,0.43969727,-0.86920166,-0.22052002
1601133486707,149,0.34960938,-0.80426025,0.04168701
1601133486707,150,0.3959961,-0.9729614,-0.019592285
1601133486708,151,0.3400879,-0.973938,0.10784912
1601133486708,152,0.37304688,-0.92633057,0.08294678
1601133486710,153,0.32128906,-0.87823486,0.1593628
1601133486710,154,0.3798828,-0.989563,-0.12677002
1601133486710,155,0.4050293,-0.88653564,-0.3694458
1601133486710,156,0.4189453,-0.9265747,-0.3694458
1601133486710,157,0.4189453,-0.9265747,-0.3694458
1601133486732,158,0.34960938,-0.80426025,0.04168701
1601133486732,159,0.3798828,-0.989563,-0.12677002
1601133486732,160,0.43969727,-0.86920166,-0.22052002
1601133486732,161,0.34277344,-1.0593872,0.04437256
1601133486732,162,0.3959961,-0.9729614,-0.019592285
1601133486732,163,0.4189453,-0.9265747,-0.3694458
1601133486732,164,0.37304688,-0.92633057,0.08294678
1601133486732,165,0.32128906,-0.87823486,0.1593628
1601133486733,166,0.4050293,-0.88653564,-0.3694458
1601133486733,167,0.34960938,-0.80426025,0.04168701
1601133486733,168,0.37304688,-0.92633057,0.08294678
1601133486733,169,0.3798828,-0.989563,-0.12677002
1601133486733,170,0.3959961,-0.9729614,-0.019592285
1601133486733,171,0.3959961,-0.9729614,-0.019592285
1601133486733,172,0.4189453,-0.9265747,-0.3694458
1601133486733,173,0.4050293,-0.88653564,-0.3694458
1601133486733,174,0.43969727,-0.86920166,-0.22052002
1601133486734,175,0.3798828,-0.989563,-0.12677002
1601133486734,176,0.36816406,-0.90631104,-0.30914307
1601133486734,177,0.3959961,-0.9729614,-0.019592285
1601133486734,178,0.43969727,-0.86920166,-0.22052002
1601133486734,179,0.4050293,-0.88653564,-0.3694458
1601133486734,180,0.43969727,-0.86920166,-0.22052002
1601133486734,181,0.43969727,-0.86920166,-0.22052002
1601133486735,182,0.36816406,-0.90631104,-0.30914307
1601133486735,183,0.34960938,-0.80426025,0.04168701
1601133486735,184,0.4189453,-0.9265747,-0.3694458
1601133486735,185,0.38476562,-0.8718872,-0.37750244
1601133486735,186,0.36816406,-0.90631104,-0.30914307
1601133486735,187,0.38256836,-0.88775635,-0.36627197
1601133486735,188,0.38476562,-0.8718872,-0.37750244
1601133486735,189,0.37573242,-0.8897095,-0.3550415
1601133486736,190,0.38476562,-0.8718872,-0.37750244
1601133486736,191,0.34960938,-0.80426025,0.04168701
1601133486736,192,0.38256836,-0.88775635,-0.36627197
1601133486736,193,0.39257812,-0.91900635,-0.39727783
1601133486736,194,0.4050293,-0.88653564,-0.3694458
1601133486736,195,0.34960938,-0.80426025,0.04168701
1601133486736,196,0.3798828,-0.989563,-0.12677002
1601133486737,197,0.36816406,-0.90631104,-0.30914307
1601133486737,198,0.3798828,-0.989563,-0.12677002
1601133486737,199,0.34960938,-0.80426025,0.04168701
1601133486737,200,0.4050293,-0.88653564,-0.3694458
1601133486737,201,0.4189453,-0.9265747,-0.3694458
1601133486737,202,0.3798828,-0.989563,-0.12677002
1601133486737,203,0.37573242,-0.8897095,-0.3550415
1601133486738,204,0.3779297,-0.87994385,-0.315979
1601133486738,205,0.4189453,-0.9265747,-0.3694458
1601133486738,206,0.38256836,-0.88775635,-0.36627197
1601133486739,207,0.38476562,-0.8718872,-0.37750244
1601133486739,208,0.4050293,-0.88653564,-0.3694458
1601133486742,209,0.3798828,-0.989563,-0.12677002
1601133486742,210,0.38256836,-0.88775635,-0.36627197
1601133486742,211,0.36816406,-0.90631104,-0.30914307
1601133486742,212,0.36816406,-0.90631104,-0.30914307
1601133486742,213,0.39257812,-0.91900635,-0.39727783
1601133486742,214,0.4189453,-0.9265747,-0.3694458
1601133486742,215,0.37573242,-0.8897095,-0.3550415
1601133486742,216,0.3779297,-0.87994385,-0.315979
1601133486742,217,0.36816406,-0.90631104,-0.30914307
1601133486743,218,0.39257812,-0.91900635,-0.39727783
1601133486743,219,0.37573242,-0.8897095,-0.3550415
1601133486743,220,0.3779297,-0.87994385,-0.315979
1601133486743,221,0.4189453,-0.9265747,-0.3694458
1601133486743,222,0.38476562,-0.8718872,-0.37750244
1601133486743,223,0.36938477,-0.8687134,-0.2942505
1601133486744,224,0.38256836,-0.88775635,-0.36627197
1601133486744,225,0.36938477,-0.8687134,-0.2942505
1601133486744,226,0.4050293,-0.88653564,-0.3694458
1601133486744,227,0.38476562,-0.8718872,-0.37750244
1601133486744,228,0.38476562,-0.8718872,-0.37750244
1601133486745,229,0.4050293,-0.88653564,-0.3694458
1601133486749,230,0.4050293,-0.88653564,-0.3694458
1601133486749,231,0.36816406,-0.90631104,-0.30914307
1601133486749,232,0.36938477,-0.8687134,-0.2942505
1601133486749,233,0.38476562,-0.8718872,-0.37750244
1601133486749,234,0.36816406,-0.90631104,-0.30914307
1601133486749,235,0.38183594,-0.90411377,-0.286438
1601133486750,236,0.38256836,-0.88775635,-0.36627197
1601133486750,237,0.38256836,-0.88775635,-0.36627197
1601133486750,238,0.38256836,-0.88775635,-0.36627197
1601133486751,239,0.36816406,-0.90631104,-0.30914307
1601133486751,240,0.38183594,-0.90411377,-0.286438
1601133486751,241,0.37573242,-0.8897095,-0.3550415
1601133486751,242,0.38476562,-0.8718872,-0.37750244
1601133486751,243,0.37573242,-0.8897095,-0.3550415
1601133486751,244,0.38964844,-0.89849854,-0.29180908
1601133486751,245,0.38256836,-0.88775635,-0.36627197
1601133486751,246,0.38476562,-0.8718872,-0.37750244
1601133486751,247,0.37573242,-0.8897095,-0.3550415
1601133486760,248,0.37573242,-0.8897095,-0.3550415
1601133486760,249,0.39257812,-0.91900635,-0.39727783
1601133486760,250,0.39257812,-0.91900635,-0.39727783
1601133486760,251,0.38183594,-0.90411377,-0.286438
1601133486761,252,0.39257812,-0.91900635,-0.39727783
1601133486761,253,0.38964844,-0.89849854,-0.29180908
1601133486761,254,0.3894043,-0.89971924,-0.2756958
1601133486761,255,0.3779297,-0.87994385,-0.315979
1601133486761,256,0.38256836,-0.88775635,-0.36627197
1601133486761,257,0.39257812,-0.91900635,-0.39727783
1601133486761,258,0.36938477,-0.8687134,-0.2942505
1601133486761,259,0.39257812,-0.91900635,-0.39727783
1601133486761,260,0.3779297,-0.87994385,-0.315979
1601133486761,261,0.38964844,-0.89849854,-0.29180908
1601133486761,262,0.37573242,-0.8897095,-0.3550415
1601133486763,263,0.37573242,-0.8897095,-0.3550415
1601133486763,264,0.3894043,-0.89971924,-0.2756958
1601133486763,265,0.39257812,-0.91900635,-0.39727783
1601133486763,266,0.3779297,-0.87994385,-0.315979
1601133486763,267,0.3779297,-0.87994385,-0.315979
1601133486763,268,0.38183594,-0.90411377,-0.286438
1601133486763,269,0.3779297,-0.87994385,-0.315979
1601133486763,270,0.36938477,-0.8687134,-0.2942505
1601133486763,271,0.3779297,-0.87994385,-0.315979
1601133486764,272,0.36938477,-0.8687134,-0.2942505
1601133486764,273,0.38183594,-0.90411377,-0.286438
1601133486764,274,0.38183594,-0.90411377,-0.286438
1601133486764,275,0.36938477,-0.8687134,-0.2942505
1601133486764,276,0.38964844,-0.89849854,-0.29180908
1601133486764,277,0.38916016,-0.9006958,-0.2756958
1601133486768,278,0.36938477,-0.8687134,-0.2942505
1601133486768,279,0.38964844,-0.89849854,-0.29180908
1601133486768,280,0.39257812,-0.91900635,-0.39727783
1601133486768,281,0.38916016,-0.9006958,-0.2756958
1601133486768,282,0.38183594,-0.90411377,-0.286438
1601133486768,283,0.3779297,-0.87994385,-0.315979
1601133486769,284,0.3894043,-0.89971924,-0.2756958
1601133486769,285,0.36938477,-0.8687134,-0.2942505
1601133486769,286,0.38916016,-0.9006958,-0.2756958
1601133486769,287,0.38842773,-0.90826416,-0.27471924
1601133486769,288,0.38183594,-0.90411377,-0.286438
1601133486770,289,0.38964844,-0.89849854,-0.29180908
1601133486776,290,0.3894043,-0.89971924,-0.2756958
1601133486776,291,0.36938477,-0.8687134,-0.2942505
1601133486777,292,0.38183594,-0.90411377,-0.286438
1601133486777,293,0.38183594,-0.90411377,-0.286438
1601133486777,294,0.3894043,-0.89971924,-0.2756958
1601133486777,295,0.38842773,-0.90826416,-0.27471924
1601133486777,296,0.38964844,-0.89849854,-0.29180908
1601133486777,297,0.38916016,-0.9006958,-0.2756958
1601133486778,298,0.3894043,-0.89971924,-0.2756958
1601133486778,299,0.38964844,-0.89849854,-0.29180908
1601133486778,300,0.38842773,-0.90826416,-0.27471924
1601133486778,301,0.38964844,-0.89849854,-0.29180908
1601133486778,302,0.38964844,-0.89849854,-0.29180908
1601133486778,303,0.3894043,-0.89971924,-0.2756958
1601133486778,304,0.3894043,-0.89971924,-0.2756958
1601133486783,305,0.38916016,-0.9006958,-0.2756958
1601133486785,306,0.3894043,-0.89971924,-0.2756958
1601133486785,307,0.38842773,-0.90826416,-0.27471924
1601133486785,308,0.38916016,-0.9006958,-0.2756958
1601133486785,309,0.3894043,-0.89971924,-0.2756958
1601133486785,310,0.38916016,-0.9006958,-0.2756958
1601133486785,311,0.38916016,-0.9006958,-0.2756958
1601133486785,312,0.38842773,-0.90826416,-0.27471924
1601133486785,313,0.38916016,-0.9006958,-0.2756958
1601133486785,314,0.38916016,-0.9006958,-0.2756958
1601133486785,315,0.38842773,-0.90826416,-0.27471924
1601133486785,316,0.38842773,-0.90826416,-0.27471924
1601133486786,317,0.38842773,-0.90826416,-0.27471924
1601133486786,318,0.38842773,-0.90826416,-0.27471924
1601133486787,319,0.38842773,-0.90826416,-0.27471924
1601133489123,320,0.4013672,-0.9365845,-0.2810669
1601133489123,321,0.4013672,-0.9365845,-0.2810669
1601133489123,322,0.4013672,-0.9365845,-0.2810669
1601133489123,323,0.4013672,-0.9365845,-0.2810669
1601133489123,324,0.4013672,-0.9365845,-0.2810669
1601133489123,325,0.37719727,-0.9072876,-0.15240479
1601133489123,326,0.4013672,-0.9365845,-0.2810669
1601133489123,327,0.37719727,-0.9072876,-0.15240479
1601133489124,328,0.37719727,-0.9072876,-0.15240479
1601133489124,329,0.4013672,-0.9365845,-0.2810669
1601133489124,330,0.38061523,-0.9038696,-0.120666504
1601133489124,331,0.37719727,-0.9072876,-0.15240479
1601133489124,332,0.38476562,-0.9260864,-0.12823486
1601133489124,333,0.38061523,-0.9038696,-0.120666504
1601133489143,334,0.4013672,-0.9365845,-0.2810669
1601133489143,335,0.4013672,-0.9365845,-0.2810669
1601133489143,336,0.38061523,-0.9038696,-0.120666504
1601133489144,337,0.38061523,-0.9038696,-0.120666504
1601133489144,338,0.37719727,-0.9072876,-0.15240479
1601133489144,339,0.4013672,-0.9365845,-0.2810669
1601133489144,340,0.38476562,-0.9260864,-0.12823486
1601133489144,341,0.37719727,-0.9072876,-0.15240479
1601133489144,342,0.39282227,-0.9324341,-0.14703369
1601133489144,343,0.39282227,-0.9324341,-0.14703369
1601133489144,344,0.37719727,-0.9072876,-0.15240479
1601133489144,345,0.37719727,-0.9072876,-0.15240479
1601133489145,346,0.37719727,-0.9072876,-0.15240479
1601133489145,347,0.38476562,-0.9260864,-0.12823486
1601133489145,348,0.38476562,-0.9260864,-0.12823486
1601133489145,349,0.38061523,-0.9038696,-0.120666504
1601133489145,350,0.38061523,-0.9038696,-0.120666504
1601133489145,351,0.38061523,-0.9038696,-0.120666504
1601133489145,352,0.37939453,-0.94073486,-0.10870361
1601133489145,353,0.39282227,-0.9324341,-0.14703369
1601133489147,354,0.38061523,-0.9038696,-0.120666504
1601133489148,355,0.38061523,-0.9038696,-0.120666504
1601133489148,356,0.39282227,-0.9324341,-0.14703369
1601133489148,357,0.37719727,-0.9072876,-0.15240479
1601133489149,358,0.37939453,-0.94073486,-0.10870361
1601133489150,359,0.38476562,-0.9260864,-0.12823486
1601133489150,360,0.38476562,-0.9260864,-0.12823486
1601133489158,361,0.37939453,-0.94073486,-0.10870361
1601133489158,362,0.38476562,-0.9260864,-0.12823486
1601133489158,363,0.38476562,-0.9260864,-0.12823486
1601133489158,364,0.38476562,-0.9260864,-0.12823486
1601133489159,365,0.37939453,-0.94073486,-0.10870361
1601133489159,366,0.38061523,-0.9038696,-0.120666504
1601133489159,367,0.3869629,-0.92852783,-0.13946533
1601133489159,368,0.3869629,-0.92852783,-0.13946533
1601133489159,369,0.39282227,-0.9324341,-0.14703369
1601133489159,370,0.39282227,-0.9324341,-0.14703369
1601133489176,371,0.3869629,-0.92852783,-0.13946533
1601133489176,372,0.39282227,-0.9324341,-0.14703369
1601133489176,373,0.39282227,-0.9324341,-0.14703369
1601133489177,374,0.37939453,-0.94073486,-0.10870361
1601133489177,375,0.39282227,-0.9324341,-0.14703369
1601133489177,376,0.38085938,-0.93292236,-0.11505127
1601133489177,377,0.3869629,-0.92852783,-0.13946533
1601133489177,378,0.38476562,-0.9260864,-0.12823486
1601133489177,379,0.39013672,-0.9248657,-0.13800049
1601133489177,380,0.37939453,-0.94073486,-0.10870361
1601133489177,381,0.39672852,-0.93634033,-0.17218018
1601133489177,382,0.38085938,-0.93292236,-0.11505127
1601133489177,383,0.37939453,-0.94073486,-0.10870361
1601133489177,384,0.37939453,-0.94073486,-0.10870361
1601133489177,385,0.37939453,-0.94073486,-0.10870361
1601133489178,386,0.38085938,-0.93292236,-0.11505127
1601133489178,387,0.3869629,-0.92852783,-0.13946533
1601133489178,388,0.39282227,-0.9324341,-0.14703369
1601133489178,389,0.3869629,-0.92852783,-0.13946533
1601133489178,390,0.38085938,-0.93292236,-0.11505127
1601133489178,391,0.38330078,-0.9175415,-0.13555908
1601133489187,392,0.3869629,-0.92852783,-0.13946533
1601133489187,393,0.3869629,-0.92852783,-0.13946533
1601133489187,394,0.3869629,-0.92852783,-0.13946533
1601133489187,395,0.39013672,-0.9248657,-0.13800049
1601133489187,396,0.38085938,-0.93292236,-0.11505127
1601133489187,397,0.38085938,-0.93292236,-0.11505127
1601133489188,398,0.38085938,-0.93292236,-0.11505127
1601133489188,399,0.39013672,-0.9248657,-0.13800049
1601133489188,400,0.39013672,-0.9248657,-0.13800049
1601133489188,401,0.39013672,-0.9248657,-0.13800049
1601133489188,402,0.3930664,-0.9248657,-0.15411377
1601133489188,403,0.39013672,-0.9248657,-0.13800049
1601133489188,404,0.39672852,-0.93634033,-0.17218018
1601133489188,405,0.39013672,-0.9248657,-0.13800049
1601133489188,406,0.39672852,-0.93634033,-0.17218018
1601133489188,407,0.38085938,-0.93292236,-0.11505127
1601133489188,408,0.39672852,-0.93634033,-0.17218018
1601133489198,409,0.39672852,-0.93634033,-0.17218018
1601133489198,410,0.38085938,-0.93292236,-0.11505127
1601133489198,411,0.39672852,-0.93634033,-0.17218018
1601133489198,412,0.38891602,-0.92388916,-0.14874268
1601133489198,413,0.38330078,-0.9175415,-0.13555908
1601133489198,414,0.39624023,-0.9417114,-0.16656494
1601133489198,415,0.39672852,-0.93634033,-0.17218018
1601133489198,416,0.37939453,-0.94073486,-0.10870361
1601133489198,417,0.39013672,-0.9248657,-0.13800049
1601133489198,418,0.38330078,-0.9175415,-0.13555908
1601133489198,419,0.39672852,-0.93634033,-0.17218018
1601133489198,420,0.38330078,-0.9175415,-0.13555908
1601133489199,421,0.3869629,-0.92852783,-0.13946533
1601133489199,422,0.3930664,-0.9248657,-0.15411377
1601133489199,423,0.39013672,-0.9248657,-0.13800049
1601133489199,424,0.38330078,-0.9175415,-0.13555908
1601133489199,425,0.3930664,-0.9248657,-0.15411377
1601133489199,426,0.38330078,-0.9175415,-0.13555908
1601133489199,427,0.3930664,-0.9248657,-0.15411377
1601133489199,428,0.38891602,-0.92388916,-0.14874268
1601133489200,429,0.38330078,-0.9175415,-0.13555908
1601133489205,430,0.40283203,-0.9385376,-0.16949463
1601133489206,431,0.38891602,-0.92388916,-0.14874268
1601133489206,432,0.39672852,-0.93634033,-0.17218018
1601133489206,433,0.39624023,-0.9417114,-0.16656494
1601133489206,434,0.3930664,-0.9248657,-0.15411377
1601133489206,435,0.40283203,-0.9385376,-0.16949463
1601133489206,436,0.39624023,-0.9417114,-0.16656494
1601133489206,437,0.3996582,-0.911438,-0.1362915
1601133489206,438,0.38085938,-0.93292236,-0.11505127
1601133489206,439,0.3930664,-0.9248657,-0.15411377
1601133489206,440,0.40185547,-0.9299927,-0.12188721
1601133489206,441,0.3996582,-0.911438,-0.1362915
1601133489206,442,0.3930664,-0.9248657,-0.15411377
1601133489207,443,0.38330078,-0.9175415,-0.13555908
1601133489207,444,0.38891602,-0.92388916,-0.14874268
1601133489207,445,0.3930664,-0.9248657,-0.15411377
1601133489207,446,0.38330078,-0.9175415,-0.13555908
1601133489207,447,0.38891602,-0.92388916,-0.14874268
1601133489207,448,0.39013672,-0.9248657,-0.13800049
1601133489208,449,0.40185547,-0.9299927,-0.12188721
1601133489209,450,0.37841797,-0.8977661,-0.047424316
1601133489211,451,0.38891602,-0.92388916,-0.14874268
1601133489211,452,0.38891602,-0.92388916,-0.14874268
1601133489211,453,0.38891602,-0.92388916,-0.14874268
1601133489211,454,0.3930664,-0.9248657,-0.15411377
1601133489211,455,0.39624023,-0.9417114,-0.16656494
1601133489211,456,0.39624023,-0.9417114,-0.16656494
1601133489211,457,0.39672852,-0.93634033,-0.17218018
1601133489212,458,0.38891602,-0.92388916,-0.14874268
1601133489212,459,0.38330078,-0.9175415,-0.13555908
1601133489212,460,0.39624023,-0.9417114,-0.16656494
1601133489221,461,0.40283203,-0.9385376,-0.16949463
1601133489222,462,0.40283203,-0.9385376,-0.16949463
1601133489222,463,0.3996582,-0.911438,-0.1362915
1601133489222,464,0.41259766,-0.94366455,-0.093811035
1601133489222,465,0.40283203,-0.9385376,-0.16949463
1601133489222,466,0.40283203,-0.9385376,-0.16949463
1601133489222,467,0.4177246,-0.9168091,-0.105041504
1601133489222,468,0.37841797,-0.8977661,-0.047424316
1601133489222,469,0.3996582,-0.911438,-0.1362915
1601133489222,470,0.41259766,-0.94366455,-0.093811035
1601133489222,471,0.39624023,-0.9417114,-0.16656494
1601133489222,472,0.4177246,-0.9168091,-0.105041504
1601133489223,473,0.39624023,-0.9417114,-0.16656494
1601133489223,474,0.40185547,-0.9299927,-0.12188721
1601133489223,475,0.40185547,-0.9299927,-0.12188721
1601133489223,476,0.40283203,-0.9385376,-0.16949463
1601133489223,477,0.3996582,-0.911438,-0.1362915
1601133489223,478,0.3996582,-0.911438,-0.1362915
1601133489223,479,0.37841797,-0.8977661,-0.047424316
1601133489223,480,0.40283203,-0.9385376,-0.16949463
1601133489224,481,0.40185547,-0.9299927,-0.12188721
1601133489225,482,0.37841797,-0.8977661,-0.047424316
1601133489225,483,0.3996582,-0.911438,-0.1362915
1601133489225,484,0.39624023,-0.9417114,-0.16656494
1601133489225,485,0.41259766,-0.94366455,-0.093811035
1601133489226,486,0.40283203,-0.9385376,-0.16949463
1601133489231,487,0.40185547,-0.9299927,-0.12188721
1601133489232,488,0.3996582,-0.911438,-0.1362915
1601133489232,489,0.41259766,-0.94366455,-0.093811035
1601133489232,490,0.38598633,-0.9260864,-0.042541504
1601133489232,491,0.37841797,-0.8977661,-0.047424316
1601133489232,492,0.4177246,-0.9168091,-0.105041504
1601133489232,493,0.3930664,-0.9248657,-0.15411377
1601133489232,494,0.40185547,-0.9299927,-0.12188721
1601133489233,495,0.3996582,-0.911438,-0.1362915
1601133489233,496,0.38891602,-0.92388916,-0.14874268
1601133489233,497,0.37841797,-0.8977661,-0.047424316
1601133489234,498,0.40185547,-0.9299927,-0.12188721
1601133489234,499,0.39624023,-0.9417114,-0.16656494
1601133489234,500,0.40185547,-0.9299927,-0.12188721
1601133489234,501,0.41259766,-0.94366455,-0.093811035
1601133489234,502,0.37841797,-0.8977661,-0.047424316
1601133489234,503,0.37841797,-0.8977661,-0.047424316
1601133489234,504,0.38598633,-0.9260864,-0.042541504
1601133489237,505,0.4243164,-0.91070557,-0.10406494
1601133489237,506,0.41259766,-0.94366455,-0.093811035
1601133489237,507,0.40283203,-0.9385376,-0.16949463
1601133489237,508,0.38598633,-0.9260864,-0.042541504
1601133489238,509,0.37841797,-0.8977661,-0.047424316
1601133489238,510,0.3996582,-0.911438,-0.1362915
1601133489238,511,0.4177246,-0.9168091,-0.105041504
1601133489238,512,0.40185547,-0.9299927,-0.12188721
1601133489238,513,0.41259766,-0.94366455,-0.093811035
1601133489238,514,0.4243164,-0.91070557,-0.10406494
1601133489238,515,0.4152832,-0.93341064,-0.0947876
1601133489239,516,0.4243164,-0.91070557,-0.10406494
1601133489242,517,0.41259766,-0.94366455,-0.093811035
1601133489242,518,0.4152832,-0.93341064,-0.0947876
1601133489243,519,0.4177246,-0.9168091,-0.105041504
1601133489243,520,0.37841797,-0.8977661,-0.047424316
1601133489243,521,0.4177246,-0.9168091,-0.105041504
1601133489243,522,0.4177246,-0.9168091,-0.105041504
1601133489243,523,0.4177246,-0.9168091,-0.105041504
1601133489243,524,0.41259766,-0.94366455,-0.093811035
1601133489244,525,0.41259766,-0.94366455,-0.093811035
1601133489244,526,0.38598633,-0.9260864,-0.042541504
1601133489244,527,0.4177246,-0.9168091,-0.105041504
1601133489244,528,0.38598633,-0.9260864,-0.042541504
1601133489251,529,0.38598633,-0.9260864,-0.042541504
1601133489251,530,0.3942871,-0.90753174,-0.013244629
1601133489251,531,0.38598633,-0.9260864,-0.042541504
1601133489251,532,0.38598633,-0.9260864,-0.042541504
1601133489252,533,0.4177246,-0.9168091,-0.105041504
1601133489252,534,0.4243164,-0.91070557,-0.10406494
1601133489252,535,0.38598633,-0.9260864,-0.042541504
1601133489252,536,0.4152832,-0.93341064,-0.0947876
1601133489252,537,0.3942871,-0.90753174,-0.013244629
1601133489252,538,0.4243164,-0.91070557,-0.10406494
1601133489252,539,0.3942871,-0.90753174,-0.013244629
1601133489252,540,0.4243164,-0.91070557,-0.10406494
1601133489252,541,0.3996582,-0.90997314,-0.05279541
1601133489252,542,0.4243164,-0.91070557,-0.10406494
1601133489252,543,0.4243164,-0.91070557,-0.10406494
1601133489253,544,0.38598633,-0.9260864,-0.042541504
1601133489253,545,0.3996582,-0.90997314,-0.05279541
1601133489253,546,0.4152832,-0.93341064,-0.0947876
1601133489257,547,0.4243164,-0.91070557,-0.10406494
1601133489258,548,0.3996582,-0.90997314,-0.05279541
1601133489258,549,0.4152832,-0.93341064,-0.0947876
1601133489258,550,0.4152832,-0.93341064,-0.0947876
1601133489258,551,0.42651367,-0.9290161,-0.13140869
1601133489258,552,0.4152832,-0.93341064,-0.0947876
1601133489258,553,0.4152832,-0.93341064,-0.0947876
1601133489258,554,0.3942871,-0.90753174,-0.013244629
1601133489258,555,0.42651367,-0.9290161,-0.13140869
1601133489259,556,0.3942871,-0.90753174,-0.013244629
1601133489279,557,0.4152832,-0.93341064,-0.0947876
1601133489279,558,0.42651367,-0.9290161,-0.13140869
1601133489281,559,0.3942871,-0.90753174,-0.013244629
1601133489281,560,0.3942871,-0.90753174,-0.013244629
1601133489282,561,0.4243164,-0.91070557,-0.10406494
1601133489282,562,0.3996582,-0.90997314,-0.05279541
1601133489282,563,0.3996582,-0.90997314,-0.05279541
1601133489282,564,0.3828125,-0.9175415,-0.14654541
1601133489282,565,0.42651367,-0.9290161,-0.13140869
1601133489282,566,0.3996582,-0.90997314,-0.05279541
1601133489282,567,0.3828125,-0.9175415,-0.14654541
1601133489282,568,0.3828125,-0.9175415,-0.14654541
1601133489282,569,0.3942871,-0.90753174,-0.013244629
1601133489282,570,0.3942871,-0.90753174,-0.013244629
1601133489283,571,0.42651367,-0.9290161,-0.13140869
1601133489283,572,0.42651367,-0.9290161,-0.13140869
1601133489283,573,0.3996582,-0.90997314,-0.05279541
1601133489283,574,0.3996582,-0.90997314,-0.05279541
1601133489283,575,0.3828125,-0.9175415,-0.14654541
1601133489283,576,0.42651367,-0.9290161,-0.13140869
1601133489283,577,0.39770508,-0.95025635,-0.23712158
1601133489283,578,0.39770508,-0.95025635,-0.23712158
1601133489283,579,0.39770508,-0.95025635,-0.23712158
1601133489283,580,0.3955078,-0.9053345,-0.25738525
1601133489284,581,0.3996582,-0.90997314,-0.05279541
1601133489284,582,0.39770508,-0.95025635,-0.23712158
1601133489284,583,0.35229492,-0.9194946,-0.15826416
1601133489284,584,0.3828125,-0.9175415,-0.14654541
1601133489284,585,0.3828125,-0.9175415,-0.14654541
1601133489284,586,0.42651367,-0.9290161,-0.13140869
1601133489284,587,0.4152832,-0.93341064,-0.0947876
1601133489284,588,0.3955078,-0.9053345,-0.25738525
1601133489284,589,0.3828125,-0.9175415,-0.14654541
1601133489284,590,0.3828125,-0.9175415,-0.14654541
1601133489284,591,0.3955078,-0.9053345,-0.25738525
1601133489284,592,0.39770508,-0.95025635,-0.23712158
1601133489285,593,0.38208008,-0.9470825,-0.23370361
1601133489285,594,0.42651367,-0.9290161,-0.13140869
1601133489285,595,0.3942871,-0.90753174,-0.013244629
1601133489285,596,0.3955078,-0.9053345,-0.25738525
1601133489285,597,0.39770508,-0.95025635,-0.23712158
1601133489285,598,0.39135742,-1.0027466,-0.18560791
1601133489285,599,0.3996582,-0.90997314,-0.05279541
1601133489285,600,0.39770508,-0.95025635,-0.23712158
1601133489285,601,0.35229492,-0.9194946,-0.15826416
1601133489286,602,0.3828125,-0.9175415,-0.14654541
1601133489286,603,0.35229492,-0.9194946,-0.15826416
1601133489287,604,0.3955078,-0.9053345,-0.25738525
1601133489287,605,0.39770508,-0.95025635,-0.23712158
1601133489287,606,0.3955078,-0.9053345,-0.25738525
1601133489288,607,0.42651367,-0.9290161,-0.13140869
1601133489288,608,0.3955078,-0.9053345,-0.25738525
1601133489288,609,0.38208008,-0.9470825,-0.23370361
1601133489288,610,0.38208008,-0.9470825,-0.23370361
1601133489288,611,0.35229492,-0.9194946,-0.15826416
1601133489288,612,0.3955078,-0.9053345,-0.25738525
1601133489293,613,0.35229492,-0.9194946,-0.15826416
1601133489293,614,0.39770508,-0.95025635,-0.23712158
1601133489293,615,0.38208008,-0.9470825,-0.23370361
1601133489293,616,0.3955078,-0.9053345,-0.25738525
1601133489293,617,0.38208008,-0.9470825,-0.23370361
1601133489293,618,0.35229492,-0.9194946,-0.15826416
1601133489293,619,0.35229492,-0.9194946,-0.15826416
1601133489293,620,0.39135742,-1.0027466,-0.18560791
1601133489294,621,0.35229492,-0.9194946,-0.15826416
1601133489298,622,0.3828125,-0.9175415,-0.14654541
1601133489298,623,0.39135742,-1.0027466,-0.18560791
1601133489298,624,0.39135742,-1.0027466,-0.18560791
1601133489298,625,0.39770508,-0.95025635,-0.23712158
1601133489299,626,0.38208008,-0.9470825,-0.23370361
1601133489299,627,0.39135742,-1.0027466,-0.18560791
1601133489301,628,0.38208008,-0.9470825,-0.23370361
1601133489301,629,0.35229492,-0.9194946,-0.15826416
1601133489301,630,0.38208008,-0.9470825,-0.23370361
1601133489301,631,0.3955078,-0.9053345,-0.25738525
1601133489302,632,0.39135742,-1.0027466,-0.18560791
1601133489302,633,0.39135742,-1.0027466,-0.18560791
1601133489303,634,0.38208008,-0.9470825,-0.23370361
1601133489303,635,0.35229492,-0.9194946,-0.15826416
1601133489304,636,0.39135742,-1.0027466,-0.18560791
1601133489304,637,0.38208008,-0.9470825,-0.23370361
1601133489305,638,0.39135742,-1.0027466,-0.18560791
1601133489306,639,0.39135742,-1.0027466,-0.18560791
1601133491682,640,0.33935547,-0.9368286,0.020446777
1601133491682,641,0.33935547,-0.9368286,0.020446777
1601133491683,642,0.33935547,-0.9368286,0.020446777
1601133491683,643,0.33935547,-0.9368286,0.020446777
1601133491683,644,0.33935547,-0.9368286,0.020446777
1601133491683,645,0.33935547,-0.9368286,0.020446777
1601133491684,646,0.34716797,-0.9187622,0.097351074
1601133491684,647,0.33935547,-0.9368286,0.020446777
1601133491684,648,0.33935547,-0.9368286,0.020446777
1601133491685,649,0.34716797,-0.9187622,0.097351074
1601133491716,650,0.34716797,-0.9187622,0.097351074
1601133491721,651,0.35717773,-1.0007935,0.14593506
1601133491721,652,0.33935547,-0.9368286,0.020446777
1601133491721,653,0.36547852,-0.9963989,0.18719482
1601133491721,654,0.34716797,-0.9187622,0.097351074
1601133491721,655,0.35717773,-1.0007935,0.14593506
1601133491721,656,0.35717773,-1.0007935,0.14593506
1601133491721,657,0.33935547,-0.9368286,0.020446777
1601133491722,658,0.34716797,-0.9187622,0.097351074
1601133491722,659,0.36547852,-0.9963989,0.18719482
1601133491722,660,0.34716797,-0.9187622,0.097351074
1601133491722,661,0.35717773,-1.0007935,0.14593506
1601133491722,662,0.34716797,-0.9187622,0.097351074
1601133491722,663,0.34716797,-0.9187622,0.097351074
1601133491722,664,0.37573242,-0.6880493,0.22723389
1601133491722,665,0.34716797,-0.9187622,0.097351074
1601133491722,666,0.35717773,-1.0007935,0.14593506
1601133491722,667,0.34716797,-0.9187622,0.097351074
1601133491723,668,0.35717773,-1.0007935,0.14593506
1601133491723,669,0.37573242,-0.6880493,0.22723389
1601133491723,670,0.35717773,-1.0007935,0.14593506
1601133491723,671,0.37963867,-0.6856079,0.26531982
1601133491723,672,0.36547852,-0.9963989,0.18719482
1601133491723,673,0.34545898,-1.0498657,0.42010498
1601133491723,674,0.37963867,-0.6856079,0.26531982
1601133491723,675,0.35717773,-1.0007935,0.14593506
1601133491723,676,0.35717773,-1.0007935,0.14593506
1601133491724,677,0.36547852,-0.9963989,0.18719482
1601133491724,678,0.35717773,-1.0007935,0.14593506
1601133491724,679,0.36547852,-0.9963989,0.18719482
1601133491724,680,0.36547852,-0.9963989,0.18719482
1601133491724,681,0.36547852,-0.9963989,0.18719482
1601133491724,682,0.37573242,-0.6880493,0.22723389
1601133491724,683,0.37573242,-0.6880493,0.22723389
1601133491725,684,0.37963867,-0.6856079,0.26531982
1601133491725,685,0.34545898,-1.0498657,0.42010498
1601133491725,686,0.36547852,-0.9963989,0.18719482
1601133491725,687,0.36547852,-0.9963989,0.18719482
1601133491725,688,0.31054688,-0.86260986,0.4376831
1601133491725,689,0.37573242,-0.6880493,0.22723389
1601133491725,690,0.37963867,-0.6856079,0.26531982
1601133491725,691,0.37573242,-0.6880493,0.22723389
1601133491726,692,0.37963867,-0.6856079,0.26531982
1601133491726,693,0.34545898,-1.0498657,0.42010498
1601133491726,694,0.34545898,-1.0498657,0.42010498
1601133491726,695,0.37573242,-0.6880493,0.22723389
1601133491726,696,0.31054688,-0.86260986,0.4376831
1601133491726,697,0.36547852,-0.9963989,0.18719482
1601133491726,698,0.2902832,-0.68634033,0.5009155
1601133491726,699,0.31054688,-0.86260986,0.4376831
1601133491728,700,0.37573242,-0.6880493,0.22723389
1601133491728,701,0.37963867,-0.6856079,0.26531982
1601133491728,702,0.31054688,-0.86260986,0.4376831
1601133491729,703,0.37963867,-0.6856079,0.26531982
1601133491729,704,0.34545898,-1.0498657,0.42010498
1601133491729,705,0.2902832,-0.68634033,0.5009155
1601133491729,706,0.34545898,-1.0498657,0.42010498
1601133491730,707,0.37963867,-0.6856079,0.26531982
1601133491730,708,0.24438477,-0.64727783,0.6793823
1601133491753,709,0.34545898,-1.0498657,0.42010498
1601133491753,710,0.37573242,-0.6880493,0.22723389
1601133491754,711,0.37573242,-0.6880493,0.22723389
1601133491754,712,0.2902832,-0.68634033,0.5009155
1601133491754,713,0.37963867,-0.6856079,0.26531982
1601133491754,714,0.31054688,-0.86260986,0.4376831
1601133491755,715,0.34545898,-1.0498657,0.42010498
1601133491755,716,0.2902832,-0.68634033,0.5009155
1601133491755,717,0.31054688,-0.86260986,0.4376831
1601133491755,718,0.34545898,-1.0498657,0.42010498
1601133491755,719,0.31054688,-0.86260986,0.4376831
1601133491755,720,0.2902832,-0.68634033,0.5009155
1601133491755,721,0.24438477,-0.64727783,0.6793823
1601133491756,722,0.24438477,-0.64727783,0.6793823
1601133491756,723,0.24438477,-0.64727783,0.6793823
1601133491756,724,0.22680664,-0.64971924,0.6725464
1601133491756,725,0.22680664,-0.64971924,0.6725464
1601133491756,726,0.24438477,-0.64727783,0.6793823
1601133491757,727,0.22680664,-0.64971924,0.6725464
1601133491757,728,0.37963867,-0.6856079,0.26531982
1601133491757,729,0.2019043,-0.6343384,0.7025757
1601133491757,730,0.2902832,-0.68634033,0.5009155
1601133491757,731,0.22045898,-0.7234497,0.62786865
1601133491757,732,0.2019043,-0.6343384,0.7025757
1601133491757,733,0.22680664,-0.64971924,0.6725464
1601133491757,734,0.2019043,-0.6343384,0.7025757
1601133491758,735,0.22045898,-0.7234497,0.62786865
1601133491758,736,0.2902832,-0.68634033,0.5009155
1601133491758,737,0.22680664,-0.64971924,0.6725464
1601133491758,738,0.34545898,-1.0498657,0.42010498
1601133491758,739,0.31054688,-0.86260986,0.4376831
1601133491758,740,0.31054688,-0.86260986,0.4376831
1601133491758,741,0.26293945,-0.79693604,0.5529175
1601133491758,742,0.2019043,-0.6343384,0.7025757
1601133491758,743,0.24438477,-0.64727783,0.6793823
1601133491758,744,0.2902832,-0.68634033,0.5009155
1601133491762,745,0.2902832,-0.68634033,0.5009155
1601133491762,746,0.24438477,-0.64727783,0.6793823
1601133491762,747,0.22680664,-0.64971924,0.6725464
1601133491762,748,0.22680664,-0.64971924,0.6725464
1601133491763,749,0.24438477,-0.64727783,0.6793823
1601133491763,750,0.22045898,-0.7234497,0.62786865
1601133491763,751,0.22680664,-0.64971924,0.6725464
1601133491764,752,0.2019043,-0.6343384,0.7025757
1601133491764,753,0.22045898,-0.7234497,0.62786865
1601133491764,754,0.22045898,-0.7234497,0.62786865
1601133491764,755,0.26293945,-0.79693604,0.5529175
1601133491764,756,0.2019043,-0.6343384,0.7025757
1601133491765,757,0.24438477,-0.64727783,0.6793823
1601133491765,758,0.26293945,-0.79693604,0.5529175
1601133491765,759,0.26293945,-0.79693604,0.5529175
1601133491765,760,0.22802734,-0.7522583,0.59002686
1601133491765,761,0.22045898,-0.7234497,0.62786865
1601133491765,762,0.23608398,-0.75982666,0.5775757
1601133491765,763,0.31054688,-0.86260986,0.4376831
1601133491765,764,0.26293945,-0.79693604,0.5529175
1601133491766,765,0.2902832,-0.68634033,0.5009155
1601133491766,766,0.22802734,-0.7522583,0.59002686
1601133491766,767,0.22802734,-0.7522583,0.59002686
1601133491766,768,0.23608398,-0.75982666,0.5775757
1601133491766,769,0.22265625,-0.72125244,0.59832764
1601133491766,770,0.22802734,-0.7522583,0.59002686
1601133491766,771,0.22045898,-0.69854736,0.5824585
1601133491766,772,0.2019043,-0.6343384,0.7025757
1601133491767,773,0.2019043,-0.6343384,0.7025757
1601133491767,774,0.24438477,-0.64727783,0.6793823
1601133491767,775,0.22680664,-0.64971924,0.6725464
1601133491767,776,0.22680664,-0.64971924,0.6725464
1601133491767,777,0.22045898,-0.7234497,0.62786865
1601133491767,778,0.23608398,-0.75982666,0.5775757
1601133491769,779,0.26293945,-0.79693604,0.5529175
1601133491770,780,0.23608398,-0.75982666,0.5775757
1601133491770,781,0.22802734,-0.7522583,0.59002686
1601133491774,782,0.23608398,-0.75982666,0.5775757
1601133491774,783,0.2019043,-0.6343384,0.7025757
1601133491774,784,0.22265625,-0.72125244,0.59832764
1601133491774,785,0.22045898,-0.7234497,0.62786865
1601133491780,786,0.22265625,-0.72125244,0.59832764
1601133491780,787,0.22265625,-0.72125244,0.59832764
1601133491780,788,0.22802734,-0.7522583,0.59002686
1601133491780,789,0.22265625,-0.72125244,0.59832764
1601133491781,790,0.26293945,-0.79693604,0.5529175
1601133491781,791,0.41723633,-1.0525513,0.097351074
1601133491781,792,0.22045898,-0.7234497,0.62786865
1601133491781,793,0.22045898,-0.69854736,0.5824585
1601133491781,794,0.22045898,-0.69854736,0.5824585
1601133491781,795,0.26293945,-0.79693604,0.5529175
1601133491781,796,0.41723633,-1.0525513,0.097351074
1601133491781,797,0.41723633,-1.0525513,0.097351074
1601133491781,798,0.22045898,-0.69854736,0.5824585
1601133491781,799,0.39331055,-0.7283325,-0.062316895
1601133491781,800,0.26293945,-0.79693604,0.5529175
1601133491782,801,0.39331055,-0.7283325,-0.062316895
1601133491782,802,0.22802734,-0.7522583,0.59002686
1601133491782,803,0.2734375,-0.94659424,0.6359253
1601133491802,804,0.22045898,-0.69854736,0.5824585
1601133491802,805,0.22802734,-0.7522583,0.59002686
1601133491802,806,0.39331055,-0.7283325,-0.062316895
1601133491802,807,0.2734375,-0.94659424,0.6359253
1601133491802,808,0.41723633,-1.0525513,0.097351074
1601133491803,809,0.3322754,-0.7974243,0.4389038
1601133491803,810,0.2019043,-0.6343384,0.7025757
1601133491803,811,0.23608398,-0.75982666,0.5775757
1601133491803,812,0.2734375,-0.94659424,0.6359253
1601133491803,813,0.3322754,-0.7974243,0.4389038
1601133491803,814,0.22265625,-0.72125244,0.59832764
1601133491803,815,0.29882812,-0.6445923,0.47943115
1601133491803,816,0.3322754,-0.7974243,0.4389038
1601133491803,817,0.23608398,-0.75982666,0.5775757
1601133491803,818,0.39331055,-0.7283325,-0.062316895
1601133491804,819,0.29882812,-0.6445923,0.47943115
1601133491804,820,0.22802734,-0.7522583,0.59002686
1601133491804,821,0.22045898,-0.7234497,0.62786865
1601133491804,822,0.23608398,-0.75982666,0.5775757
1601133491804,823,0.22045898,-0.69854736,0.5824585
1601133491804,824,0.20239258,-0.7276001,0.68182373
1601133491804,825,0.41723633,-1.0525513,0.097351074
1601133491804,826,0.26293945,-0.79693604,0.5529175
1601133491804,827,0.39331055,-0.7283325,-0.062316895
1601133491804,828,0.20239258,-0.7276001,0.68182373
1601133491804,829,0.29882812,-0.6445923,0.47943115
1601133491804,830,0.22265625,-0.72125244,0.59832764
1601133491805,831,0.2734375,-0.94659424,0.6359253
1601133491805,832,0.21972656,-0.69854736,0.6054077
1601133491805,833,0.22045898,-0.69854736,0.5824585
1601133491805,834,0.22265625,-0.72125244,0.59832764
1601133491805,835,0.24438477,-0.7612915,0.5536499
1601133491809,836,0.27148438,-0.85723877,0.42352295
1601133491809,837,0.22802734,-0.7522583,0.59002686
1601133491809,838,0.20239258,-0.7276001,0.68182373
1601133491809,839,0.41723633,-1.0525513,0.097351074
1601133491810,840,0.23608398,-0.75982666,0.5775757
1601133491810,841,0.22045898,-0.69854736,0.5824585
1601133491811,842,0.41723633,-1.0525513,0.097351074
1601133491811,843,0.2734375,-0.94659424,0.6359253
1601133491819,844,0.3322754,-0.7974243,0.4389038
1601133491820,845,0.21972656,-0.69854736,0.6054077
1601133491820,846,0.26635742,-0.84088135,0.39715576
1601133491820,847,0.23608398,-0.75982666,0.5775757
1601133491820,848,0.39331055,-0.7283325,-0.062316895
1601133491820,849,0.22265625,-0.72125244,0.59832764
1601133491821,850,0.28857422,-0.9187622,0.37371826
1601133491821,851,0.41723633,-1.0525513,0.097351074
1601133491821,852,0.39331055,-0.7283325,-0.062316895
1601133491821,853,0.3322754,-0.7974243,0.4389038
1601133491821,854,0.39331055,-0.7283325,-0.062316895
1601133491821,855,0.22265625,-0.72125244,0.59832764
1601133491821,856,0.2734375,-0.94659424,0.6359253
1601133491821,857,0.24438477,-0.7612915,0.5536499
1601133491821,858,0.22045898,-0.69854736,0.5824585
1601133491821,859,0.27148438,-0.85723877,0.42352295
1601133491821,860,0.41723633,-1.0525513,0.097351074
1601133491821,861,0.22045898,-0.69854736,0.5824585
1601133491822,862,0.2734375,-0.94659424,0.6359253
1601133491822,863,0.29882812,-0.6445923,0.47943115
1601133491822,864,0.29882812,-0.6445923,0.47943115
1601133491830,865,0.21972656,-0.69854736,0.6054077
1601133491830,866,0.3322754,-0.7974243,0.4389038
1601133491831,867,0.26635742,-0.84088135,0.39715576
1601133491831,868,0.24438477,-0.7612915,0.5536499
1601133491831,869,0.2734375,-0.94659424,0.6359253
1601133491831,870,0.41723633,-1.0525513,0.097351074
1601133491831,871,0.3322754,-0.7974243,0.4389038
1601133491831,872,0.2849121,-0.89141846,0.3678589
1601133491831,873,0.20239258,-0.7276001,0.68182373
1601133491831,874,0.20239258,-0.7276001,0.68182373
1601133491832,875,0.39331055,-0.7283325,-0.062316895
1601133491835,876,0.3322754,-0.7974243,0.4389038
1601133491835,877,0.28857422,-0.9187622,0.37371826
1601133491835,878,0.27148438,-0.85723877,0.42352295
1601133491835,879,0.27246094,-0.93170166,0.3554077
1601133491835,880,0.29882812,-0.6445923,0.47943115
1601133491835,881,0.26635742,-0.84088135,0.39715576
1601133491835,882,0.29882812,-0.6445923,0.47943115
1601133491835,883,0.28857422,-0.9187622,0.37371826
1601133491835,884,0.29882812,-0.6445923,0.47943115
1601133491835,885,0.2849121,-0.89141846,0.3678589
1601133491835,886,0.39501953,-0.9741821,0.06536865
1601133491835,887,0.27246094,-0.93170166,0.3554077
1601133491835,888,0.2734375,-0.94659424,0.6359253
1601133491835,889,0.20239258,-0.7276001,0.68182373
1601133491835,890,0.20239258,-0.7276001,0.68182373
1601133491836,891,0.39331055,-0.7283325,-0.062316895
1601133491836,892,0.2849121,-0.89141846,0.3678589
1601133491840,893,0.20239258,-0.7276001,0.68182373
1601133491840,894,0.21972656,-0.69854736,0.6054077
1601133491840,895,0.21972656,-0.69854736,0.6054077
1601133491840,896,0.21972656,-0.69854736,0.6054077
1601133491840,897,0.21972656,-0.69854736,0.6054077
1601133491840,898,0.21972656,-0.69854736,0.6054077
1601133491840,899,0.3322754,-0.7974243,0.4389038
1601133491840,900,0.2734375,-0.94659424,0.6359253
1601133491841,901,0.27246094,-0.93170166,0.3554077
1601133491844,902,0.39501953,-0.9741821,0.06536865
1601133491844,903,0.39501953,-0.9741821,0.06536865
1601133491844,904,0.24438477,-0.7612915,0.5536499
1601133491844,905,0.24438477,-0.7612915,0.5536499
1601133491844,906,0.24438477,-0.7612915,0.5536499
1601133491844,907,0.29882812,-0.6445923,0.47943115
1601133491844,908,0.24438477,-0.7612915,0.5536499
1601133491849,909,0.27148438,-0.85723877,0.42352295
1601133491849,910,0.3322754,-0.7974243,0.4389038
1601133491849,911,0.27148438,-0.85723877,0.42352295
1601133491849,912,0.27148438,-0.85723877,0.42352295
1601133491849,913,0.29882812,-0.6445923,0.47943115
1601133491849,914,0.26635742,-0.84088135,0.39715576
1601133491849,915,0.20239258,-0.7276001,0.68182373
1601133491849,916,0.24438477,-0.7612915,0.5536499
1601133491852,917,0.26635742,-0.84088135,0.39715576
1601133491852,918,0.27148438,-0.85723877,0.42352295
1601133491852,919,0.20239258,-0.7276001,0.68182373
1601133491852,920,0.28857422,-0.9187622,0.37371826
1601133491852,921,0.2849121,-0.89141846,0.3678589
1601133491852,922,0.28857422,-0.9187622,0.37371826
1601133491852,923,0.21972656,-0.69854736,0.6054077
1601133491857,924,0.24438477,-0.7612915,0.5536499
1601133491857,925,0.26635742,-0.84088135,0.39715576
1601133491857,926,0.21972656,-0.69854736,0.6054077
1601133491857,927,0.27246094,-0.93170166,0.3554077
1601133491857,928,0.28857422,-0.9187622,0.37371826
1601133491857,929,0.27148438,-0.85723877,0.42352295
1601133491857,930,0.2849121,-0.89141846,0.3678589
1601133491861,931,0.27246094,-0.93170166,0.3554077
1601133491861,932,0.26635742,-0.84088135,0.39715576
1601133491861,933,0.39501953,-0.9741821,0.06536865
1601133491861,934,0.26635742,-0.84088135,0.39715576
1601133491861,935,0.24438477,-0.7612915,0.5536499
1601133491862,936,0.2849121,-0.89141846,0.3678589
1601133491862,937,0.39501953,-0.9741821,0.06536865
1601133491863,938,0.28857422,-0.9187622,0.37371826
1601133491863,939,0.27148438,-0.85723877,0.42352295
1601133491865,940,0.27246094,-0.93170166,0.3554077
1601133491867,941,0.28857422,-0.9187622,0.37371826
1601133491868,942,0.2849121,-0.89141846,0.3678589
1601133491869,943,0.2849121,-0.89141846,0.3678589
1601133491869,944,0.27148438,-0.85723877,0.42352295
1601133491869,945,0.39501953,-0.9741821,0.06536865
1601133491869,946,0.26635742,-0.84088135,0.39715576
1601133491869,947,0.26635742,-0.84088135,0.39715576
1601133491870,948,0.27246094,-0.93170166,0.3554077
1601133491872,949,0.27246094,-0.93170166,0.3554077
1601133491872,950,0.28857422,-0.9187622,0.37371826
1601133491872,951,0.28857422,-0.9187622,0.37371826
1601133491873,952,0.39501953,-0.9741821,0.06536865
1601133491875,953,0.39501953,-0.9741821,0.06536865
1601133491876,954,0.2849121,-0.89141846,0.3678589
1601133491879,955,0.2849121,-0.89141846,0.3678589
1601133491880,956,0.27246094,-0.93170166,0.3554077
1601133491880,957,0.27246094,-0.93170166,0.3554077
1601133491880,958,0.39501953,-0.9741821,0.06536865
1601133491880,959,0.39501953,-0.9741821,0.06536865
1601133494190,960,0.28735352,-0.9338989,0.4550171
1601133494194,961,0.28735352,-0.9338989,0.4550171
1601133494200,962,0.28735352,-0.9338989,0.4550171
1601133494201,963,0.28735352,-0.9338989,0.4550171
1601133494201,964,0.28735352,-0.9338989,0.4550171
1601133494201,965,0.28735352,-0.9338989,0.4550171
1601133494201,966,0.32592773,-0.5095825,0.38739014
1601133494202,967,0.28735352,-0.9338989,0.4550171
1601133494202,968,0.32592773,-0.5095825,0.38739014
1601133494202,969,0.32592773,-0.5095825,0.38739014
1601133494202,970,0.13208008,-0.6187134,0.86517334
1601133494202,971,0.28735352,-0.9338989,0.4550171
1601133494202,972,0.22924805,-0.6712036,0.6185913
1601133494203,973,0.32592773,-0.5095825,0.38739014
1601133494203,974,0.32592773,-0.5095825,0.38739014
1601133494203,975,0.28735352,-0.9338989,0.4550171
1601133494205,976,0.13208008,-0.6187134,0.86517334
1601133494205,977,0.13208008,-0.6187134,0.86517334
1601133494205,978,0.32592773,-0.5095825,0.38739014
1601133494205,979,0.23657227,-0.7871704,0.6220093
1601133494206,980,0.32592773,-0.5095825,0.38739014
1601133494206,981,0.32592773,-0.5095825,0.38739014
1601133494206,982,0.13208008,-0.6187134,0.86517334
1601133494206,983,0.13208008,-0.6187134,0.86517334
1601133494206,984,0.32592773,-0.5095825,0.38739014
1601133494206,985,0.13208008,-0.6187134,0.86517334
1601133494216,986,0.22924805,-0.6712036,0.6185913
1601133494216,987,0.28735352,-0.9338989,0.4550171
1601133494216,988,0.23657227,-0.7871704,0.6220093
1601133494216,989,0.13208008,-0.6187134,0.86517334
1601133494217,990,0.13208008,-0.6187134,0.86517334
1601133494217,991,0.22924805,-0.6712036,0.6185913
1601133494217,992,0.22924805,-0.6712036,0.6185913
1601133494217,993,0.22924805,-0.6712036,0.6185913
1601133494217,994,0.22924805,-0.6712036,0.6185913
1601133494217,995,0.23657227,-0.7871704,0.6220093
1601133494217,996,0.13208008,-0.6187134,0.86517334
1601133494217,997,0.19921875,-0.6670532,0.64764404
1601133494217,998,0.19921875,-0.6670532,0.64764404
1601133494218,999,0.22924805,-0.6712036,0.6185913
1601133494218,1000,0.32592773,-0.5095825,0.38739014
1601133494218,1001,0.20239258,-0.73394775,0.6281128
1601133494218,1002,0.23657227,-0.7871704,0.6220093
1601133494218,1003,0.23657227,-0.7871704,0.6220093
1601133494219,1004,0.23657227,-0.7871704,0.6220093
1601133494220,1005,0.13208008,-0.6187134,0.86517334
1601133494220,1006,0.19921875,-0.6670532,0.64764404
1601133494220,1007,0.20239258,-0.73394775,0.6281128
1601133494220,1008,0.22924805,-0.6712036,0.6185913
1601133494220,1009,0.22924805,-0.6712036,0.6185913
1601133494220,1010,0.20239258,-0.73394775,0.6281128
1601133494220,1011,0.23657227,-0.7871704,0.6220093
1601133494220,1012,0.19921875,-0.6670532,0.64764404
1601133494220,1013,0.21118164,-0.7654419,0.61224365
1601133494221,1014,0.19921875,-0.6670532,0.64764404
1601133494226,1015,0.23657227,-0.7871704,0.6220093
1601133494227,1016,0.21118164,-0.7654419,0.61224365
1601133494227,1017,0.21118164,-0.7654419,0.61224365
1601133494227,1018,0.23657227,-0.7871704,0.6220093
1601133494227,1019,0.21191406,-0.75567627,0.5961304
1601133494227,1020,0.20239258,-0.73394775,0.6281128
1601133494227,1021,0.22924805,-0.6712036,0.6185913
1601133494227,1022,0.21191406,-0.75567627,0.5961304
1601133494228,1023,0.19921875,-0.6670532,0.64764404
1601133494228,1024,0.21118164,-0.7654419,0.61224365
1601133494228,1025,0.23657227,-0.7871704,0.6220093
1601133494234,1026,0.21191406,-0.75567627,0.5961304
1601133494234,1027,0.19921875,-0.6670532,0.64764404
1601133494234,1028,0.19921875,-0.6670532,0.64764404
1601133494234,1029,0.21875,-0.7588501,0.56048584
1601133494234,1030,0.20239258,-0.73394775,0.6281128
1601133494235,1031,0.22241211,-0.79522705,0.5775757
1601133494235,1032,0.21191406,-0.75567627,0.5961304
1601133494235,1033,0.19921875,-0.6670532,0.64764404
1601133494235,1034,0.20239258,-0.73394775,0.6281128
1601133494236,1035,0.21875,-0.7588501,0.56048584
1601133494236,1036,0.21875,-0.7588501,0.56048584
1601133494236,1037,0.20239258,-0.73394775,0.6281128
1601133494241,1038,0.22241211,-0.79522705,0.5775757
1601133494242,1039,0.21118164,-0.7654419,0.61224365
1601133494242,1040,0.22875977,-0.7835083,0.5372925
1601133494242,1041,0.21875,-0.7588501,0.56048584
1601133494242,1042,0.20239258,-0.73394775,0.6281128
1601133494242,1043,0.21118164,-0.7654419,0.61224365
1601133494242,1044,0.22241211,-0.79522705,0.5775757
1601133494242,1045,0.20239258,-0.73394775,0.6281128
1601133494242,1046,0.22241211,-0.79522705,0.5775757
1601133494243,1047,0.22875977,-0.7835083,0.5372925
1601133494255,1048,0.2626953,-0.8328247,0.447937
1601133494255,1049,0.19921875,-0.6670532,0.64764404
1601133494255,1050,0.21118164,-0.7654419,0.61224365
1601133494255,1051,0.21118164,-0.7654419,0.61224365
1601133494255,1052,0.21191406,-0.75567627,0.5961304
1601133494255,1053,0.21118164,-0.7654419,0.61224365
1601133494255,1054,0.21191406,-0.75567627,0.5961304
1601133494256,1055,0.22875977,-0.7835083,0.5372925
1601133494256,1056,0.21875,-0.7588501,0.56048584
1601133494256,1057,0.21191406,-0.75567627,0.5961304
1601133494256,1058,0.22241211,-0.79522705,0.5775757
1601133494256,1059,0.22875977,-0.7835083,0.5372925
1601133494256,1060,0.20239258,-0.73394775,0.6281128
1601133494256,1061,0.22875977,-0.7835083,0.5372925
1601133494256,1062,0.21191406,-0.75567627,0.5961304
1601133494257,1063,0.24560547,-0.8225708,0.46697998
1601133494257,1064,0.2626953,-0.8328247,0.447937
1601133494270,1065,0.21191406,-0.75567627,0.5961304
1601133494270,1066,0.21875,-0.7588501,0.56048584
1601133494270,1067,0.2626953,-0.8328247,0.447937
1601133494271,1068,0.21875,-0.7588501,0.56048584
1601133494271,1069,0.2626953,-0.8328247,0.447937
1601133494271,1070,0.24560547,-0.8225708,0.46697998
1601133494271,1071,0.22241211,-0.79522705,0.5775757
1601133494271,1072,0.21875,-0.7588501,0.56048584
1601133494271,1073,0.19506836,-0.74664307,0.54071045
1601133494271,1074,0.24560547,-0.8225708,0.46697998
1601133494271,1075,0.22241211,-0.79522705,0.5775757
1601133494272,1076,0.19506836,-0.74664307,0.54071045
1601133494272,1077,0.21875,-0.7588501,0.56048584
1601133494273,1078,0.2626953,-0.8328247,0.447937
1601133494273,1079,0.21118164,-0.7654419,0.61224365
1601133494273,1080,0.22241211,-0.79522705,0.5775757
1601133494273,1081,0.24560547,-0.8225708,0.46697998
1601133494274,1082,0.22875977,-0.7835083,0.5372925
1601133494274,1083,0.19506836,-0.74664307,0.54071045
1601133494274,1084,0.29248047,-0.9685669,0.30267334
1601133494274,1085,0.29248047,-0.9685669,0.30267334
1601133494274,1086,0.22875977,-0.7835083,0.5372925
1601133494274,1087,0.27124023,-0.90216064,0.3475952
1601133494274,1088,0.24560547,-0.8225708,0.46697998
1601133494274,1089,0.25878906,-0.89727783,0.3649292
1601133494275,1090,0.22241211,-0.79522705,0.5775757
1601133494275,1091,0.22875977,-0.7835083,0.5372925
1601133494275,1092,0.19506836,-0.74664307,0.54071045
1601133494275,1093,0.22875977,-0.7835083,0.5372925
1601133494275,1094,0.29248047,-0.9685669,0.30267334
1601133494275,1095,0.27124023,-0.90216064,0.3475952
1601133494275,1096,0.2626953,-0.8328247,0.447937
1601133494275,1097,0.19506836,-0.74664307,0.54071045
1601133494276,1098,0.2626953,-0.8328247,0.447937
1601133494279,1099,0.29248047,-0.9685669,0.30267334
1601133494279,1100,0.2626953,-0.8328247,0.447937
1601133494279,1101,0.25878906,-0.89727783,0.3649292
1601133494279,1102,0.27124023,-0.90216064,0.3475952
1601133494279,1103,0.21191406,-0.75567627,0.5961304
1601133494280,1104,0.29248047,-0.9685669,0.30267334
1601133494280,1105,0.24560547,-0.8225708,0.46697998
1601133494280,1106,0.2368164,-0.89190674,0.39813232
1601133494285,1107,0.24560547,-0.8225708,0.46697998
1601133494286,1108,0.24560547,-0.8225708,0.46697998
1601133494286,1109,0.27124023,-0.90216064,0.3475952
1601133494286,1110,0.2368164,-0.89190674,0.39813232
1601133494286,1111,0.2626953,-0.8328247,0.447937
1601133494286,1112,0.21875,-0.7588501,0.56048584
1601133494286,1113,0.19506836,-0.74664307,0.54071045
1601133494286,1114,0.19506836,-0.74664307,0.54071045
1601133494286,1115,0.27856445,-0.91607666,0.31781006
1601133494286,1116,0.24560547,-0.8225708,0.46697998
1601133494286,1117,0.29248047,-0.9685669,0.30267334
1601133494293,1118,0.25878906,-0.89727783,0.3649292
1601133494293,1119,0.19506836,-0.74664307,0.54071045
1601133494293,1120,0.22241211,-0.79522705,0.5775757
1601133494293,1121,0.27124023,-0.90216064,0.3475952
1601133494294,1122,0.29248047,-0.9685669,0.30267334
1601133494294,1123,0.27856445,-0.91607666,0.31781006
1601133494294,1124,0.25878906,-0.89727783,0.3649292
1601133494294,1125,0.25268555,-0.8936157,0.36273193
1601133494294,1126,0.27124023,-0.90216064,0.3475952
1601133494294,1127,0.2368164,-0.89190674,0.39813232
1601133494294,1128,0.19506836,-0.74664307,0.54071045
1601133494299,1129,0.29248047,-0.9685669,0.30267334
1601133494299,1130,0.27124023,-0.90216064,0.3475952
1601133494299,1131,0.22875977,-0.7835083,0.5372925
1601133494299,1132,0.27026367,-0.8999634,0.33172607
1601133494303,1133,0.25878906,-0.89727783,0.3649292
1601133494303,1134,0.27856445,-0.91607666,0.31781006
1601133494303,1135,0.29248047,-0.9685669,0.30267334
1601133494303,1136,0.25878906,-0.89727783,0.3649292
1601133494303,1137,0.27124023,-0.90216064,0.3475952
1601133494304,1138,0.25268555,-0.8936157,0.36273193
1601133494304,1139,0.2368164,-0.89190674,0.39813232
1601133494304,1140,0.26416016,-0.89263916,0.34588623
1601133494304,1141,0.25878906,-0.89727783,0.3649292
1601133494311,1142,0.2626953,-0.8328247,0.447937
1601133494311,1143,0.2368164,-0.89190674,0.39813232
1601133494311,1144,0.24560547,-0.8225708,0.46697998
1601133494311,1145,0.25268555,-0.8936157,0.36273193
1601133494311,1146,0.25878906,-0.89727783,0.3649292
1601133494311,1147,0.27026367,-0.8999634,0.33172607
1601133494311,1148,0.26416016,-0.89263916,0.34588623
1601133494311,1149,0.2368164,-0.89190674,0.39813232
1601133494311,1150,0.25341797,-0.89190674,0.36029053
1601133494311,1151,0.27856445,-0.91607666,0.31781006
1601133494311,1152,0.27856445,-0.91607666,0.31781006
1601133494317,1153,0.27124023,-0.90216064,0.3475952
1601133494317,1154,0.19506836,-0.74664307,0.54071045
1601133494317,1155,0.2368164,-0.89190674,0.39813232
1601133494317,1156,0.29248047,-0.9685669,0.30267334
1601133494318,1157,0.27026367,-0.8999634,0.33172607
1601133494318,1158,0.27124023,-0.90216064,0.3475952
1601133494318,1159,0.25268555,-0.8936157,0.36273193
1601133494318,1160,0.25341797,-0.89190674,0.36029053
1601133494318,1161,0.25878906,-0.89727783,0.3649292
1601133494328,1162,0.25878906,-0.89727783,0.3649292
1601133494328,1163,0.27856445,-0.91607666,0.31781006
1601133494328,1164,0.27856445,-0.91607666,0.31781006
1601133494328,1165,0.25268555,-0.8936157,0.36273193
1601133494328,1166,0.25268555,-0.8936157,0.36273193
1601133494328,1167,0.26831055,-0.8882446,0.3295288
1601133494328,1168,0.27026367,-0.8999634,0.33172607
1601133494328,1169,0.26831055,-0.8882446,0.3295288
1601133494328,1170,0.25268555,-0.8936157,0.36273193
1601133494328,1171,0.28320312,-0.94195557,0.27044678
1601133494328,1172,0.27026367,-0.8999634,0.33172607
1601133494328,1173,0.27026367,-0.8999634,0.33172607
1601133494329,1174,0.2368164,-0.89190674,0.39813232
1601133494329,1175,0.27026367,-0.8999634,0.33172607
1601133494329,1176,0.26416016,-0.89263916,0.34588623
1601133494329,1177,0.2368164,-0.89190674,0.39813232
1601133494329,1178,0.27856445,-0.91607666,0.31781006
1601133494329,1179,0.2368164,-0.89190674,0.39813232
1601133494329,1180,0.26416016,-0.89263916,0.34588623
1601133494329,1181,0.27856445,-0.91607666,0.31781006
1601133494329,1182,0.26416016,-0.89263916,0.34588623
1601133494330,1183,0.27856445,-0.91607666,0.31781006
1601133494331,1184,0.25341797,-0.89190674,0.36029053
1601133494332,1185,0.26831055,-0.8882446,0.3295288
1601133494332,1186,0.3461914,-0.9837036,0.07342529
1601133494333,1187,0.30444336,-0.69610596,0.28704834
1601133494345,1188,0.28320312,-0.94195557,0.27044678
1601133494345,1189,0.26416016,-0.89263916,0.34588623
1601133494347,1190,0.2902832,-1.0696411,0.41375732
1601133494347,1191,0.28320312,-0.94195557,0.27044678
1601133494347,1192,0.25268555,-0.8936157,0.36273193
1601133494347,1193,0.25268555,-0.8936157,0.36273193
1601133494347,1194,0.26416016,-0.89263916,0.34588623
1601133494347,1195,0.25341797,-0.89190674,0.36029053
1601133494348,1196,0.27026367,-0.8999634,0.33172607
1601133494348,1197,0.25268555,-0.8936157,0.36273193
1601133494348,1198,0.3461914,-0.9837036,0.07342529
1601133494348,1199,0.26416016,-0.89263916,0.34588623
1601133494348,1200,0.27026367,-0.8999634,0.33172607
1601133494348,1201,0.3461914,-0.9837036,0.07342529
1601133494348,1202,0.31591797,-0.7468872,0.32073975
1601133494348,1203,0.27026367,-0.8999634,0.33172607
1601133494348,1204,0.26416016,-0.89263916,0.34588623
1601133494349,1205,0.30444336,-0.69610596,0.28704834
1601133494349,1206,0.26831055,-0.8882446,0.3295288
1601133494349,1207,0.25341797,-0.89190674,0.36029053
1601133494349,1208,0.25341797,-0.89190674,0.36029053
1601133494349,1209,0.2902832,-1.0696411,0.41375732
1601133494349,1210,0.25341797,-0.89190674,0.36029053
1601133494349,1211,0.30444336,-0.69610596,0.28704834
1601133494349,1212,0.25341797,-0.89190674,0.36029053
1601133494351,1213,0.2631836,-0.8262329,0.55682373
1601133494352,1214,0.26416016,-0.89263916,0.34588623
1601133494352,1215,0.28320312,-0.94195557,0.27044678
1601133494352,1216,0.31591797,-0.7468872,0.32073975
1601133494352,1217,0.25341797,-0.89190674,0.36029053
1601133494352,1218,0.26831055,-0.8882446,0.3295288
1601133494352,1219,0.26831055,-0.8882446,0.3295288
1601133494352,1220,0.28320312,-0.94195557,0.27044678
1601133494352,1221,0.28320312,-0.94195557,0.27044678
1601133494352,1222,0.26831055,-0.8882446,0.3295288
1601133494358,1223,0.21435547,-0.6851196,0.6449585
1601133494358,1224,0.3461914,-0.9837036,0.07342529
1601133494358,1225,0.25341797,-0.89190674,0.36029053
1601133494359,1226,0.2631836,-0.8262329,0.55682373
1601133494359,1227,0.30444336,-0.69610596,0.28704834
1601133494359,1228,0.26831055,-0.8882446,0.3295288
1601133494359,1229,0.2902832,-1.0696411,0.41375732
1601133494359,1230,0.3461914,-0.9837036,0.07342529
1601133494359,1231,0.3461914,-0.9837036,0.07342529
1601133494359,1232,0.28320312,-0.94195557,0.27044678
1601133494359,1233,0.2902832,-1.0696411,0.41375732
1601133494359,1234,0.28320312,-0.94195557,0.27044678
1601133494363,1235,0.30444336,-0.69610596,0.28704834
1601133494366,1236,0.30444336,-0.69610596,0.28704834
1601133494366,1237,0.31591797,-0.7468872,0.32073975
1601133494366,1238,0.26831055,-0.8882446,0.3295288
1601133494366,1239,0.26831055,-0.8882446,0.3295288
1601133494367,1240,0.21435547,-0.6851196,0.6449585
1601133494367,1241,0.3461914,-0.9837036,0.07342529
1601133494367,1242,0.28320312,-0.94195557,0.27044678
1601133494367,1243,0.28320312,-0.94195557,0.27044678
1601133494367,1244,0.2902832,-1.0696411,0.41375732
1601133494368,1245,0.2902832,-1.0696411,0.41375732
1601133494377,1246,0.3461914,-0.9837036,0.07342529
1601133494377,1247,0.2631836,-0.8262329,0.55682373
1601133494377,1248,0.3461914,-0.9837036,0.07342529
1601133494377,1249,0.30444336,-0.69610596,0.28704834
1601133494377,1250,0.3461914,-0.9837036,0.07342529
1601133494377,1251,0.31591797,-0.7468872,0.32073975
1601133494378,1252,0.31591797,-0.7468872,0.32073975
1601133494378,1253,0.2902832,-1.0696411,0.41375732
1601133494378,1254,0.31591797,-0.7468872,0.32073975
1601133494378,1255,0.2631836,-0.8262329,0.55682373
1601133494378,1256,0.30444336,-0.69610596,0.28704834
1601133494378,1257,0.21435547,-0.6851196,0.6449585
1601133494378,1258,0.2902832,-1.0696411,0.41375732
1601133494378,1259,0.2631836,-0.8262329,0.55682373
1601133494379,1260,0.31591797,-0.7468872,0.32073975
1601133494379,1261,0.31591797,-0.7468872,0.32073975
1601133494382,1262,0.21435547,-0.6851196,0.6449585
1601133494383,1263,0.2631836,-0.8262329,0.55682373
1601133494383,1264,0.30444336,-0.69610596,0.28704834
1601133494383,1265,0.21435547,-0.6851196,0.6449585
1601133494383,1266,0.21435547,-0.6851196,0.6449585
1601133494383,1267,0.2631836,-0.8262329,0.55682373
1601133494383,1268,0.2631836,-0.8262329,0.55682373
1601133494386,1269,0.30444336,-0.69610596,0.28704834
1601133494391,1270,0.2902832,-1.0696411,0.41375732
1601133494391,1271,0.21435547,-0.6851196,0.6449585
1601133494391,1272,0.21435547,-0.6851196,0.6449585
1601133494391,1273,0.2902832,-1.0696411,0.41375732
1601133494392,1274,0.31591797,-0.7468872,0.32073975
1601133494392,1275,0.31591797,-0.7468872,0.32073975
1601133494394,1276,0.2631836,-0.8262329,0.55682373
1601133494394,1277,0.2631836,-0.8262329,0.55682373
1601133494394,1278,0.21435547,-0.6851196,0.6449585
1601133494396,1279,0.21435547,-0.6851196,0.6449585
1601133496763,1280,0.17578125,-0.58599854,0.68548584
1601133496763,1281,0.17578125,-0.58599854,0.68548584
1601133496763,1282,0.17578125,-0.58599854,0.68548584
1601133496763,1283,0.17578125,-0.58599854,0.68548584
1601133496763,1284,0.22143555,-0.80255127,0.6227417
1601133496764,1285,0.22143555,-0.80255127,0.6227417
1601133496764,1286,0.17578125,-0.58599854,0.68548584
1601133496764,1287,0.17578125,-0.58599854,0.68548584
1601133496764,1288,0.22143555,-0.80255127,0.6227417
1601133496764,1289,0.17578125,-0.58599854,0.68548584
1601133496764,1290,0.17700195,-0.6692505,0.666687
1601133496765,1291,0.22143555,-0.80255127,0.6227417
1601133496765,1292,0.17700195,-0.6692505,0.666687
1601133496765,1293,0.1743164,-0.69854736,0.6688843
1601133496765,1294,0.22143555,-0.80255127,0.6227417
1601133496765,1295,0.17578125,-0.58599854,0.68548584
1601133496765,1296,0.22143555,-0.80255127,0.6227417
1601133496765,1297,0.17700195,-0.6692505,0.666687
1601133496765,1298,0.22143555,-0.80255127,0.6227417
1601133496765,1299,0.17578125,-0.58599854,0.68548584
1601133496765,1300,0.17700195,-0.6692505,0.666687
1601133496781,1301,0.1743164,-0.69854736,0.6688843
1601133496782,1302,0.17700195,-0.6692505,0.666687
1601133496782,1303,0.17578125,-0.58599854,0.68548584
1601133496782,1304,0.24316406,-0.78253174,0.56073
1601133496782,1305,0.1743164,-0.69854736,0.6688843
1601133496782,1306,0.17700195,-0.6692505,0.666687
1601133496782,1307,0.17700195,-0.6692505,0.666687
1601133496782,1308,0.1743164,-0.69854736,0.6688843
1601133496783,1309,0.22143555,-0.80255127,0.6227417
1601133496783,1310,0.1743164,-0.69854736,0.6688843
1601133496783,1311,0.22143555,-0.80255127,0.6227417
1601133496783,1312,0.22143555,-0.80255127,0.6227417
1601133496783,1313,0.24316406,-0.78253174,0.56073
1601133496783,1314,0.24316406,-0.78253174,0.56073
1601133496783,1315,0.21069336,-0.77423096,0.64764404
1601133496783,1316,0.1743164,-0.69854736,0.6688843
1601133496783,1317,0.22949219,-0.7156372,0.5770874
1601133496784,1318,0.17700195,-0.6692505,0.666687
1601133496784,1319,0.21948242,-0.6995239,0.6039429
1601133496784,1320,0.24316406,-0.78253174,0.56073
1601133496784,1321,0.24316406,-0.78253174,0.56073
1601133496784,1322,0.17700195,-0.6692505,0.666687
1601133496785,1323,0.1743164,-0.69854736,0.6688843
1601133496785,1324,0.21069336,-0.77423096,0.64764404
1601133496785,1325,0.1743164,-0.69854736,0.6688843
1601133496785,1326,0.1743164,-0.69854736,0.6688843
1601133496785,1327,0.24316406,-0.78253174,0.56073
1601133496795,1328,0.22094727,-0.7168579,0.6129761
1601133496795,1329,0.21069336,-0.77423096,0.64764404
1601133496795,1330,0.21069336,-0.77423096,0.64764404
1601133496795,1331,0.21069336,-0.77423096,0.64764404
1601133496795,1332,0.20361328,-0.7163696,0.64642334
1601133496796,1333,0.22949219,-0.7156372,0.5770874
1601133496796,1334,0.24316406,-0.78253174,0.56073
1601133496796,1335,0.21948242,-0.6995239,0.6039429
1601133496796,1336,0.21069336,-0.77423096,0.64764404
1601133496796,1337,0.17700195,-0.6692505,0.666687
1601133496796,1338,0.24316406,-0.78253174,0.56073
1601133496796,1339,0.22949219,-0.7156372,0.5770874
1601133496796,1340,0.24316406,-0.78253174,0.56073
1601133496796,1341,0.22949219,-0.7156372,0.5770874
1601133496797,1342,0.21069336,-0.77423096,0.64764404
1601133496797,1343,0.21069336,-0.77423096,0.64764404
1601133496797,1344,0.20166016,-0.7300415,0.6317749
1601133496797,1345,0.22094727,-0.7168579,0.6129761
1601133496798,1346,0.22949219,-0.7156372,0.5770874
1601133496798,1347,0.22949219,-0.7156372,0.5770874
1601133496803,1348,0.21948242,-0.6995239,0.6039429
1601133496803,1349,0.1743164,-0.69854736,0.6688843
1601133496803,1350,0.21948242,-0.6995239,0.6039429
1601133496804,1351,0.22949219,-0.7156372,0.5770874
1601133496804,1352,0.22094727,-0.7168579,0.6129761
1601133496804,1353,0.20361328,-0.7163696,0.64642334
1601133496804,1354,0.20361328,-0.7163696,0.64642334
1601133496804,1355,0.21948242,-0.6995239,0.6039429
1601133496804,1356,0.21948242,-0.6995239,0.6039429
1601133496818,1357,0.24316406,-0.78253174,0.56073
1601133496818,1358,0.18969727,-0.6970825,0.65740967
1601133496818,1359,0.21069336,-0.77423096,0.64764404
1601133496818,1360,0.22094727,-0.7168579,0.6129761
1601133496819,1361,0.20166016,-0.7300415,0.6317749
1601133496819,1362,0.20166016,-0.7300415,0.6317749
1601133496819,1363,0.22949219,-0.7156372,0.5770874
1601133496819,1364,0.21948242,-0.6995239,0.6039429
1601133496819,1365,0.22094727,-0.7168579,0.6129761
1601133496819,1366,0.21948242,-0.6995239,0.6039429
1601133496819,1367,0.22094727,-0.7168579,0.6129761
1601133496819,1368,0.21069336,-0.77423096,0.64764404
1601133496819,1369,0.18920898,-0.7034302,0.66619873
1601133496820,1370,0.20361328,-0.7163696,0.64642334
1601133496820,1371,0.22949219,-0.7156372,0.5770874
1601133496820,1372,0.18969727,-0.6970825,0.65740967
1601133496820,1373,0.20166016,-0.7300415,0.6317749
1601133496829,1374,0.22094727,-0.7168579,0.6129761
1601133496829,1375,0.20361328,-0.7163696,0.64642334
1601133496829,1376,0.20361328,-0.7163696,0.64642334
1601133496829,1377,0.22094727,-0.7168579,0.6129761
1601133496829,1378,0.22949219,-0.7156372,0.5770874
1601133496830,1379,0.18139648,-0.6856079,0.6581421
1601133496830,1380,0.20361328,-0.7163696,0.64642334
1601133496830,1381,0.21948242,-0.6995239,0.6039429
1601133496830,1382,0.18920898,-0.7034302,0.66619873
1601133496830,1383,0.18969727,-0.6970825,0.65740967
1601133496836,1384,0.20166016,-0.7300415,0.6317749
1601133496837,1385,0.20166016,-0.7300415,0.6317749
1601133496837,1386,0.18969727,-0.6970825,0.65740967
1601133496837,1387,0.20361328,-0.7163696,0.64642334
1601133496837,1388,0.20166016,-0.7300415,0.6317749
1601133496837,1389,0.21948242,-0.6995239,0.6039429
1601133496837,1390,0.18139648,-0.6856079,0.6581421
1601133496837,1391,0.18969727,-0.6970825,0.65740967
1601133496837,1392,0.17236328,-0.6477661,0.6871948
1601133496838,1393,0.18920898,-0.7034302,0.66619873
1601133496853,1394,0.17236328,-0.6477661,0.6871948
1601133496853,1395,0.20166016,-0.7300415,0.6317749
1601133496853,1396,0.22094727,-0.7168579,0.6129761
1601133496854,1397,0.18920898,-0.7034302,0.66619873
1601133496854,1398,0.18969727,-0.6970825,0.65740967
1601133496854,1399,0.18920898,-0.7034302,0.66619873
1601133496854,1400,0.18139648,-0.6856079,0.6581421
1601133496854,1401,0.18139648,-0.6856079,0.6581421
1601133496855,1402,0.18969727,-0.6970825,0.65740967
1601133496855,1403,0.22094727,-0.7168579,0.6129761
1601133496855,1404,0.17382812,-0.7415161,0.60443115
1601133496855,1405,0.17382812,-0.7415161,0.60443115
1601133496855,1406,0.18969727,-0.6970825,0.65740967
1601133496855,1407,0.20361328,-0.7163696,0.64642334
1601133496856,1408,0.18139648,-0.6856079,0.6581421
1601133496856,1409,0.18920898,-0.7034302,0.66619873
1601133496856,1410,0.18920898,-0.7034302,0.66619873
1601133496856,1411,0.17236328,-0.6477661,0.6871948
1601133496856,1412,0.18920898,-0.7034302,0.66619873
1601133496858,1413,0.20361328,-0.7163696,0.64642334
1601133496860,1414,0.20166016,-0.7300415,0.6317749
1601133496860,1415,0.17236328,-0.6477661,0.6871948
1601133496862,1416,0.18139648,-0.6856079,0.6581421
1601133496873,1417,0.2097168,-0.81866455,0.527771
1601133496873,1418,0.2097168,-0.81866455,0.527771
1601133496873,1419,0.17236328,-0.6477661,0.6871948
1601133496873,1420,0.21118164,-0.8377075,0.5187378
1601133496873,1421,0.18139648,-0.6856079,0.6581421
1601133496874,1422,0.21142578,-0.7835083,0.50775146
1601133496874,1423,0.17236328,-0.6477661,0.6871948
1601133496874,1424,0.17382812,-0.7415161,0.60443115
1601133496874,1425,0.17382812,-0.7415161,0.60443115
1601133496874,1426,0.24682617,-0.89849854,0.37835693
1601133496874,1427,0.17236328,-0.6477661,0.6871948
1601133496876,1428,0.21118164,-0.8377075,0.5187378
1601133496876,1429,0.18139648,-0.6856079,0.6581421
1601133496876,1430,0.18969727,-0.6970825,0.65740967
1601133496876,1431,0.21142578,-0.7835083,0.50775146
1601133496876,1432,0.17382812,-0.7415161,0.60443115
1601133496876,1433,0.2097168,-0.81866455,0.527771
1601133496876,1434,0.17382812,-0.7415161,0.60443115
1601133496886,1435,0.17382812,-0.7415161,0.60443115
1601133496886,1436,0.23803711,-0.8855591,0.42401123
1601133496886,1437,0.2097168,-0.81866455,0.527771
1601133496887,1438,0.20166016,-0.7300415,0.6317749
1601133496887,1439,0.21118164,-0.8377075,0.5187378
1601133496887,1440,0.24682617,-0.89849854,0.37835693
1601133496887,1441,0.18920898,-0.7034302,0.66619873
1601133496887,1442,0.2097168,-0.81866455,0.527771
1601133496888,1443,0.21118164,-0.8377075,0.5187378
1601133496888,1444,0.21118164,-0.8377075,0.5187378
1601133496888,1445,0.2097168,-0.81866455,0.527771
1601133496888,1446,0.18969727,-0.6970825,0.65740967
1601133496888,1447,0.17236328,-0.6477661,0.6871948
1601133496888,1448,0.2097168,-0.81866455,0.527771
1601133496888,1449,0.17382812,-0.7415161,0.60443115
1601133496888,1450,0.21655273,-0.8250122,0.46966553
1601133496888,1451,0.2097168,-0.81866455,0.527771
1601133496888,1452,0.23803711,-0.8855591,0.42401123
1601133496888,1453,0.21118164,-0.8377075,0.5187378
1601133496902,1454,0.21142578,-0.7835083,0.50775146
1601133496902,1455,0.21118164,-0.8377075,0.5187378
1601133496902,1456,0.18920898,-0.7034302,0.66619873
1601133496902,1457,0.21142578,-0.7835083,0.50775146
1601133496902,1458,0.21118164,-0.8377075,0.5187378
1601133496903,1459,0.18139648,-0.6856079,0.6581421
1601133496903,1460,0.21142578,-0.7835083,0.50775146
1601133496903,1461,0.18139648,-0.6856079,0.6581421
1601133496903,1462,0.21142578,-0.7835083,0.50775146
1601133496903,1463,0.17236328,-0.6477661,0.6871948
1601133496903,1464,0.24682617,-0.89849854,0.37835693
1601133496903,1465,0.21142578,-0.7835083,0.50775146
1601133496903,1466,0.17236328,-0.6477661,0.6871948
1601133496903,1467,0.24682617,-0.89849854,0.37835693
1601133496903,1468,0.24682617,-0.89849854,0.37835693
1601133496904,1469,0.23803711,-0.8855591,0.42401123
1601133496905,1470,0.21655273,-0.8250122,0.46966553
1601133496905,1471,0.21655273,-0.8250122,0.46966553
1601133496905,1472,0.17382812,-0.7415161,0.60443115
1601133496905,1473,0.23803711,-0.8855591,0.42401123
1601133496905,1474,0.24682617,-0.89849854,0.37835693
1601133496911,1475,0.21142578,-0.7835083,0.50775146
1601133496911,1476,0.23803711,-0.8855591,0.42401123
1601133496911,1477,0.17382812,-0.7415161,0.60443115
1601133496911,1478,0.24682617,-0.89849854,0.37835693
1601133496912,1479,0.43798828,-1.4795532,0.051208496
1601133496912,1480,0.24682617,-0.89849854,0.37835693
1601133496912,1481,0.23803711,-0.8855591,0.42401123
1601133496912,1482,0.2631836,-0.04058838,0.020935059
1601133496913,1483,0.23803711,-0.8855591,0.42401123
1601133496913,1484,0.23803711,-0.8855591,0.42401123
1601133496913,1485,0.43798828,-1.4795532,0.051208496
1601133496913,1486,0.43798828,-1.4795532,0.051208496
1601133496913,1487,0.21655273,-0.8250122,0.46966553
1601133496913,1488,0.2097168,-0.81866455,0.527771
1601133496913,1489,0.2097168,-0.81866455,0.527771
1601133496913,1490,0.21655273,-0.8250122,0.46966553
1601133496924,1491,0.31079102,-1.1450806,0.37298584
1601133496924,1492,0.21655273,-0.8250122,0.46966553
1601133496924,1493,0.35375977,-0.8574829,0.016052246
1601133496924,1494,0.21655273,-0.8250122,0.46966553
1601133496924,1495,0.2631836,-0.04058838,0.020935059
1601133496924,1496,0.21655273,-0.8250122,0.46966553
1601133496924,1497,0.31079102,-1.1450806,0.37298584
1601133496924,1498,0.43798828,-1.4795532,0.051208496
1601133496925,1499,0.21118164,-0.8377075,0.5187378
1601133496925,1500,0.43798828,-1.4795532,0.051208496
1601133496925,1501,0.2631836,-0.04058838,0.020935059
1601133496925,1502,0.21142578,-0.7835083,0.50775146
1601133496925,1503,0.2631836,-0.04058838,0.020935059
1601133496926,1504,0.31079102,-1.1450806,0.37298584
1601133496926,1505,0.43798828,-1.4795532,0.051208496
1601133496926,1506,0.43798828,-1.4795532,0.051208496
1601133496926,1507,0.21118164,-0.8377075,0.5187378
1601133496926,1508,0.2631836,-0.04058838,0.020935059
1601133496926,1509,0.35375977,-0.8574829,0.016052246
1601133496927,1510,0.43798828,-1.4795532,0.051208496
1601133496927,1511,0.31079102,-1.1450806,0.37298584
1601133496927,1512,0.24682617,-0.89849854,0.37835693
1601133496927,1513,0.35375977,-0.8574829,0.016052246
1601133496928,1514,0.44580078,-0.9793091,-0.25054932
1601133496928,1515,0.2631836,-0.04058838,0.020935059
1601133496928,1516,0.21142578,-0.7835083,0.50775146
1601133496930,1517,0.2631836,-0.04058838,0.020935059
1601133496930,1518,0.24682617,-0.89849854,0.37835693
1601133496932,1519,0.31079102,-1.1450806,0.37298584
1601133496948,1520,0.23803711,-0.8855591,0.42401123
1601133496949,1521,0.2631836,-0.04058838,0.020935059
1601133496949,1522,0.35375977,-0.8574829,0.016052246
1601133496949,1523,0.21655273,-0.8250122,0.46966553
1601133496949,1524,0.44580078,-0.9793091,-0.25054932
1601133496949,1525,0.31079102,-1.1450806,0.37298584
1601133496950,1526,0.31079102,-1.1450806,0.37298584
1601133496950,1527,0.44580078,-0.9793091,-0.25054932
1601133496950,1528,0.23803711,-0.8855591,0.42401123
1601133496950,1529,0.43798828,-1.4795532,0.051208496
1601133496950,1530,0.31079102,-1.1450806,0.37298584
1601133496950,1531,0.2631836,-0.04058838,0.020935059
1601133496950,1532,0.21655273,-0.8250122,0.46966553
1601133496951,1533,0.35375977,-0.8574829,0.016052246
1601133496951,1534,0.40673828,-0.9402466,-0.22906494
1601133496951,1535,0.40673828,-0.9402466,-0.22906494
1601133496951,1536,0.35375977,-0.8574829,0.016052246
1601133496951,1537,0.35375977,-0.8574829,0.016052246
1601133496951,1538,0.38989258,-0.92193604,-0.21514893
1601133496952,1539,0.31079102,-1.1450806,0.37298584
1601133496952,1540,0.44580078,-0.9793091,-0.25054932
1601133496952,1541,0.44580078,-0.9793091,-0.25054932
1601133496952,1542,0.35375977,-0.8574829,0.016052246
1601133496952,1543,0.38989258,-0.92193604,-0.21514893
1601133496952,1544,0.35375977,-0.8574829,0.016052246
1601133496952,1545,0.44580078,-0.9793091,-0.25054932
1601133496952,1546,0.40673828,-0.9402466,-0.22906494
1601133496953,1547,0.44580078,-0.9793091,-0.25054932
1601133496953,1548,0.38500977,-0.8862915,-0.22955322
1601133496953,1549,0.40673828,-0.9402466,-0.22906494
1601133496953,1550,0.40673828,-0.9402466,-0.22906494
1601133496953,1551,0.43798828,-1.4795532,0.051208496
1601133496953,1552,0.40673828,-0.9402466,-0.22906494
1601133496955,1553,0.38989258,-0.92193604,-0.21514893
1601133496955,1554,0.44580078,-0.9793091,-0.25054932
1601133496955,1555,0.40673828,-0.9402466,-0.22906494
1601133496955,1556,0.38989258,-0.92193604,-0.21514893
1601133496955,1557,0.38500977,-0.8862915,-0.22955322
1601133496955,1558,0.38500977,-0.8862915,-0.22955322
1601133496955,1559,0.4025879,-0.9116821,-0.30133057
1601133496955,1560,0.38989258,-0.92193604,-0.21514893
1601133496955,1561,0.44580078,-0.9793091,-0.25054932
1601133496955,1562,0.2631836,-0.04058838,0.020935059
1601133496955,1563,0.38500977,-0.8862915,-0.22955322
1601133496956,1564,0.40673828,-0.9402466,-0.22906494
1601133496956,1565,0.38989258,-0.92193604,-0.21514893
1601133496956,1566,0.38989258,-0.92193604,-0.21514893
1601133496956,1567,0.4025879,-0.9116821,-0.30133057
1601133496956,1568,0.38989258,-0.92193604,-0.21514893
1601133496956,1569,0.38500977,-0.8862915,-0.22955322
1601133496956,1570,0.4020996,-0.923645,-0.31011963
1601133496961,1571,0.40673828,-0.9402466,-0.22906494
1601133496961,1572,0.31079102,-1.1450806,0.37298584
1601133496961,1573,0.4025879,-0.9116821,-0.30133057
1601133496961,1574,0.38500977,-0.8862915,-0.22955322
1601133496962,1575,0.4020996,-0.923645,-0.31011963
1601133496962,1576,0.4025879,-0.9116821,-0.30133057
1601133496962,1577,0.4025879,-0.9116821,-0.30133057
1601133496962,1578,0.4020996,-0.923645,-0.31011963
1601133496962,1579,0.38500977,-0.8862915,-0.22955322
1601133496964,1580,0.38989258,-0.92193604,-0.21514893
1601133496972,1581,0.4020996,-0.923645,-0.31011963
1601133496972,1582,0.38500977,-0.8862915,-0.22955322
1601133496973,1583,0.4025879,-0.9116821,-0.30133057
1601133496973,1584,0.4025879,-0.9116821,-0.30133057
1601133496973,1585,0.4020996,-0.923645,-0.31011963
1601133496973,1586,0.35375977,-0.8574829,0.016052246
1601133496973,1587,0.4020996,-0.923645,-0.31011963
1601133496973,1588,0.4025879,-0.9116821,-0.30133057
1601133496973,1589,0.38500977,-0.8862915,-0.22955322
1601133496973,1590,0.4020996,-0.923645,-0.31011963
1601133496973,1591,0.4020996,-0.923645,-0.31011963
1601133496973,1592,0.4025879,-0.9116821,-0.30133057
1601133496973,1593,0.44580078,-0.9793091,-0.25054932
1601133496973,1594,0.4020996,-0.923645,-0.31011963
1601133496973,1595,0.40673828,-0.9402466,-0.22906494
1601133496974,1596,0.38989258,-0.92193604,-0.21514893
1601133496975,1597,0.38500977,-0.8862915,-0.22955322
1601133496977,1598,0.4025879,-0.9116821,-0.30133057
1601133496978,1599,0.4020996,-0.923645,-0.31011963
1601133499289,1600,0.38891602,-0.862854,-0.25030518
1601133499300,1601,0.38891602,-0.862854,-0.25030518
1601133499305,1602,0.38891602,-0.862854,-0.25030518
1601133499305,1603,0.38891602,-0.862854,-0.25030518
1601133499305,1604,0.38891602,-0.862854,-0.25030518
1601133499305,1605,0.38891602,-0.862854,-0.25030518
1601133499305,1606,0.38891602,-0.862854,-0.25030518
1601133499309,1607,0.36450195,-0.9553833,-0.1921997
1601133499309,1608,0.36450195,-0.9553833,-0.1921997
1601133499309,1609,0.38891602,-0.862854,-0.25030518
1601133499309,1610,0.38891602,-0.862854,-0.25030518
1601133499310,1611,0.37939453,-0.9273071,-0.25689697
1601133499310,1612,0.36450195,-0.9553833,-0.1921997
1601133499310,1613,0.36450195,-0.9553833,-0.1921997
1601133499310,1614,0.36450195,-0.9553833,-0.1921997
1601133499310,1615,0.36450195,-0.9553833,-0.1921997
1601133499310,1616,0.38891602,-0.862854,-0.25030518
1601133499311,1617,0.36450195,-0.9553833,-0.1921997
1601133499311,1618,0.37939453,-0.9273071,-0.25689697
1601133499316,1619,0.36450195,-0.9553833,-0.1921997
1601133499316,1620,0.37939453,-0.9273071,-0.25689697
1601133499317,1621,0.3869629,-0.9031372,-0.25372314
1601133499317,1622,0.36450195,-0.9553833,-0.1921997
1601133499317,1623,0.36450195,-0.9553833,-0.1921997
1601133499317,1624,0.37939453,-0.9273071,-0.25689697
1601133499317,1625,0.37939453,-0.9273071,-0.25689697
1601133499317,1626,0.37939453,-0.9273071,-0.25689697
1601133499317,1627,0.37939453,-0.9273071,-0.25689697
1601133499317,1628,0.3869629,-0.9031372,-0.25372314
1601133499318,1629,0.37939453,-0.9273071,-0.25689697
1601133499320,1630,0.3869629,-0.9031372,-0.25372314
1601133499322,1631,0.37939453,-0.9273071,-0.25689697
1601133499322,1632,0.36694336,-0.9224243,-0.15631104
1601133499322,1633,0.3869629,-0.9031372,-0.25372314
1601133499327,1634,0.3869629,-0.9031372,-0.25372314
1601133499327,1635,0.36694336,-0.9224243,-0.15631104
1601133499327,1636,0.3869629,-0.9031372,-0.25372314
1601133499327,1637,0.36865234,-0.92315674,-0.17193604
1601133499327,1638,0.3869629,-0.9031372,-0.25372314
1601133499327,1639,0.37939453,-0.9273071,-0.25689697
1601133499327,1640,0.36694336,-0.9224243,-0.15631104
1601133499329,1641,0.36865234,-0.92315674,-0.17193604
1601133499329,1642,0.36865234,-0.92315674,-0.17193604
1601133499341,1643,0.3869629,-0.9031372,-0.25372314
1601133499341,1644,0.36694336,-0.9224243,-0.15631104
1601133499341,1645,0.36694336,-0.9224243,-0.15631104
1601133499341,1646,0.38842773,-0.9380493,-0.23614502
1601133499341,1647,0.36865234,-0.92315674,-0.17193604
1601133499342,1648,0.36694336,-0.9224243,-0.15631104
1601133499342,1649,0.3869629,-0.9031372,-0.25372314
1601133499343,1650,0.39331055,-0.90338135,-0.29864502
1601133499343,1651,0.38842773,-0.9380493,-0.23614502
1601133499343,1652,0.36694336,-0.9224243,-0.15631104
1601133499343,1653,0.37451172,-0.86187744,-0.28741455
1601133499343,1654,0.39331055,-0.90338135,-0.29864502
1601133499343,1655,0.36865234,-0.92315674,-0.17193604
1601133499343,1656,0.36694336,-0.9224243,-0.15631104
1601133499343,1657,0.38842773,-0.9380493,-0.23614502
1601133499343,1658,0.38842773,-0.9380493,-0.23614502
1601133499344,1659,0.3869629,-0.9031372,-0.25372314
1601133499344,1660,0.36865234,-0.92315674,-0.17193604
1601133499344,1661,0.36865234,-0.92315674,-0.17193604
1601133499344,1662,0.39331055,-0.90338135,-0.29864502
1601133499344,1663,0.38842773,-0.9380493,-0.23614502
1601133499344,1664,0.36694336,-0.9224243,-0.15631104
1601133499344,1665,0.36694336,-0.9224243,-0.15631104
1601133499344,1666,0.38842773,-0.9380493,-0.23614502
1601133499344,1667,0.39331055,-0.90338135,-0.29864502
1601133499344,1668,0.39331055,-0.90338135,-0.29864502
1601133499344,1669,0.38842773,-0.9793091,-0.29742432
1601133499344,1670,0.37451172,-0.86187744,-0.28741455
1601133499344,1671,0.37451172,-0.86187744,-0.28741455
1601133499345,1672,0.37451172,-0.86187744,-0.28741455
1601133499345,1673,0.39331055,-0.90338135,-0.29864502
1601133499345,1674,0.36865234,-0.92315674,-0.17193604
1601133499345,1675,0.38842773,-0.9793091,-0.29742432
1601133499345,1676,0.36865234,-0.92315674,-0.17193604
1601133499345,1677,0.37451172,-0.86187744,-0.28741455
1601133499345,1678,0.33935547,-0.954895,-0.14654541
1601133499345,1679,0.38842773,-0.9793091,-0.29742432
1601133499345,1680,0.33935547,-0.954895,-0.14654541
1601133499351,1681,0.36865234,-0.92315674,-0.17193604
1601133499352,1682,0.38842773,-0.9380493,-0.23614502
1601133499352,1683,0.38842773,-0.9793091,-0.29742432
1601133499352,1684,0.38842773,-0.9380493,-0.23614502
1601133499352,1685,0.37304688,-0.9224243,-0.22320557
1601133499352,1686,0.39331055,-0.90338135,-0.29864502
1601133499352,1687,0.38842773,-0.9793091,-0.29742432
1601133499352,1688,0.33935547,-0.954895,-0.14654541
1601133499352,1689,0.37451172,-0.86187744,-0.28741455
1601133499352,1690,0.37304688,-0.9224243,-0.22320557
1601133499360,1691,0.38842773,-0.9380493,-0.23614502
1601133499361,1692,0.33935547,-0.954895,-0.14654541
1601133499361,1693,0.39331055,-0.90338135,-0.29864502
1601133499361,1694,0.39331055,-0.90338135,-0.29864502
1601133499361,1695,0.37451172,-0.86187744,-0.28741455
1601133499361,1696,0.37451172,-0.86187744,-0.28741455
1601133499361,1697,0.41088867,-0.84576416,-0.30010986
1601133499361,1698,0.33935547,-0.954895,-0.14654541
1601133499361,1699,0.38842773,-0.9793091,-0.29742432
1601133499361,1700,0.41088867,-0.84576416,-0.30010986
1601133499366,1701,0.38842773,-0.9380493,-0.23614502
1601133499367,1702,0.37304688,-0.9224243,-0.22320557
1601133499367,1703,0.37304688,-0.9224243,-0.22320557
1601133499367,1704,0.39331055,-0.90338135,-0.29864502
1601133499367,1705,0.37451172,-0.86187744,-0.28741455
1601133499367,1706,0.3918457,-0.99176025,-0.21368408
1601133499367,1707,0.38842773,-0.9793091,-0.29742432
1601133499367,1708,0.37304688,-0.9224243,-0.22320557
1601133499367,1709,0.33935547,-0.954895,-0.14654541
1601133499367,1710,0.41088867,-0.84576416,-0.30010986
1601133499367,1711,0.37304688,-0.9224243,-0.22320557
1601133499367,1712,0.37451172,-0.86187744,-0.28741455
1601133499370,1713,0.41088867,-0.84576416,-0.30010986
1601133499370,1714,0.41088867,-0.84576416,-0.30010986
1601133499371,1715,0.3786621,-1.0889282,-0.109680176
1601133499371,1716,0.3918457,-0.99176025,-0.21368408
1601133499371,1717,0.33935547,-0.954895,-0.14654541
1601133499371,1718,0.38842773,-0.9793091,-0.29742432
1601133499371,1719,0.3918457,-0.99176025,-0.21368408
1601133499371,1720,0.41088867,-0.84576416,-0.30010986
1601133499371,1721,0.33935547,-0.954895,-0.14654541
1601133499372,1722,0.38842773,-0.9793091,-0.29742432
1601133499373,1723,0.38842773,-0.9793091,-0.29742432
1601133499378,1724,0.25634766,-0.71466064,0.36224365
1601133499378,1725,0.33935547,-0.954895,-0.14654541
1601133499379,1726,0.3918457,-0.99176025,-0.21368408
1601133499379,1727,0.37304688,-0.9224243,-0.22320557
1601133499379,1728,0.3786621,-1.0889282,-0.109680176
1601133499379,1729,0.3918457,-0.99176025,-0.21368408
1601133499379,1730,0.33935547,-0.954895,-0.14654541
1601133499379,1731,0.3918457,-0.99176025,-0.21368408
1601133499379,1732,0.37304688,-0.9224243,-0.22320557
1601133499380,1733,0.3786621,-1.0889282,-0.109680176
1601133499384,1734,0.37304688,-0.9224243,-0.22320557
1601133499384,1735,0.25634766,-0.71466064,0.36224365
1601133499384,1736,0.25634766,-0.71466064,0.36224365
1601133499385,1737,0.3786621,-1.0889282,-0.109680176
1601133499385,1738,0.37304688,-0.9224243,-0.22320557
1601133499385,1739,0.29614258,-0.7781372,0.54486084
1601133499385,1740,0.25634766,-0.71466064,0.36224365
1601133499385,1741,0.41088867,-0.84576416,-0.30010986
1601133499386,1742,0.27270508,-0.75494385,0.48065186
1601133499386,1743,0.41088867,-0.84576416,-0.30010986
1601133499387,1744,0.3918457,-0.99176025,-0.21368408
1601133499393,1745,0.29614258,-0.7781372,0.54486084
1601133499393,1746,0.3786621,-1.0889282,-0.109680176
1601133499393,1747,0.41088867,-0.84576416,-0.30010986
1601133499394,1748,0.27270508,-0.75494385,0.48065186
1601133499394,1749,0.25634766,-0.71466064,0.36224365
1601133499394,1750,0.33032227,-0.8711548,0.36639404
1601133499394,1751,0.3918457,-0.99176025,-0.21368408
1601133499394,1752,0.41088867,-0.84576416,-0.30010986
1601133499394,1753,0.25952148,-0.7971802,0.5253296
1601133499400,1754,0.3786621,-1.0889282,-0.109680176
1601133499400,1755,0.29614258,-0.7781372,0.54486084
1601133499400,1756,0.3786621,-1.0889282,-0.109680176
1601133499401,1757,0.3918457,-0.99176025,-0.21368408
1601133499401,1758,0.33032227,-0.8711548,0.36639404
1601133499401,1759,0.29614258,-0.7781372,0.54486084
1601133499401,1760,0.25952148,-0.7971802,0.5253296
1601133499401,1761,0.115722656,-0.598938,0.8053589
1601133499401,1762,0.3786621,-1.0889282,-0.109680176
1601133499401,1763,0.21435547,-0.72442627,0.576355
1601133499406,1764,0.25634766,-0.71466064,0.36224365
1601133499407,1765,0.27270508,-0.75494385,0.48065186
1601133499407,1766,0.3786621,-1.0889282,-0.109680176
1601133499407,1767,0.25634766,-0.71466064,0.36224365
1601133499408,1768,0.25634766,-0.71466064,0.36224365
1601133499408,1769,0.33032227,-0.8711548,0.36639404
1601133499408,1770,0.115722656,-0.598938,0.8053589
1601133499408,1771,0.29614258,-0.7781372,0.54486084
1601133499408,1772,0.24682617,-0.8550415,0.5009155
1601133499408,1773,0.21435547,-0.72442627,0.576355
1601133499408,1774,0.29614258,-0.7781372,0.54486084
1601133499409,1775,0.27270508,-0.75494385,0.48065186
1601133499414,1776,0.3918457,-0.99176025,-0.21368408
1601133499414,1777,0.27270508,-0.75494385,0.48065186
1601133499414,1778,0.3786621,-1.0889282,-0.109680176
1601133499414,1779,0.24682617,-0.8550415,0.5009155
1601133499414,1780,0.25634766,-0.71466064,0.36224365
1601133499414,1781,0.19946289,-0.75201416,0.59661865
1601133499414,1782,0.29614258,-0.7781372,0.54486084
1601133499415,1783,0.27270508,-0.75494385,0.48065186
1601133499415,1784,0.27270508,-0.75494385,0.48065186
1601133499415,1785,0.33032227,-0.8711548,0.36639404
1601133499415,1786,0.2421875,-0.8189087,0.50653076
1601133499415,1787,0.33032227,-0.8711548,0.36639404
1601133499420,1788,0.19946289,-0.75201416,0.59661865
1601133499420,1789,0.29614258,-0.7781372,0.54486084
1601133499420,1790,0.2421875,-0.8189087,0.50653076
1601133499423,1791,0.24169922,-0.83599854,0.48406982
1601133499424,1792,0.25952148,-0.7971802,0.5253296
1601133499424,1793,0.33032227,-0.8711548,0.36639404
1601133499424,1794,0.25634766,-0.71466064,0.36224365
1601133499424,1795,0.29614258,-0.7781372,0.54486084
1601133499424,1796,0.23803711,-0.8723755,0.5006714
1601133499424,1797,0.27270508,-0.75494385,0.48065186
1601133499425,1798,0.33032227,-0.8711548,0.36639404
1601133499425,1799,0.115722656,-0.598938,0.8053589
1601133499425,1800,0.24169922,-0.83599854,0.48406982
1601133499439,1801,0.29614258,-0.7781372,0.54486084
1601133499439,1802,0.27270508,-0.75494385,0.48065186
1601133499439,1803,0.25952148,-0.7971802,0.5253296
1601133499439,1804,0.33032227,-0.8711548,0.36639404
1601133499439,1805,0.25952148,-0.7971802,0.5253296
1601133499439,1806,0.25952148,-0.7971802,0.5253296
1601133499439,1807,0.21435547,-0.72442627,0.576355
1601133499439,1808,0.25952148,-0.7971802,0.5253296
1601133499439,1809,0.23803711,-0.8723755,0.5006714
1601133499439,1810,0.115722656,-0.598938,0.8053589
1601133499439,1811,0.27270508,-0.75494385,0.48065186
1601133499439,1812,0.24682617,-0.8550415,0.5009155
1601133499440,1813,0.2133789,-0.784729,0.5753784
1601133499440,1814,0.33032227,-0.8711548,0.36639404
1601133499440,1815,0.115722656,-0.598938,0.8053589
1601133499440,1816,0.115722656,-0.598938,0.8053589
1601133499440,1817,0.25952148,-0.7971802,0.5253296
1601133499440,1818,0.115722656,-0.598938,0.8053589
1601133499440,1819,0.21435547,-0.72442627,0.576355
1601133499440,1820,0.21435547,-0.72442627,0.576355
1601133499440,1821,0.24682617,-0.8550415,0.5009155
1601133499440,1822,0.19946289,-0.75201416,0.59661865
1601133499441,1823,0.33032227,-0.8711548,0.36639404
1601133499441,1824,0.28881836,-0.80352783,0.38690186
1601133499441,1825,0.2421875,-0.8189087,0.50653076
1601133499441,1826,0.21435547,-0.72442627,0.576355
1601133499441,1827,0.25952148,-0.7971802,0.5253296
1601133499441,1828,0.25952148,-0.7971802,0.5253296
1601133499441,1829,0.115722656,-0.598938,0.8053589
1601133499441,1830,0.115722656,-0.598938,0.8053589
1601133499441,1831,0.21435547,-0.72442627,0.576355
1601133499442,1832,0.21435547,-0.72442627,0.576355
1601133499443,1833,0.2133789,-0.784729,0.5753784
1601133499453,1834,0.24682617,-0.8550415,0.5009155
1601133499453,1835,0.21435547,-0.72442627,0.576355
1601133499454,1836,0.115722656,-0.598938,0.8053589
1601133499454,1837,0.20092773,-0.7192993,0.652771
1601133499454,1838,0.24682617,-0.8550415,0.5009155
1601133499454,1839,0.24682617,-0.8550415,0.5009155
1601133499454,1840,0.21435547,-0.72442627,0.576355
1601133499455,1841,0.24682617,-0.8550415,0.5009155
1601133499455,1842,0.24169922,-0.83599854,0.48406982
1601133499455,1843,0.28881836,-0.80352783,0.38690186
1601133499455,1844,0.19946289,-0.75201416,0.59661865
1601133499455,1845,0.23803711,-0.8723755,0.5006714
1601133499455,1846,0.20825195,-0.6392212,0.63812256
1601133499455,1847,0.19946289,-0.75201416,0.59661865
1601133499455,1848,0.2421875,-0.8189087,0.50653076
1601133499455,1849,0.24682617,-0.8550415,0.5009155
1601133499455,1850,0.19946289,-0.75201416,0.59661865
1601133499455,1851,0.19946289,-0.75201416,0.59661865
1601133499456,1852,0.20092773,-0.7192993,0.652771
1601133499456,1853,0.2133789,-0.784729,0.5753784
1601133499467,1854,0.24169922,-0.83599854,0.48406982
1601133499467,1855,0.24682617,-0.8550415,0.5009155
1601133499468,1856,0.19946289,-0.75201416,0.59661865
1601133499468,1857,0.23803711,-0.8723755,0.5006714
1601133499468,1858,0.2421875,-0.8189087,0.50653076
1601133499468,1859,0.2421875,-0.8189087,0.50653076
1601133499468,1860,0.19946289,-0.75201416,0.59661865
1601133499468,1861,0.20825195,-0.6392212,0.63812256
1601133499469,1862,0.2421875,-0.8189087,0.50653076
1601133499469,1863,0.28881836,-0.80352783,0.38690186
1601133499478,1864,0.19946289,-0.75201416,0.59661865
1601133499481,1865,0.46166992,-1.2124634,0.06756592
1601133499481,1866,0.2421875,-0.8189087,0.50653076
1601133499481,1867,0.2421875,-0.8189087,0.50653076
1601133499481,1868,0.46166992,-1.2124634,0.06756592
1601133499481,1869,0.24169922,-0.83599854,0.48406982
1601133499481,1870,0.24169922,-0.83599854,0.48406982
1601133499481,1871,0.24169922,-0.83599854,0.48406982
1601133499482,1872,0.20092773,-0.7192993,0.652771
1601133499482,1873,0.23803711,-0.8723755,0.5006714
1601133499482,1874,0.24169922,-0.83599854,0.48406982
1601133499482,1875,0.23803711,-0.8723755,0.5006714
1601133499482,1876,0.24169922,-0.83599854,0.48406982
1601133499482,1877,0.2421875,-0.8189087,0.50653076
1601133499482,1878,0.23803711,-0.8723755,0.5006714
1601133499482,1879,0.24169922,-0.83599854,0.48406982
1601133499482,1880,0.20825195,-0.6392212,0.63812256
1601133499482,1881,0.23803711,-0.8723755,0.5006714
1601133499482,1882,0.23803711,-0.8723755,0.5006714
1601133499496,1883,0.23803711,-0.8723755,0.5006714
1601133499496,1884,0.2133789,-0.784729,0.5753784
1601133499496,1885,0.2133789,-0.784729,0.5753784
1601133499496,1886,0.2133789,-0.784729,0.5753784
1601133499496,1887,0.28881836,-0.80352783,0.38690186
1601133499496,1888,0.46166992,-1.2124634,0.06756592
1601133499496,1889,0.2133789,-0.784729,0.5753784
1601133499496,1890,0.28881836,-0.80352783,0.38690186
1601133499496,1891,0.2133789,-0.784729,0.5753784
1601133499496,1892,0.2133789,-0.784729,0.5753784
1601133499496,1893,0.2133789,-0.784729,0.5753784
1601133499496,1894,0.28881836,-0.80352783,0.38690186
1601133499497,1895,0.28881836,-0.80352783,0.38690186
1601133499497,1896,0.20092773,-0.7192993,0.652771
1601133499497,1897,0.20092773,-0.7192993,0.652771
1601133499497,1898,0.20092773,-0.7192993,0.652771
1601133499497,1899,0.20825195,-0.6392212,0.63812256
1601133499497,1900,0.28881836,-0.80352783,0.38690186
1601133499497,1901,0.28881836,-0.80352783,0.38690186
1601133499497,1902,0.20825195,-0.6392212,0.63812256
1601133499497,1903,0.20825195,-0.6392212,0.63812256
1601133499497,1904,0.28881836,-0.80352783,0.38690186
1601133499497,1905,0.20092773,-0.7192993,0.652771
1601133499497,1906,0.46166992,-1.2124634,0.06756592
1601133499498,1907,0.20092773,-0.7192993,0.652771
1601133499498,1908,0.20825195,-0.6392212,0.63812256
1601133499498,1909,0.46166992,-1.2124634,0.06756592
1601133499498,1910,0.46166992,-1.2124634,0.06756592
1601133499498,1911,0.20092773,-0.7192993,0.652771
1601133499498,1912,0.46166992,-1.2124634,0.06756592
1601133499498,1913,0.20825195,-0.6392212,0.63812256
1601133499498,1914,0.20092773,-0.7192993,0.652771
1601133499502,1915,0.20825195,-0.6392212,0.63812256
1601133499502,1916,0.46166992,-1.2124634,0.06756592
1601133499502,1917,0.20825195,-0.6392212,0.63812256
1601133499503,1918,0.46166992,-1.2124634,0.06756592
1601133499506,1919,0.46166992,-1.2124634,0.06756592
1601133501828,1920,0.33789062,-0.7124634,0.22259521
1601133501828,1921,0.33789062,-0.7124634,0.22259521
1601133501831,1922,0.33789062,-0.7124634,0.22259521
1601133501832,1923,0.33789062,-0.7124634,0.22259521
1601133501832,1924,0.33789062,-0.7124634,0.22259521
1601133501832,1925,0.33789062,-0.7124634,0.22259521
1601133501832,1926,0.33789062,-0.7124634,0.22259521
1601133501832,1927,0.42797852,-0.9104614,0.12420654
1601133501833,1928,0.42797852,-0.9104614,0.12420654
1601133501833,1929,0.42797852,-0.9104614,0.12420654
1601133501833,1930,0.42797852,-0.9104614,0.12420654
1601133501833,1931,0.42797852,-0.9104614,0.12420654
1601133501833,1932,0.33789062,-0.7124634,0.22259521
1601133501833,1933,0.4416504,-0.800354,-0.07696533
1601133501834,1934,0.4416504,-0.800354,-0.07696533
1601133501834,1935,0.42797852,-0.9104614,0.12420654
1601133501834,1936,0.33789062,-0.7124634,0.22259521
1601133501834,1937,0.44604492,-0.9038696,-0.25177002
1601133501834,1938,0.4416504,-0.800354,-0.07696533
1601133501834,1939,0.4416504,-0.800354,-0.07696533
1601133501835,1940,0.44604492,-0.9038696,-0.25177002
1601133501835,1941,0.33789062,-0.7124634,0.22259521
1601133501835,1942,0.44604492,-0.9038696,-0.25177002
1601133501835,1943,0.42797852,-0.9104614,0.12420654
1601133501836,1944,0.44604492,-0.9038696,-0.25177002
1601133501836,1945,0.4416504,-0.800354,-0.07696533
1601133501836,1946,0.42797852,-0.9104614,0.12420654
1601133501836,1947,0.44995117,-0.973938,-0.2930298
1601133501836,1948,0.44995117,-0.973938,-0.2930298
1601133501836,1949,0.43701172,-0.9397583,-0.2559204
1601133501837,1950,0.44604492,-0.9038696,-0.25177002
1601133501837,1951,0.44995117,-0.973938,-0.2930298
1601133501837,1952,0.43701172,-0.9397583,-0.2559204
1601133501837,1953,0.42797852,-0.9104614,0.12420654
1601133501837,1954,0.42797852,-0.9104614,0.12420654
1601133501838,1955,0.44995117,-0.973938,-0.2930298
1601133501838,1956,0.43823242,-0.8357544,-0.24078369
1601133501838,1957,0.43823242,-0.8357544,-0.24078369
1601133501838,1958,0.4416504,-0.800354,-0.07696533
1601133501838,1959,0.4416504,-0.800354,-0.07696533
1601133501838,1960,0.44995117,-0.973938,-0.2930298
1601133501838,1961,0.44604492,-0.9038696,-0.25177002
1601133501839,1962,0.45996094,-0.85528564,-0.2559204
1601133501839,1963,0.4416504,-0.800354,-0.07696533
1601133501839,1964,0.44604492,-0.9038696,-0.25177002
1601133501839,1965,0.43701172,-0.9397583,-0.2559204
1601133501840,1966,0.4416504,-0.800354,-0.07696533
1601133501840,1967,0.43701172,-0.9397583,-0.2559204
1601133501840,1968,0.43701172,-0.9397583,-0.2559204
1601133501840,1969,0.42700195,-0.73638916,-0.22613525
1601133501860,1970,0.46826172,-0.9260864,-0.41192627
1601133501860,1971,0.44604492,-0.9038696,-0.25177002
1601133501860,1972,0.4416504,-0.800354,-0.07696533
1601133501860,1973,0.43823242,-0.8357544,-0.24078369
1601133501860,1974,0.44604492,-0.9038696,-0.25177002
1601133501860,1975,0.44995117,-0.973938,-0.2930298
1601133501860,1976,0.45996094,-0.85528564,-0.2559204
1601133501860,1977,0.43823242,-0.8357544,-0.24078369
1601133501860,1978,0.45996094,-0.85528564,-0.2559204
1601133501861,1979,0.45996094,-0.85528564,-0.2559204
1601133501861,1980,0.44995117,-0.973938,-0.2930298
1601133501861,1981,0.42700195,-0.73638916,-0.22613525
1601133501861,1982,0.43701172,-0.9397583,-0.2559204
1601133501861,1983,0.46826172,-0.9260864,-0.41192627
1601133501861,1984,0.44995117,-0.973938,-0.2930298
1601133501862,1985,0.44995117,-0.973938,-0.2930298
1601133501862,1986,0.43823242,-0.8357544,-0.24078369
1601133501862,1987,0.44311523,-0.88067627,-0.38897705
1601133501862,1988,0.45996094,-0.85528564,-0.2559204
1601133501862,1989,0.44604492,-0.9038696,-0.25177002
1601133501863,1990,0.43774414,-0.81988525,-0.38531494
1601133501863,1991,0.43701172,-0.9397583,-0.2559204
1601133501863,1992,0.43823242,-0.8357544,-0.24078369
1601133501863,1993,0.42700195,-0.73638916,-0.22613525
1601133501863,1994,0.43823242,-0.8357544,-0.24078369
1601133501863,1995,0.46826172,-0.9260864,-0.41192627
1601133501863,1996,0.45996094,-0.85528564,-0.2559204
1601133501863,1997,0.42700195,-0.73638916,-0.22613525
1601133501863,1998,0.42700195,-0.73638916,-0.22613525
1601133501864,1999,0.43920898,-0.77301025,-0.43951416
1601133501869,2000,0.44311523,-0.88067627,-0.38897705
1601133501869,2001,0.43701172,-0.9397583,-0.2559204
1601133501869,2002,0.43701172,-0.9397583,-0.2559204
1601133501869,2003,0.45996094,-0.85528564,-0.2559204
1601133501869,2004,0.42700195,-0.73638916,-0.22613525
1601133501869,2005,0.44311523,-0.88067627,-0.38897705
1601133501870,2006,0.46826172,-0.9260864,-0.41192627
1601133501870,2007,0.46826172,-0.9260864,-0.41192627
1601133501870,2008,0.44995117,-0.973938,-0.2930298
1601133501880,2009,0.4946289,-0.8948364,-0.55426025
1601133501887,2010,0.43774414,-0.81988525,-0.38531494
1601133501887,2011,0.43823242,-0.8357544,-0.24078369
1601133501887,2012,0.36401367,-0.6992798,-0.24957275
1601133501887,2013,0.42700195,-0.73638916,-0.22613525
1601133501887,2014,0.46826172,-0.9260864,-0.41192627
1601133501888,2015,0.40576172,-0.9038696,-0.34210205
1601133501888,2016,0.44311523,-0.88067627,-0.38897705
1601133501888,2017,0.45996094,-0.85528564,-0.2559204
1601133501888,2018,0.4255371,-0.8706665,-0.5737915
1601133501888,2019,0.46826172,-0.9260864,-0.41192627
1601133501888,2020,0.43701172,-0.9397583,-0.2559204
1601133501888,2021,0.43920898,-0.77301025,-0.43951416
1601133501888,2022,0.43774414,-0.81988525,-0.38531494
1601133501888,2023,0.44311523,-0.88067627,-0.38897705
1601133501888,2024,0.43823242,-0.8357544,-0.24078369
1601133501888,2025,0.39453125,-0.7481079,-0.53326416
1601133501888,2026,0.44311523,-0.88067627,-0.38897705
1601133501888,2027,0.43823242,-0.8357544,-0.24078369
1601133501888,2028,0.42700195,-0.73638916,-0.22613525
1601133501888,2029,0.44311523,-0.88067627,-0.38897705
1601133501888,2030,0.43774414,-0.81988525,-0.38531494
1601133501889,2031,0.4946289,-0.8948364,-0.55426025
1601133501889,2032,0.43920898,-0.77301025,-0.43951416
1601133501889,2033,0.43774414,-0.81988525,-0.38531494
1601133501889,2034,0.3930664,-0.81622314,-0.5064087
1601133501889,2035,0.43774414,-0.81988525,-0.38531494
1601133501889,2036,0.45996094,-0.85528564,-0.2559204
1601133501889,2037,0.46826172,-0.9260864,-0.41192627
1601133501889,2038,0.43920898,-0.77301025,-0.43951416
1601133501889,2039,0.36401367,-0.6992798,-0.24957275
1601133501889,2040,0.45996094,-0.85528564,-0.2559204
1601133501889,2041,0.43774414,-0.81988525,-0.38531494
1601133501889,2042,0.40576172,-0.9038696,-0.34210205
1601133501889,2043,0.4946289,-0.8948364,-0.55426025
1601133501889,2044,0.42700195,-0.73638916,-0.22613525
1601133501889,2045,0.43920898,-0.77301025,-0.43951416
1601133501894,2046,0.44311523,-0.88067627,-0.38897705
1601133501895,2047,0.4946289,-0.8948364,-0.55426025
1601133501897,2048,0.43774414,-0.81988525,-0.38531494
1601133501897,2049,0.42700195,-0.73638916,-0.22613525
1601133501897,2050,0.36401367,-0.6992798,-0.24957275
1601133501897,2051,0.46826172,-0.9260864,-0.41192627
1601133501897,2052,0.3564453,-0.9505005,-0.37017822
1601133501897,2053,0.43920898,-0.77301025,-0.43951416
1601133501897,2054,0.46826172,-0.9260864,-0.41192627
1601133501897,2055,0.36401367,-0.6992798,-0.24957275
1601133501897,2056,0.43920898,-0.77301025,-0.43951416
1601133501898,2057,0.4255371,-0.8706665,-0.5737915
1601133501900,2058,0.44311523,-0.88067627,-0.38897705
1601133501900,2059,0.43920898,-0.77301025,-0.43951416
1601133501909,2060,0.4946289,-0.8948364,-0.55426025
1601133501909,2061,0.4946289,-0.8948364,-0.55426025
1601133501909,2062,0.4946289,-0.8948364,-0.55426025
1601133501909,2063,0.44311523,-0.88067627,-0.38897705
1601133501909,2064,0.40576172,-0.9038696,-0.34210205
1601133501910,2065,0.40576172,-0.9038696,-0.34210205
1601133501910,2066,0.39453125,-0.7481079,-0.53326416
1601133501910,2067,0.38110352,-0.79351807,-0.48223877
1601133501910,2068,0.43774414,-0.81988525,-0.38531494
1601133501910,2069,0.4946289,-0.8948364,-0.55426025
1601133501910,2070,0.43920898,-0.77301025,-0.43951416
1601133501910,2071,0.36401367,-0.6992798,-0.24957275
1601133501910,2072,0.36401367,-0.6992798,-0.24957275
1601133501910,2073,0.36401367,-0.6992798,-0.24957275
1601133501910,2074,0.43774414,-0.81988525,-0.38531494
1601133501911,2075,0.4255371,-0.8706665,-0.5737915
1601133501911,2076,0.4255371,-0.8706665,-0.5737915
1601133501911,2077,0.39819336,-0.91729736,-0.4915161
1601133501911,2078,0.3930664,-0.81622314,-0.5064087
1601133501918,2079,0.36401367,-0.6992798,-0.24957275
1601133501918,2080,0.4946289,-0.8948364,-0.55426025
1601133501918,2081,0.40576172,-0.9038696,-0.34210205
1601133501918,2082,0.40576172,-0.9038696,-0.34210205
1601133501918,2083,0.39453125,-0.7481079,-0.53326416
1601133501918,2084,0.43920898,-0.77301025,-0.43951416
1601133501918,2085,0.40576172,-0.9038696,-0.34210205
1601133501918,2086,0.3701172,-0.96466064,-0.222229
1601133501918,2087,0.39453125,-0.7481079,-0.53326416
1601133501918,2088,0.4255371,-0.8706665,-0.5737915
1601133501918,2089,0.40576172,-0.9038696,-0.34210205
1601133501921,2090,0.4255371,-0.8706665,-0.5737915
1601133501924,2091,0.4255371,-0.8706665,-0.5737915
1601133501925,2092,0.4946289,-0.8948364,-0.55426025
1601133501925,2093,0.39453125,-0.7481079,-0.53326416
1601133501925,2094,0.3930664,-0.81622314,-0.5064087
1601133501925,2095,0.38183594,-0.89923096,-0.117248535
1601133501925,2096,0.39453125,-0.7481079,-0.53326416
1601133501925,2097,0.3605957,-0.9817505,0.032409668
1601133501925,2098,0.4255371,-0.8706665,-0.5737915
1601133501925,2099,0.3930664,-0.81622314,-0.5064087
1601133501925,2100,0.39453125,-0.7481079,-0.53326416
1601133501925,2101,0.3564453,-0.9505005,-0.37017822
1601133501926,2102,0.3930664,-0.81622314,-0.5064087
1601133501926,2103,0.36401367,-0.6992798,-0.24957275
1601133501927,2104,0.3564453,-0.9505005,-0.37017822
1601133501930,2105,0.3930664,-0.81622314,-0.5064087
1601133501931,2106,0.3564453,-0.9505005,-0.37017822
1601133501931,2107,0.3930664,-0.81622314,-0.5064087
1601133501931,2108,0.39453125,-0.7481079,-0.53326416
1601133501931,2109,0.38110352,-0.79351807,-0.48223877
1601133501931,2110,0.3564453,-0.9505005,-0.37017822
1601133501931,2111,0.3564453,-0.9505005,-0.37017822
1601133501931,2112,0.40576172,-0.9038696,-0.34210205
1601133501931,2113,0.3930664,-0.81622314,-0.5064087
1601133501932,2114,0.36401367,-0.6992798,-0.24957275
1601133501935,2115,0.3564453,-0.9505005,-0.37017822
1601133501935,2116,0.3395996,-0.8140259,0.17425537
1601133501935,2117,0.40576172,-0.9038696,-0.34210205
1601133501935,2118,0.38110352,-0.79351807,-0.48223877
1601133501935,2119,0.38110352,-0.79351807,-0.48223877
1601133501936,2120,0.3383789,-0.93707275,0.23944092
1601133501936,2121,0.39819336,-0.91729736,-0.4915161
1601133501936,2122,0.3564453,-0.9505005,-0.37017822
1601133501936,2123,0.34960938,-0.9524536,0.20062256
1601133501939,2124,0.39819336,-0.91729736,-0.4915161
1601133501939,2125,0.4255371,-0.8706665,-0.5737915
1601133501939,2126,0.4255371,-0.8706665,-0.5737915
1601133501939,2127,0.38110352,-0.79351807,-0.48223877
1601133501939,2128,0.38110352,-0.79351807,-0.48223877
1601133501939,2129,0.39453125,-0.7481079,-0.53326416
1601133501939,2130,0.39819336,-0.91729736,-0.4915161
1601133501939,2131,0.3930664,-0.81622314,-0.5064087
1601133501940,2132,0.31298828,-0.8640747,0.31976318
1601133501940,2133,0.3564453,-0.9505005,-0.37017822
1601133501941,2134,0.3701172,-0.96466064,-0.222229
1601133501945,2135,0.39819336,-0.91729736,-0.4915161
1601133501946,2136,0.38110352,-0.79351807,-0.48223877
1601133501946,2137,0.39819336,-0.91729736,-0.4915161
1601133501946,2138,0.3701172,-0.96466064,-0.222229
1601133501946,2139,0.3701172,-0.96466064,-0.222229
1601133501946,2140,0.3701172,-0.96466064,-0.222229
1601133501946,2141,0.38183594,-0.89923096,-0.117248535
1601133501946,2142,0.38183594,-0.89923096,-0.117248535
1601133501946,2143,0.38183594,-0.89923096,-0.117248535
1601133501946,2144,0.38183594,-0.89923096,-0.117248535
1601133501946,2145,0.3605957,-0.9817505,0.032409668
1601133501946,2146,0.39819336,-0.91729736,-0.4915161
1601133501947,2147,0.3395996,-0.8140259,0.17425537
1601133501947,2148,0.3383789,-0.93707275,0.23944092
1601133501954,2149,0.3605957,-0.9817505,0.032409668
1601133501954,2150,0.3701172,-0.96466064,-0.222229
1601133501954,2151,0.3605957,-0.9817505,0.032409668
1601133501954,2152,0.3605957,-0.9817505,0.032409668
1601133501955,2153,0.38110352,-0.79351807,-0.48223877
1601133501955,2154,0.3701172,-0.96466064,-0.222229
1601133501955,2155,0.3395996,-0.8140259,0.17425537
1601133501955,2156,0.13549805,-0.64727783,0.7416382
1601133501955,2157,0.39453125,-0.7481079,-0.53326416
1601133501959,2158,0.34960938,-0.9524536,0.20062256
1601133501971,2159,0.3395996,-0.8140259,0.17425537
1601133501971,2160,0.39819336,-0.91729736,-0.4915161
1601133501974,2161,0.3395996,-0.8140259,0.17425537
1601133501975,2162,0.3701172,-0.96466064,-0.222229
1601133501975,2163,0.38183594,-0.89923096,-0.117248535
1601133501975,2164,0.38110352,-0.79351807,-0.48223877
1601133501975,2165,0.3383789,-0.93707275,0.23944092
1601133501975,2166,0.1352539,-0.51397705,0.77801514
1601133501976,2167,0.39819336,-0.91729736,-0.4915161
1601133501976,2168,0.31298828,-0.8640747,0.31976318
1601133501976,2169,0.3605957,-0.9817505,0.032409668
1601133501976,2170,0.38183594,-0.89923096,-0.117248535
1601133501976,2171,0.34960938,-0.9524536,0.20062256
1601133501976,2172,0.38183594,-0.89923096,-0.117248535
1601133501976,2173,0.3383789,-0.93707275,0.23944092
1601133501976,2174,0.1640625,-0.67974854,0.73773193
1601133501976,2175,0.3930664,-0.81622314,-0.5064087
1601133501976,2176,0.3395996,-0.8140259,0.17425537
1601133501976,2177,0.3605957,-0.9817505,0.032409668
1601133501976,2178,0.3701172,-0.96466064,-0.222229
1601133501976,2179,0.34960938,-0.9524536,0.20062256
1601133501976,2180,0.13549805,-0.64727783,0.7416382
1601133501976,2181,0.3383789,-0.93707275,0.23944092
1601133501976,2182,0.3564453,-0.9505005,-0.37017822
1601133501978,2183,0.3605957,-0.9817505,0.032409668
1601133501978,2184,0.1352539,-0.51397705,0.77801514
1601133501978,2185,0.38110352,-0.79351807,-0.48223877
1601133501978,2186,0.31298828,-0.8640747,0.31976318
1601133501978,2187,0.39819336,-0.91729736,-0.4915161
1601133501978,2188,0.38183594,-0.89923096,-0.117248535
1601133501978,2189,0.3383789,-0.93707275,0.23944092
1601133501978,2190,0.31298828,-0.8640747,0.31976318
1601133501978,2191,0.34960938,-0.9524536,0.20062256
1601133501978,2192,0.3395996,-0.8140259,0.17425537
1601133501978,2193,0.13549805,-0.64727783,0.7416382
1601133501978,2194,0.1640625,-0.67974854,0.73773193
1601133501978,2195,0.1352539,-0.51397705,0.77801514
1601133501978,2196,0.31298828,-0.8640747,0.31976318
1601133501978,2197,0.3701172,-0.96466064,-0.222229
1601133501978,2198,0.1640625,-0.67974854,0.73773193
1601133501978,2199,0.13549805,-0.64727783,0.7416382
1601133501978,2200,0.3395996,-0.8140259,0.17425537
1601133501978,2201,0.13549805,-0.64727783,0.7416382
1601133501979,2202,0.1352539,-0.51397705,0.77801514
1601133501979,2203,0.3605957,-0.9817505,0.032409668
1601133501979,2204,0.1352539,-0.51397705,0.77801514
1601133501980,2205,0.1640625,-0.67974854,0.73773193
1601133501980,2206,0.3383789,-0.93707275,0.23944092
1601133501980,2207,0.34960938,-0.9524536,0.20062256
1601133501980,2208,0.3395996,-0.8140259,0.17425537
1601133501980,2209,0.38183594,-0.89923096,-0.117248535
1601133501980,2210,0.1640625,-0.67974854,0.73773193
1601133501980,2211,0.3383789,-0.93707275,0.23944092
1601133501980,2212,0.34960938,-0.9524536,0.20062256
1601133501981,2213,0.31298828,-0.8640747,0.31976318
1601133501987,2214,0.3605957,-0.9817505,0.032409668
1601133501987,2215,0.3383789,-0.93707275,0.23944092
1601133501987,2216,0.13549805,-0.64727783,0.7416382
1601133501987,2217,0.3395996,-0.8140259,0.17425537
1601133501987,2218,0.31298828,-0.8640747,0.31976318
1601133501987,2219,0.34960938,-0.9524536,0.20062256
1601133501987,2220,0.3383789,-0.93707275,0.23944092
1601133501987,2221,0.1352539,-0.51397705,0.77801514
1601133501987,2222,0.34960938,-0.9524536,0.20062256
1601133501992,2223,0.13549805,-0.64727783,0.7416382
1601133501992,2224,0.34960938,-0.9524536,0.20062256
1601133501992,2225,0.1640625,-0.67974854,0.73773193
1601133501992,2226,0.31298828,-0.8640747,0.31976318
1601133501993,2227,0.31298828,-0.8640747,0.31976318
1601133501993,2228,0.13549805,-0.64727783,0.7416382
1601133501993,2229,0.1352539,-0.51397705,0.77801514
1601133501993,2230,0.1352539,-0.51397705,0.77801514
1601133501996,2231,0.1640625,-0.67974854,0.73773193
1601133501996,2232,0.31298828,-0.8640747,0.31976318
1601133501996,2233,0.1640625,-0.67974854,0.73773193
1601133501996,2234,0.13549805,-0.64727783,0.7416382
1601133501996,2235,0.13549805,-0.64727783,0.7416382
1601133501997,2236,0.1352539,-0.51397705,0.77801514
1601133501997,2237,0.1352539,-0.51397705,0.77801514
1601133501998,2238,0.1640625,-0.67974854,0.73773193
1601133501999,2239,0.1640625,-0.67974854,0.73773193
1601133504366,2240,0.19848633,-0.6758423,0.684021
1601133504366,2241,0.19848633,-0.6758423,0.684021
1601133504366,2242,0.19848633,-0.6758423,0.684021
1601133504366,2243,0.18237305,-0.6904907,0.6508179
1601133504366,2244,0.19848633,-0.6758423,0.684021
1601133504367,2245,0.19848633,-0.6758423,0.684021
1601133504367,2246,0.19628906,-0.6987915,0.6605835
1601133504367,2247,0.19848633,-0.6758423,0.684021
1601133504367,2248,0.22216797,-0.6445923,0.64276123
1601133504367,2249,0.19848633,-0.6758423,0.684021
1601133504367,2250,0.19848633,-0.6758423,0.684021
1601133504385,2251,0.18237305,-0.6904907,0.6508179
1601133504385,2252,0.18237305,-0.6904907,0.6508179
1601133504385,2253,0.18237305,-0.6904907,0.6508179
1601133504385,2254,0.18237305,-0.6904907,0.6508179
1601133504385,2255,0.19848633,-0.6758423,0.684021
1601133504385,2256,0.18237305,-0.6904907,0.6508179
1601133504385,2257,0.19848633,-0.6758423,0.684021
1601133504385,2258,0.19628906,-0.6987915,0.6605835
1601133504385,2259,0.18237305,-0.6904907,0.6508179
1601133504385,2260,0.18237305,-0.6904907,0.6508179
1601133504386,2261,0.19628906,-0.6987915,0.6605835
1601133504386,2262,0.18237305,-0.6904907,0.6508179
1601133504386,2263,0.24926758,-0.91607666,0.6088257
1601133504386,2264,0.19628906,-0.6987915,0.6605835
1601133504386,2265,0.18237305,-0.6904907,0.6508179
1601133504386,2266,0.19628906,-0.6987915,0.6605835
1601133504387,2267,0.19628906,-0.6987915,0.6605835
1601133504387,2268,0.19628906,-0.6987915,0.6605835
1601133504387,2269,0.22216797,-0.6445923,0.64276123
1601133504387,2270,0.22216797,-0.6445923,0.64276123
1601133504387,2271,0.19628906,-0.6987915,0.6605835
1601133504388,2272,0.19262695,-0.5479126,0.61151123
1601133504388,2273,0.22216797,-0.6445923,0.64276123
1601133504388,2274,0.22216797,-0.6445923,0.64276123
1601133504388,2275,0.24926758,-0.91607666,0.6088257
1601133504393,2276,0.22216797,-0.6445923,0.64276123
1601133504393,2277,0.22216797,-0.6445923,0.64276123
1601133504393,2278,0.19628906,-0.6987915,0.6605835
1601133504393,2279,0.24926758,-0.91607666,0.6088257
1601133504393,2280,0.14086914,-0.5940552,0.79193115
1601133504394,2281,0.19628906,-0.6987915,0.6605835
1601133504394,2282,0.24926758,-0.91607666,0.6088257
1601133504394,2283,0.22216797,-0.6445923,0.64276123
1601133504394,2284,0.24926758,-0.91607666,0.6088257
1601133504395,2285,0.19262695,-0.5479126,0.61151123
1601133504400,2286,0.22216797,-0.6445923,0.64276123
1601133504401,2287,0.14086914,-0.5940552,0.79193115
1601133504401,2288,0.22753906,-0.61968994,0.66204834
1601133504401,2289,0.19262695,-0.5479126,0.61151123
1601133504401,2290,0.22216797,-0.6445923,0.64276123
1601133504403,2291,0.21289062,-0.74102783,0.74261475
1601133504403,2292,0.24926758,-0.91607666,0.6088257
1601133504403,2293,0.19262695,-0.5479126,0.61151123
1601133504403,2294,0.24926758,-0.91607666,0.6088257
1601133504413,2295,0.24926758,-0.91607666,0.6088257
1601133504413,2296,0.24926758,-0.91607666,0.6088257
1601133504413,2297,0.19262695,-0.5479126,0.61151123
1601133504413,2298,0.14086914,-0.5940552,0.79193115
1601133504413,2299,0.19262695,-0.5479126,0.61151123
1601133504414,2300,0.24926758,-0.91607666,0.6088257
1601133504414,2301,0.19262695,-0.5479126,0.61151123
1601133504414,2302,0.19262695,-0.5479126,0.61151123
1601133504414,2303,0.14086914,-0.5940552,0.79193115
1601133504414,2304,0.19262695,-0.5479126,0.61151123
1601133504415,2305,0.22753906,-0.61968994,0.66204834
1601133504415,2306,0.14086914,-0.5940552,0.79193115
1601133504415,2307,0.19262695,-0.5479126,0.61151123
1601133504415,2308,0.21289062,-0.74102783,0.74261475
1601133504415,2309,0.14086914,-0.5940552,0.79193115
1601133504415,2310,0.22753906,-0.61968994,0.66204834
1601133504416,2311,0.14086914,-0.5940552,0.79193115
1601133504416,2312,0.14086914,-0.5940552,0.79193115
1601133504416,2313,0.14086914,-0.5940552,0.79193115
1601133504416,2314,0.22753906,-0.61968994,0.66204834
1601133504417,2315,0.14086914,-0.5940552,0.79193115
1601133504417,2316,0.22753906,-0.61968994,0.66204834
