# Sensor position: Wrist
# Sensor side: Left
# Activity type: Desk work
# Activity code: 31
# Subject id: s1735229
timestamp,seq,accel_x,accel_y,accel_z
1601135349645,0,-0.52001953,0.59783936,0.6256714
1601135349646,1,-0.52001953,0.59783936,0.6256714
1601135349647,2,-0.52001953,0.59783936,0.6256714
1601135349647,3,-0.52001953,0.59783936,0.6256714
1601135349649,4,-0.44970703,0.58148193,0.621521
1601135349649,5,-0.52001953,0.59783936,0.6256714
1601135349649,6,-0.52001953,0.59783936,0.6256714
1601135349649,7,-0.52001953,0.59783936,0.6256714
1601135349660,8,-0.44970703,0.58148193,0.621521
1601135349660,9,-0.44970703,0.58148193,0.621521
1601135349660,10,-0.44970703,0.58148193,0.621521
1601135349660,11,-0.45483398,0.5856323,0.63323975
1601135349660,12,-0.52001953,0.59783936,0.6256714
1601135349661,13,-0.44970703,0.58148193,0.621521
1601135349661,14,-0.45483398,0.5856323,0.63323975
1601135349662,15,-0.45483398,0.5856323,0.63323975
1601135349662,16,-0.44970703,0.58148193,0.621521
1601135349662,17,-0.52001953,0.59783936,0.6256714
1601135349662,18,-0.45483398,0.5856323,0.63323975
1601135349662,19,-0.45483398,0.5856323,0.63323975
1601135349662,20,-0.44970703,0.58148193,0.621521
1601135349663,21,-0.45581055,0.5968628,0.6310425
1601135349663,22,-0.45483398,0.5856323,0.63323975
1601135349664,23,-0.45581055,0.5968628,0.6310425
1601135349665,24,-0.45581055,0.5968628,0.6310425
1601135349665,25,-0.45581055,0.5968628,0.6310425
1601135349665,26,-0.44970703,0.58148193,0.621521
1601135349666,27,-0.45581055,0.5968628,0.6310425
1601135349666,28,-0.45581055,0.5968628,0.6310425
1601135349667,29,-0.47485352,0.51898193,0.6063843
1601135349668,30,-0.52001953,0.59783936,0.6256714
1601135349680,31,-0.45483398,0.5856323,0.63323975
1601135349681,32,-0.47485352,0.51898193,0.6063843
1601135349681,33,-0.47485352,0.51898193,0.6063843
1601135349681,34,-0.45483398,0.5856323,0.63323975
1601135349681,35,-0.47485352,0.51898193,0.6063843
1601135349681,36,-0.47485352,0.51898193,0.6063843
1601135349681,37,-0.45581055,0.5968628,0.6310425
1601135349682,38,-0.47485352,0.51898193,0.6063843
1601135349682,39,-0.44970703,0.58148193,0.621521
1601135349687,40,-0.5241699,0.5541382,0.6288452
1601135349688,41,-0.5241699,0.5541382,0.6288452
1601135349688,42,-0.4489746,0.5343628,0.6744995
1601135349688,43,-0.5241699,0.5541382,0.6288452
1601135349688,44,-0.4572754,0.5475464,0.64837646
1601135349689,45,-0.5241699,0.5541382,0.6288452
1601135349689,46,-0.45703125,0.58148193,0.6412964
1601135349689,47,-0.5241699,0.5541382,0.6288452
1601135349689,48,-0.45483398,0.5856323,0.63323975
1601135349689,49,-0.44970703,0.58148193,0.621521
1601135349689,50,-0.45654297,0.5626831,0.6425171
1601135349689,51,-0.4489746,0.5343628,0.6744995
1601135349689,52,-0.4489746,0.5343628,0.6744995
1601135349689,53,-0.47485352,0.51898193,0.6063843
1601135349690,54,-0.4489746,0.5343628,0.6744995
1601135349691,55,-0.5241699,0.5541382,0.6288452
1601135349699,56,-0.4489746,0.5343628,0.6744995
1601135349699,57,-0.45581055,0.5968628,0.6310425
1601135349699,58,-0.46972656,0.5980835,0.6154175
1601135349699,59,-0.4572754,0.5475464,0.64837646
1601135349699,60,-0.4572754,0.5475464,0.64837646
1601135349700,61,-0.5241699,0.5541382,0.6288452
1601135349700,62,-0.4489746,0.5343628,0.6744995
1601135349700,63,-0.45581055,0.5968628,0.6310425
1601135349700,64,-0.4572754,0.5475464,0.64837646
1601135349700,65,-0.4572754,0.5475464,0.64837646
1601135349700,66,-0.4489746,0.5343628,0.6744995
1601135349700,67,-0.4572754,0.5475464,0.64837646
1601135349700,68,-0.45703125,0.58148193,0.6412964
1601135349700,69,-0.45703125,0.58148193,0.6412964
1601135349700,70,-0.45703125,0.58148193,0.6412964
1601135349701,71,-0.45703125,0.58148193,0.6412964
1601135349701,72,-0.45483398,0.5856323,0.63323975
1601135349701,73,-0.45654297,0.5626831,0.6425171
1601135349701,74,-0.4572754,0.5475464,0.64837646
1601135349701,75,-0.46972656,0.5980835,0.6154175
1601135349701,76,-0.47485352,0.51898193,0.6063843
1601135349701,77,-0.47485352,0.51898193,0.6063843
1601135349703,78,-0.45703125,0.58148193,0.6412964
1601135349703,79,-0.45654297,0.5626831,0.6425171
1601135349718,80,-0.45654297,0.5626831,0.6425171
1601135349719,81,-0.46655273,0.58465576,0.6310425
1601135349719,82,-0.45703125,0.58148193,0.6412964
1601135349719,83,-0.46972656,0.5980835,0.6154175
1601135349719,84,-0.5241699,0.5541382,0.6288452
1601135349719,85,-0.45654297,0.5626831,0.6425171
1601135349719,86,-0.45654297,0.5626831,0.6425171
1601135349719,87,-0.45581055,0.5968628,0.6310425
1601135349719,88,-0.45654297,0.5626831,0.6425171
1601135349719,89,-0.46972656,0.5980835,0.6154175
1601135349722,90,-0.47485352,0.51898193,0.6063843
1601135349722,91,-0.46362305,0.55267334,0.59954834
1601135349722,92,-0.46655273,0.58465576,0.6310425
1601135349722,93,-0.46655273,0.58465576,0.6310425
1601135349723,94,-0.5241699,0.5541382,0.6288452
1601135349723,95,-0.46362305,0.55267334,0.59954834
1601135349723,96,-0.46655273,0.58465576,0.6310425
1601135349723,97,-0.46972656,0.5980835,0.6154175
1601135349723,98,-0.5241699,0.5541382,0.6288452
1601135349724,99,-0.4650879,0.6222534,0.62176514
1601135349724,100,-0.46362305,0.55267334,0.59954834
1601135349724,101,-0.46972656,0.5980835,0.6154175
1601135349724,102,-0.46362305,0.55267334,0.59954834
1601135349724,103,-0.4650879,0.6222534,0.62176514
1601135349724,104,-0.4489746,0.5343628,0.6744995
1601135349724,105,-0.46972656,0.5980835,0.6154175
1601135349724,106,-0.4650879,0.6222534,0.62176514
1601135349724,107,-0.46655273,0.58465576,0.6310425
1601135349724,108,-0.45825195,0.57611084,0.6100464
1601135349724,109,-0.4489746,0.5343628,0.6744995
1601135349724,110,-0.47070312,0.58880615,0.62493896
1601135349724,111,-0.46655273,0.58465576,0.6310425
1601135349724,112,-0.4489746,0.5343628,0.6744995
1601135349725,113,-0.48291016,0.56292725,0.6129761
1601135349725,114,-0.45825195,0.57611084,0.6100464
1601135349725,115,-0.4572754,0.5475464,0.64837646
1601135349725,116,-0.45825195,0.57611084,0.6100464
1601135349725,117,-0.46655273,0.58465576,0.6310425
1601135349725,118,-0.46362305,0.55267334,0.59954834
1601135349725,119,-0.4572754,0.5475464,0.64837646
1601135349725,120,-0.45703125,0.58148193,0.6412964
1601135349725,121,-0.45532227,0.60443115,0.61883545
1601135349730,122,-0.47070312,0.58880615,0.62493896
1601135349730,123,-0.46362305,0.55267334,0.59954834
1601135349730,124,-0.46948242,0.604187,0.6095581
1601135349730,125,-0.47070312,0.58880615,0.62493896
1601135349730,126,-0.4650879,0.6222534,0.62176514
1601135349731,127,-0.46362305,0.55267334,0.59954834
1601135349731,128,-0.4572754,0.5475464,0.64837646
1601135349731,129,-0.45654297,0.5626831,0.6425171
1601135349731,130,-0.45703125,0.58148193,0.6412964
1601135349731,131,-0.4650879,0.6222534,0.62176514
1601135349744,132,-0.48291016,0.56292725,0.6129761
1601135349744,133,-0.4645996,0.60369873,0.61102295
1601135349744,134,-0.48291016,0.56292725,0.6129761
1601135349744,135,-0.45825195,0.57611084,0.6100464
1601135349744,136,-0.45751953,0.59173584,0.618103
1601135349744,137,-0.46972656,0.5980835,0.6154175
1601135349744,138,-0.5427246,0.68255615,0.66864014
1601135349744,139,-0.45654297,0.5626831,0.6425171
1601135349744,140,-0.4650879,0.6222534,0.62176514
1601135349745,141,-0.45825195,0.57611084,0.6100464
1601135349745,142,-0.77001953,0.96258545,0.7116089
1601135349745,143,-0.45532227,0.60443115,0.61883545
1601135349745,144,-0.45825195,0.57611084,0.6100464
1601135349745,145,-0.4650879,0.6222534,0.62176514
1601135349745,146,-0.45532227,0.60443115,0.61883545
1601135349745,147,-0.45703125,0.58148193,0.6412964
1601135349745,148,-0.46655273,0.58465576,0.6310425
1601135349745,149,-0.46972656,0.5980835,0.6154175
1601135349746,150,-0.47070312,0.58880615,0.62493896
1601135349748,151,-0.18432617,0.47210693,0.7850952
1601135349749,152,-0.46948242,0.604187,0.6095581
1601135349749,153,-0.47070312,0.58880615,0.62493896
1601135349752,154,-0.45654297,0.5626831,0.6425171
1601135349752,155,-0.46362305,0.55267334,0.59954834
1601135349752,156,-0.46655273,0.58465576,0.6310425
1601135349761,157,-0.46972656,0.5980835,0.6154175
1601135349761,158,-0.45825195,0.57611084,0.6100464
1601135349762,159,0.0690918,0.45477295,0.8344116
1601135349762,160,-0.47070312,0.58880615,0.62493896
1601135349762,161,-0.4645996,0.60369873,0.61102295
1601135349762,162,-0.48291016,0.56292725,0.6129761
1601135349762,163,-0.45532227,0.60443115,0.61883545
1601135349762,164,-0.48291016,0.56292725,0.6129761
1601135349763,165,-0.46948242,0.604187,0.6095581
1601135349763,166,-0.46362305,0.55267334,0.59954834
1601135349763,167,-0.4645996,0.60369873,0.61102295
1601135349763,168,-0.45751953,0.59173584,0.618103
1601135349763,169,-0.45751953,0.59173584,0.618103
1601135349763,170,-0.4650879,0.6222534,0.62176514
1601135349763,171,-0.4650879,0.6222534,0.62176514
1601135349763,172,-0.48291016,0.56292725,0.6129761
1601135349763,173,-0.47070312,0.58880615,0.62493896
1601135349763,174,-0.45532227,0.60443115,0.61883545
1601135349763,175,-0.46655273,0.58465576,0.6310425
1601135349766,176,-0.45825195,0.57611084,0.6100464
1601135349766,177,-0.5427246,0.68255615,0.66864014
1601135349766,178,-0.45825195,0.57611084,0.6100464
1601135349766,179,-0.5427246,0.68255615,0.66864014
1601135349767,180,-0.46948242,0.604187,0.6095581
1601135349767,181,-0.45532227,0.60443115,0.61883545
1601135349767,182,-0.46362305,0.55267334,0.59954834
1601135349767,183,-0.48291016,0.56292725,0.6129761
1601135349767,184,-0.46948242,0.604187,0.6095581
1601135349767,185,0.0041503906,0.69281006,0.5241089
1601135349772,186,-0.47070312,0.58880615,0.62493896
1601135349772,187,-0.77001953,0.96258545,0.7116089
1601135349773,188,-0.47070312,0.58880615,0.62493896
1601135349773,189,-0.46948242,0.604187,0.6095581
1601135349774,190,-0.4650879,0.6222534,0.62176514
1601135349775,191,-0.4645996,0.60369873,0.61102295
1601135349781,192,-0.48291016,0.56292725,0.6129761
1601135349781,193,-0.4645996,0.60369873,0.61102295
1601135349782,194,-0.18432617,0.47210693,0.7850952
1601135349782,195,-0.48291016,0.56292725,0.6129761
1601135349782,196,-0.45532227,0.60443115,0.61883545
1601135349782,197,-0.45751953,0.59173584,0.618103
1601135349782,198,-0.45825195,0.57611084,0.6100464
1601135349782,199,-0.45532227,0.60443115,0.61883545
1601135349783,200,0.01171875,0.61395264,0.6754761
1601135349783,201,-0.46948242,0.604187,0.6095581
1601135349783,202,-0.5427246,0.68255615,0.66864014
1601135349783,203,-0.4645996,0.60369873,0.61102295
1601135349783,204,-0.77001953,0.96258545,0.7116089
1601135349783,205,-0.45751953,0.59173584,0.618103
1601135349783,206,-0.46948242,0.604187,0.6095581
1601135349785,207,-0.45751953,0.59173584,0.618103
1601135349786,208,-0.47070312,0.58880615,0.62493896
1601135349786,209,0.06933594,0.5162964,0.6222534
1601135349786,210,0.0690918,0.45477295,0.8344116
1601135349786,211,-0.48291016,0.56292725,0.6129761
1601135349786,212,-0.45532227,0.60443115,0.61883545
1601135349786,213,0.0041503906,0.69281006,0.5241089
1601135349786,214,-0.77001953,0.96258545,0.7116089
1601135349786,215,-0.5427246,0.68255615,0.66864014
1601135349787,216,-0.4645996,0.60369873,0.61102295
1601135349791,217,0.064941406,0.61151123,0.5282593
1601135349792,218,-0.18432617,0.47210693,0.7850952
1601135349792,219,-0.45532227,0.60443115,0.61883545
1601135349792,220,-0.5427246,0.68255615,0.66864014
1601135349792,221,-0.18432617,0.47210693,0.7850952
1601135349792,222,-0.46948242,0.604187,0.6095581
1601135349792,223,0.01171875,0.61395264,0.6754761
1601135349792,224,-0.77001953,0.96258545,0.7116089
1601135349792,225,-0.4645996,0.60369873,0.61102295
1601135349793,226,0.06933594,0.5162964,0.6222534
1601135349796,227,0.041015625,0.3925171,0.6696167
1601135349796,228,-0.46948242,0.604187,0.6095581
1601135349796,229,-0.4645996,0.60369873,0.61102295
1601135349797,230,-0.77001953,0.96258545,0.7116089
1601135349797,231,-0.45751953,0.59173584,0.618103
1601135349797,232,0.0690918,0.45477295,0.8344116
1601135349797,233,-0.18432617,0.47210693,0.7850952
1601135349797,234,-0.18432617,0.47210693,0.7850952
1601135349797,235,-0.45751953,0.59173584,0.618103
1601135349798,236,0.064941406,0.61151123,0.5282593
1601135349811,237,0.11621094,0.40057373,0.6622925
1601135349811,238,-0.4645996,0.60369873,0.61102295
1601135349812,239,0.0690918,0.45477295,0.8344116
1601135349812,240,-0.5427246,0.68255615,0.66864014
1601135349812,241,0.0041503906,0.69281006,0.5241089
1601135349812,242,0.0041503906,0.69281006,0.5241089
1601135349812,243,-0.45751953,0.59173584,0.618103
1601135349812,244,0.01171875,0.61395264,0.6754761
1601135349812,245,0.0690918,0.45477295,0.8344116
1601135349812,246,0.041015625,0.3925171,0.6696167
1601135349812,247,0.0041503906,0.69281006,0.5241089
1601135349812,248,0.23730469,0.88739014,0.480896
1601135349813,249,-0.45751953,0.59173584,0.618103
1601135349813,250,-0.77001953,0.96258545,0.7116089
1601135349813,251,-0.5427246,0.68255615,0.66864014
1601135349813,252,0.0690918,0.45477295,0.8344116
1601135349813,253,-0.77001953,0.96258545,0.7116089
1601135349813,254,0.11621094,0.40057373,0.6622925
1601135349813,255,0.01171875,0.61395264,0.6754761
1601135349813,256,0.0041503906,0.69281006,0.5241089
1601135349813,257,0.01171875,0.61395264,0.6754761
1601135349813,258,0.23730469,0.88739014,0.480896
1601135349813,259,-0.5427246,0.68255615,0.66864014
1601135349813,260,-0.18432617,0.47210693,0.7850952
1601135349814,261,0.06933594,0.5162964,0.6222534
1601135349814,262,-0.18432617,0.47210693,0.7850952
1601135349821,263,0.06933594,0.5162964,0.6222534
1601135349821,264,-0.5427246,0.68255615,0.66864014
1601135349821,265,0.01171875,0.61395264,0.6754761
1601135349821,266,0.06933594,0.5162964,0.6222534
1601135349821,267,-0.77001953,0.96258545,0.7116089
1601135349821,268,0.0690918,0.45477295,0.8344116
1601135349823,269,-0.77001953,0.96258545,0.7116089
1601135349823,270,0.0690918,0.45477295,0.8344116
1601135349823,271,0.064941406,0.61151123,0.5282593
1601135349824,272,0.041015625,0.3925171,0.6696167
1601135349824,273,0.06933594,0.5162964,0.6222534
1601135349824,274,0.064941406,0.61151123,0.5282593
1601135349824,275,-0.18432617,0.47210693,0.7850952
1601135349824,276,-0.18432617,0.47210693,0.7850952
1601135349825,277,0.041015625,0.3925171,0.6696167
1601135349825,278,0.0041503906,0.69281006,0.5241089
1601135349825,279,0.064941406,0.61151123,0.5282593
1601135349825,280,0.064941406,0.61151123,0.5282593
1601135349825,281,0.11621094,0.40057373,0.6622925
1601135349825,282,0.041015625,0.3925171,0.6696167
1601135349826,283,0.11621094,0.40057373,0.6622925
1601135349826,284,0.01171875,0.61395264,0.6754761
1601135349826,285,0.0690918,0.45477295,0.8344116
1601135349826,286,0.0041503906,0.69281006,0.5241089
1601135349826,287,0.06933594,0.5162964,0.6222534
1601135349826,288,0.23730469,0.88739014,0.480896
1601135349827,289,0.0690918,0.45477295,0.8344116
1601135349829,290,0.0041503906,0.69281006,0.5241089
1601135349829,291,0.01171875,0.61395264,0.6754761
1601135349834,292,0.11621094,0.40057373,0.6622925
1601135349834,293,0.064941406,0.61151123,0.5282593
1601135349834,294,0.23730469,0.88739014,0.480896
1601135349835,295,0.041015625,0.3925171,0.6696167
1601135349835,296,0.0041503906,0.69281006,0.5241089
1601135349835,297,0.01171875,0.61395264,0.6754761
1601135349835,298,0.01171875,0.61395264,0.6754761
1601135349835,299,0.23730469,0.88739014,0.480896
1601135349835,300,0.041015625,0.3925171,0.6696167
1601135349835,301,0.06933594,0.5162964,0.6222534
1601135349843,302,0.11621094,0.40057373,0.6622925
1601135349843,303,0.064941406,0.61151123,0.5282593
1601135349843,304,0.11621094,0.40057373,0.6622925
1601135349843,305,0.23730469,0.88739014,0.480896
1601135349843,306,0.06933594,0.5162964,0.6222534
1601135349843,307,0.041015625,0.3925171,0.6696167
1601135349844,308,0.06933594,0.5162964,0.6222534
1601135349844,309,0.064941406,0.61151123,0.5282593
1601135349844,310,0.11621094,0.40057373,0.6622925
1601135349844,311,0.23730469,0.88739014,0.480896
1601135349844,312,0.064941406,0.61151123,0.5282593
1601135349844,313,0.23730469,0.88739014,0.480896
1601135349845,314,0.041015625,0.3925171,0.6696167
1601135349845,315,0.041015625,0.3925171,0.6696167
1601135349845,316,0.11621094,0.40057373,0.6622925
1601135349845,317,0.11621094,0.40057373,0.6622925
1601135349845,318,0.23730469,0.88739014,0.480896
1601135349846,319,0.23730469,0.88739014,0.480896
1601135352138,320,0.2590332,0.90423584,0.45941162
1601135352142,321,0.2590332,0.90423584,0.45941162
1601135352142,322,0.2590332,0.90423584,0.45941162
1601135352142,323,0.2590332,0.90423584,0.45941162
1601135352142,324,0.2590332,0.90423584,0.45941162
1601135352144,325,0.2590332,0.90423584,0.45941162
1601135352145,326,0.21704102,0.81365967,0.51190186
1601135352145,327,0.21704102,0.81365967,0.51190186
1601135352161,328,0.21704102,0.81365967,0.51190186
1601135352161,329,0.2590332,0.90423584,0.45941162
1601135352161,330,0.21704102,0.81365967,0.51190186
1601135352161,331,0.2590332,0.90423584,0.45941162
1601135352161,332,0.18823242,0.79315186,0.46795654
1601135352162,333,0.21704102,0.81365967,0.51190186
1601135352166,334,0.18823242,0.79315186,0.46795654
1601135352166,335,0.18823242,0.79315186,0.46795654
1601135352166,336,0.2590332,0.90423584,0.45941162
1601135352167,337,0.24023438,0.774353,0.5553589
1601135352167,338,0.18823242,0.79315186,0.46795654
1601135352167,339,0.21704102,0.81365967,0.51190186
1601135352167,340,0.21704102,0.81365967,0.51190186
1601135352167,341,0.18823242,0.79315186,0.46795654
1601135352168,342,0.18823242,0.79315186,0.46795654
1601135352168,343,0.24023438,0.774353,0.5553589
1601135352168,344,0.21704102,0.81365967,0.51190186
1601135352168,345,0.3461914,0.6967163,0.66448975
1601135352168,346,0.24023438,0.774353,0.5553589
1601135352168,347,0.24023438,0.774353,0.5553589
1601135352168,348,0.18823242,0.79315186,0.46795654
1601135352168,349,0.24023438,0.774353,0.5553589
1601135352170,350,0.24023438,0.774353,0.5553589
1601135352170,351,0.3461914,0.6967163,0.66448975
1601135352170,352,0.2590332,0.90423584,0.45941162
1601135352171,353,0.24023438,0.774353,0.5553589
1601135352171,354,0.21704102,0.81365967,0.51190186
1601135352171,355,0.3305664,0.5963745,0.55023193
1601135352171,356,0.3461914,0.6967163,0.66448975
1601135352178,357,0.3461914,0.6967163,0.66448975
1601135352179,358,0.3305664,0.5963745,0.55023193
1601135352180,359,0.3461914,0.6967163,0.66448975
1601135352180,360,0.06958008,0.39569092,0.6593628
1601135352180,361,0.21704102,0.81365967,0.51190186
1601135352180,362,0.3461914,0.6967163,0.66448975
1601135352180,363,-0.13720703,0.12347412,-0.19903564
1601135352180,364,0.18823242,0.79315186,0.46795654
1601135352180,365,0.4802246,1.6698608,-0.13140869
1601135352180,366,0.24023438,0.774353,0.5553589
1601135352192,367,0.3305664,0.5963745,0.55023193
1601135352193,368,0.3461914,0.6967163,0.66448975
1601135352193,369,0.18823242,0.79315186,0.46795654
1601135352193,370,0.06958008,0.39569092,0.6593628
1601135352193,371,0.18823242,0.79315186,0.46795654
1601135352193,372,0.3305664,0.5963745,0.55023193
1601135352193,373,0.3305664,0.5963745,0.55023193
1601135352193,374,0.83374023,0.6559448,0.4562378
1601135352193,375,0.06958008,0.39569092,0.6593628
1601135352193,376,0.3461914,0.6967163,0.66448975
1601135352193,377,0.24023438,0.774353,0.5553589
1601135352195,378,0.3461914,0.6967163,0.66448975
1601135352195,379,-0.13720703,0.12347412,-0.19903564
1601135352195,380,0.24023438,0.774353,0.5553589
1601135352198,381,0.3305664,0.5963745,0.55023193
1601135352199,382,0.23266602,0.7716675,0.23602295
1601135352199,383,-0.13720703,0.12347412,-0.19903564
1601135352199,384,0.3461914,0.6967163,0.66448975
1601135352199,385,0.3305664,0.5963745,0.55023193
1601135352199,386,0.3305664,0.5963745,0.55023193
1601135352203,387,0.06958008,0.39569092,0.6593628
1601135352203,388,0.3305664,0.5963745,0.55023193
1601135352203,389,-0.13720703,0.12347412,-0.19903564
1601135352203,390,0.4802246,1.6698608,-0.13140869
1601135352203,391,0.06958008,0.39569092,0.6593628
1601135352203,392,-0.009765625,0.8410034,0.27215576
1601135352203,393,-0.13720703,0.12347412,-0.19903564
1601135352203,394,0.06958008,0.39569092,0.6593628
1601135352204,395,0.3305664,0.5963745,0.55023193
1601135352204,396,0.4802246,1.6698608,-0.13140869
1601135352204,397,0.4802246,1.6698608,-0.13140869
1601135352204,398,0.83374023,0.6559448,0.4562378
1601135352204,399,0.06958008,0.39569092,0.6593628
1601135352204,400,0.23266602,0.7716675,0.23602295
1601135352204,401,0.06958008,0.39569092,0.6593628
1601135352207,402,0.32861328,0.6403198,0.5661011
1601135352207,403,0.4802246,1.6698608,-0.13140869
1601135352207,404,-0.13720703,0.12347412,-0.19903564
1601135352207,405,0.83374023,0.6559448,0.4562378
1601135352207,406,0.83374023,0.6559448,0.4562378
1601135352208,407,0.06958008,0.39569092,0.6593628
1601135352208,408,0.4802246,1.6698608,-0.13140869
1601135352208,409,0.83374023,0.6559448,0.4562378
1601135352208,410,-0.009765625,0.8410034,0.27215576
1601135352208,411,0.83374023,0.6559448,0.4562378
1601135352217,412,0.06958008,0.39569092,0.6593628
1601135352218,413,0.33129883,0.98602295,0.416687
1601135352219,414,0.23266602,0.7716675,0.23602295
1601135352219,415,0.23266602,0.7716675,0.23602295
1601135352221,416,-0.13720703,0.12347412,-0.19903564
1601135352221,417,-0.13720703,0.12347412,-0.19903564
1601135352221,418,-0.13720703,0.12347412,-0.19903564
1601135352221,419,0.23266602,0.7716675,0.23602295
1601135352221,420,0.32861328,0.6403198,0.5661011
1601135352221,421,0.4802246,1.6698608,-0.13140869
1601135352222,422,0.33129883,0.98602295,0.416687
1601135352222,423,0.2199707,0.82855225,0.39520264
1601135352222,424,-0.009765625,0.8410034,0.27215576
1601135352222,425,0.2199707,0.82855225,0.39520264
1601135352222,426,0.4802246,1.6698608,-0.13140869
1601135352222,427,0.4802246,1.6698608,-0.13140869
1601135352222,428,0.23266602,0.7716675,0.23602295
1601135352222,429,-0.009765625,0.8410034,0.27215576
1601135352222,430,-0.13720703,0.12347412,-0.19903564
1601135352222,431,0.83374023,0.6559448,0.4562378
1601135352230,432,0.32861328,0.6403198,0.5661011
1601135352231,433,0.33398438,0.7597046,0.3834839
1601135352232,434,0.83374023,0.6559448,0.4562378
1601135352232,435,0.33129883,0.98602295,0.416687
1601135352232,436,0.33398438,0.7597046,0.3834839
1601135352232,437,0.83374023,0.6559448,0.4562378
1601135352232,438,0.37573242,0.80633545,0.36956787
1601135352233,439,0.2199707,0.82855225,0.39520264
1601135352233,440,-0.009765625,0.8410034,0.27215576
1601135352233,441,0.33398438,0.7597046,0.3834839
1601135352233,442,-0.009765625,0.8410034,0.27215576
1601135352233,443,0.37573242,0.80633545,0.36956787
1601135352233,444,0.4802246,1.6698608,-0.13140869
1601135352234,445,0.32861328,0.6403198,0.5661011
1601135352234,446,0.32861328,0.6403198,0.5661011
1601135352234,447,0.83374023,0.6559448,0.4562378
1601135352234,448,0.23266602,0.7716675,0.23602295
1601135352234,449,0.32861328,0.6403198,0.5661011
1601135352234,450,0.23266602,0.7716675,0.23602295
1601135352234,451,0.38305664,0.81903076,0.43548584
1601135352234,452,0.38305664,0.81903076,0.43548584
1601135352234,453,0.23266602,0.7716675,0.23602295
1601135352234,454,0.36083984,0.5050659,0.4713745
1601135352234,455,0.33129883,0.98602295,0.416687
1601135352235,456,0.23266602,0.7716675,0.23602295
1601135352235,457,-0.009765625,0.8410034,0.27215576
1601135352235,458,-0.009765625,0.8410034,0.27215576
1601135352235,459,0.33129883,0.98602295,0.416687
1601135352235,460,-0.009765625,0.8410034,0.27215576
1601135352235,461,0.10205078,0.41326904,0.64471436
1601135352235,462,0.32861328,0.6403198,0.5661011
1601135352235,463,0.37573242,0.80633545,0.36956787
1601135352235,464,0.32861328,0.6403198,0.5661011
1601135352235,465,0.05419922,0.8685913,0.47772217
1601135352235,466,0.2199707,0.82855225,0.39520264
1601135352235,467,0.33129883,0.98602295,0.416687
1601135352235,468,0.32861328,0.6403198,0.5661011
1601135352236,469,0.36083984,0.5050659,0.4713745
1601135352236,470,0.2199707,0.82855225,0.39520264
1601135352236,471,-0.009765625,0.8410034,0.27215576
1601135352236,472,0.30200195,1.7221069,0.14422607
1601135352236,473,0.33129883,0.98602295,0.416687
1601135352236,474,0.38305664,0.81903076,0.43548584
1601135352236,475,0.0,0.039978027,0.670105
1601135352237,476,0.33129883,0.98602295,0.416687
1601135352237,477,0.33129883,0.98602295,0.416687
1601135352238,478,0.33398438,0.7597046,0.3834839
1601135352238,479,0.10205078,0.41326904,0.64471436
1601135352251,480,0.05419922,0.8685913,0.47772217
1601135352251,481,0.2199707,0.82855225,0.39520264
1601135352251,482,0.2199707,0.82855225,0.39520264
1601135352252,483,0.1538086,0.022155762,0.8226929
1601135352252,484,0.33398438,0.7597046,0.3834839
1601135352252,485,0.2199707,0.82855225,0.39520264
1601135352252,486,0.37573242,0.80633545,0.36956787
1601135352252,487,0.2199707,0.82855225,0.39520264
1601135352252,488,0.33398438,0.7597046,0.3834839
1601135352252,489,0.32861328,0.6403198,0.5661011
1601135352252,490,0.37573242,0.80633545,0.36956787
1601135352252,491,0.36083984,0.5050659,0.4713745
1601135352252,492,0.37573242,0.80633545,0.36956787
1601135352253,493,0.10205078,0.41326904,0.64471436
1601135352253,494,0.33398438,0.7597046,0.3834839
1601135352253,495,0.05419922,0.8685913,0.47772217
1601135352253,496,0.7297363,1.4286499,0.12738037
1601135352253,497,0.38305664,0.81903076,0.43548584
1601135352253,498,0.37573242,0.80633545,0.36956787
1601135352254,499,0.30200195,1.7221069,0.14422607
1601135352254,500,0.33129883,0.98602295,0.416687
1601135352254,501,0.0,0.039978027,0.670105
1601135352254,502,0.33398438,0.7597046,0.3834839
1601135352254,503,0.38305664,0.81903076,0.43548584
1601135352254,504,0.30200195,1.7221069,0.14422607
1601135352254,505,0.33398438,0.7597046,0.3834839
1601135352254,506,-0.14257812,0.5175171,0.51239014
1601135352255,507,0.36083984,0.5050659,0.4713745
1601135352255,508,0.0,0.039978027,0.670105
1601135352255,509,0.38305664,0.81903076,0.43548584
1601135352255,510,0.10205078,0.41326904,0.64471436
1601135352255,511,0.1538086,0.022155762,0.8226929
1601135352255,512,0.1538086,0.022155762,0.8226929
1601135352255,513,0.37573242,0.80633545,0.36956787
1601135352255,514,0.36083984,0.5050659,0.4713745
1601135352255,515,0.37573242,0.80633545,0.36956787
1601135352255,516,0.10229492,0.41571045,0.28167725
1601135352255,517,0.2199707,0.82855225,0.39520264
1601135352255,518,0.36083984,0.5050659,0.4713745
1601135352255,519,0.33398438,0.7597046,0.3834839
1601135352256,520,0.38305664,0.81903076,0.43548584
1601135352256,521,0.38305664,0.81903076,0.43548584
1601135352259,522,0.36083984,0.5050659,0.4713745
1601135352266,523,0.10205078,0.41326904,0.64471436
1601135352266,524,0.57592773,1.0604858,0.5548706
1601135352266,525,0.7297363,1.4286499,0.12738037
1601135352266,526,0.7297363,1.4286499,0.12738037
1601135352266,527,0.37573242,0.80633545,0.36956787
1601135352266,528,0.17749023,0.97650146,0.7719116
1601135352266,529,0.10205078,0.41326904,0.64471436
1601135352267,530,0.36083984,0.5050659,0.4713745
1601135352267,531,0.05419922,0.8685913,0.47772217
1601135352267,532,0.10205078,0.41326904,0.64471436
1601135352267,533,0.30200195,1.7221069,0.14422607
1601135352267,534,0.38305664,0.81903076,0.43548584
1601135352267,535,0.38305664,0.81903076,0.43548584
1601135352267,536,-0.14257812,0.5175171,0.51239014
1601135352267,537,0.05419922,0.8685913,0.47772217
1601135352267,538,0.0,0.039978027,0.670105
1601135352268,539,0.36083984,0.5050659,0.4713745
1601135352268,540,0.36083984,0.5050659,0.4713745
1601135352268,541,0.1538086,0.022155762,0.8226929
1601135352294,542,-0.14257812,0.5175171,0.51239014
1601135352295,543,0.10205078,0.8239136,0.7435913
1601135352296,544,0.10205078,0.41326904,0.64471436
1601135352296,545,0.30200195,1.7221069,0.14422607
1601135352296,546,0.38232422,0.5175171,0.51068115
1601135352296,547,0.10205078,0.41326904,0.64471436
1601135352296,548,0.10229492,0.41571045,0.28167725
1601135352296,549,0.05419922,0.8685913,0.47772217
1601135352296,550,0.10205078,0.41326904,0.64471436
1601135352296,551,0.05419922,0.8685913,0.47772217
1601135352296,552,0.30200195,1.7221069,0.14422607
1601135352296,553,0.30200195,1.7221069,0.14422607
1601135352296,554,0.05419922,0.8685913,0.47772217
1601135352296,555,0.05419922,0.8685913,0.47772217
1601135352296,556,0.0,0.039978027,0.670105
1601135352296,557,0.7297363,1.4286499,0.12738037
1601135352296,558,0.57592773,1.0604858,0.5548706
1601135352297,559,0.05419922,0.8685913,0.47772217
1601135352297,560,0.10229492,0.41571045,0.28167725
1601135352297,561,0.0,0.039978027,0.670105
1601135352297,562,0.0,0.039978027,0.670105
1601135352297,563,0.1538086,0.022155762,0.8226929
1601135352297,564,0.1538086,0.022155762,0.8226929
1601135352297,565,0.1538086,0.022155762,0.8226929
1601135352297,566,0.7297363,1.4286499,0.12738037
1601135352297,567,0.30200195,1.7221069,0.14422607
1601135352297,568,0.7297363,1.4286499,0.12738037
1601135352297,569,0.30200195,1.7221069,0.14422607
1601135352297,570,-0.14257812,0.5175171,0.51239014
1601135352297,571,0.57592773,1.0604858,0.5548706
1601135352297,572,0.7297363,1.4286499,0.12738037
1601135352297,573,0.17749023,0.97650146,0.7719116
1601135352297,574,0.40551758,0.6913452,0.55389404
1601135352297,575,-0.14257812,0.5175171,0.51239014
1601135352297,576,0.30200195,1.7221069,0.14422607
1601135352298,577,-0.14257812,0.5175171,0.51239014
1601135352298,578,0.0,0.039978027,0.670105
1601135352298,579,0.10229492,0.41571045,0.28167725
1601135352298,580,0.10229492,0.41571045,0.28167725
1601135352298,581,0.1538086,0.022155762,0.8226929
1601135352298,582,0.10229492,0.41571045,0.28167725
1601135352298,583,0.17749023,0.97650146,0.7719116
1601135352298,584,0.0,0.039978027,0.670105
1601135352298,585,0.0,0.039978027,0.670105
1601135352298,586,-0.14257812,0.5175171,0.51239014
1601135352298,587,0.10205078,0.8239136,0.7435913
1601135352298,588,0.57592773,1.0604858,0.5548706
1601135352299,589,0.1538086,0.022155762,0.8226929
1601135352299,590,0.57592773,1.0604858,0.5548706
1601135352299,591,0.17749023,0.97650146,0.7719116
1601135352299,592,0.7297363,1.4286499,0.12738037
1601135352299,593,0.1538086,0.022155762,0.8226929
1601135352299,594,0.10205078,0.8239136,0.7435913
1601135352299,595,0.38232422,0.5175171,0.51068115
1601135352299,596,0.10229492,0.41571045,0.28167725
1601135352299,597,0.7297363,1.4286499,0.12738037
1601135352299,598,0.38232422,0.5175171,0.51068115
1601135352299,599,0.40551758,0.6913452,0.55389404
1601135352299,600,0.10205078,0.8239136,0.7435913
1601135352300,601,0.17749023,0.97650146,0.7719116
1601135352300,602,0.57592773,1.0604858,0.5548706
1601135352300,603,0.7297363,1.4286499,0.12738037
1601135352300,604,-0.14257812,0.5175171,0.51239014
1601135352300,605,0.17749023,0.97650146,0.7719116
1601135352300,606,0.10205078,0.8239136,0.7435913
1601135352300,607,0.57592773,1.0604858,0.5548706
1601135352300,608,-0.14257812,0.5175171,0.51239014
1601135352300,609,0.38232422,0.5175171,0.51068115
1601135352301,610,0.40551758,0.6913452,0.55389404
1601135352301,611,-0.14257812,0.5175171,0.51239014
1601135352301,612,0.10229492,0.41571045,0.28167725
1601135352302,613,0.10205078,0.8239136,0.7435913
1601135352307,614,0.38232422,0.5175171,0.51068115
1601135352307,615,0.10229492,0.41571045,0.28167725
1601135352307,616,0.40551758,0.6913452,0.55389404
1601135352307,617,0.10229492,0.41571045,0.28167725
1601135352307,618,0.57592773,1.0604858,0.5548706
1601135352307,619,0.17749023,0.97650146,0.7719116
1601135352307,620,0.57592773,1.0604858,0.5548706
1601135352307,621,0.57592773,1.0604858,0.5548706
1601135352307,622,0.40551758,0.6913452,0.55389404
1601135352307,623,0.17749023,0.97650146,0.7719116
1601135352308,624,0.10205078,0.8239136,0.7435913
1601135352308,625,0.17749023,0.97650146,0.7719116
1601135352308,626,0.10205078,0.8239136,0.7435913
1601135352308,627,0.10205078,0.8239136,0.7435913
1601135352312,628,0.38232422,0.5175171,0.51068115
1601135352312,629,0.17749023,0.97650146,0.7719116
1601135352312,630,0.38232422,0.5175171,0.51068115
1601135352312,631,0.38232422,0.5175171,0.51068115
1601135352312,632,0.38232422,0.5175171,0.51068115
1601135352312,633,0.40551758,0.6913452,0.55389404
1601135352312,634,0.10205078,0.8239136,0.7435913
1601135352314,635,0.40551758,0.6913452,0.55389404
1601135352315,636,0.40551758,0.6913452,0.55389404
1601135352316,637,0.38232422,0.5175171,0.51068115
1601135352316,638,0.40551758,0.6913452,0.55389404
1601135352316,639,0.40551758,0.6913452,0.55389404
1601135354709,640,0.15722656,0.557312,0.44647217
1601135354721,641,0.15722656,0.557312,0.44647217
1601135354723,642,0.17358398,0.52020264,0.39178467
1601135354723,643,0.15722656,0.557312,0.44647217
1601135354723,644,0.15722656,0.557312,0.44647217
1601135354723,645,0.15722656,0.557312,0.44647217
1601135354723,646,0.15722656,0.557312,0.44647217
1601135354723,647,0.17358398,0.52020264,0.39178467
1601135354724,648,0.15722656,0.557312,0.44647217
1601135354724,649,0.15722656,0.557312,0.44647217
1601135354724,650,0.15722656,0.557312,0.44647217
1601135354724,651,0.17358398,0.52020264,0.39178467
1601135354724,652,0.17358398,0.52020264,0.39178467
1601135354724,653,0.17358398,0.52020264,0.39178467
1601135354732,654,0.17358398,0.52020264,0.39178467
1601135354732,655,0.34643555,0.61053467,0.81781006
1601135354733,656,0.17358398,0.52020264,0.39178467
1601135354733,657,0.34643555,0.61053467,0.81781006
1601135354733,658,0.17358398,0.52020264,0.39178467
1601135354733,659,0.34643555,0.61053467,0.81781006
1601135354734,660,0.15722656,0.557312,0.44647217
1601135354734,661,0.34643555,0.61053467,0.81781006
1601135354734,662,0.43945312,0.7387085,0.72454834
1601135354742,663,0.34643555,0.61053467,0.81781006
1601135354743,664,0.34643555,0.61053467,0.81781006
1601135354743,665,0.43945312,0.7387085,0.72454834
1601135354743,666,0.34643555,0.61053467,0.81781006
1601135354744,667,0.34643555,0.61053467,0.81781006
1601135354744,668,0.17358398,0.52020264,0.39178467
1601135354744,669,0.43945312,0.7387085,0.72454834
1601135354745,670,0.17358398,0.52020264,0.39178467
1601135354745,671,0.34814453,0.7147827,0.56073
1601135354745,672,0.34814453,0.7147827,0.56073
1601135354745,673,0.34643555,0.61053467,0.81781006
1601135354745,674,0.265625,0.66204834,0.496521
1601135354755,675,0.43945312,0.7387085,0.72454834
1601135354758,676,0.34643555,0.61053467,0.81781006
1601135354759,677,0.34814453,0.7147827,0.56073
1601135354759,678,0.34814453,0.7147827,0.56073
1601135354759,679,0.43945312,0.7387085,0.72454834
1601135354759,680,0.265625,0.66204834,0.496521
1601135354759,681,0.34814453,0.7147827,0.56073
1601135354759,682,0.296875,0.5907593,0.50042725
1601135354759,683,0.43945312,0.7387085,0.72454834
1601135354760,684,0.30273438,0.7094116,0.61224365
1601135354760,685,0.296875,0.5907593,0.50042725
1601135354760,686,0.2175293,0.6749878,0.6442261
1601135354761,687,0.34814453,0.7147827,0.56073
1601135354762,688,0.265625,0.66204834,0.496521
1601135354762,689,0.265625,0.66204834,0.496521
1601135354762,690,0.43945312,0.7387085,0.72454834
1601135354762,691,0.265625,0.66204834,0.496521
1601135354762,692,0.43945312,0.7387085,0.72454834
1601135354763,693,0.43945312,0.7387085,0.72454834
1601135354763,694,0.43945312,0.7387085,0.72454834
1601135354763,695,0.37353516,0.5824585,0.57196045
1601135354763,696,0.34814453,0.7147827,0.56073
1601135354763,697,0.265625,0.66204834,0.496521
1601135354763,698,0.296875,0.5907593,0.50042725
1601135354763,699,0.30273438,0.7094116,0.61224365
1601135354763,700,0.296875,0.5907593,0.50042725
1601135354766,701,0.30273438,0.7094116,0.61224365
1601135354766,702,0.34814453,0.7147827,0.56073
1601135354766,703,0.265625,0.66204834,0.496521
1601135354767,704,0.296875,0.5907593,0.50042725
1601135354776,705,0.34814453,0.7147827,0.56073
1601135354776,706,0.30273438,0.7094116,0.61224365
1601135354776,707,0.2175293,0.6749878,0.6442261
1601135354776,708,0.265625,0.66204834,0.496521
1601135354776,709,0.296875,0.5907593,0.50042725
1601135354777,710,0.31689453,0.6859741,0.56707764
1601135354777,711,0.296875,0.5907593,0.50042725
1601135354777,712,0.2175293,0.6749878,0.6442261
1601135354777,713,0.34814453,0.7147827,0.56073
1601135354777,714,0.27026367,0.7094116,0.62835693
1601135354777,715,0.30273438,0.7094116,0.61224365
1601135354778,716,0.265625,0.66204834,0.496521
1601135354778,717,0.2175293,0.6749878,0.6442261
1601135354778,718,0.30273438,0.7094116,0.61224365
1601135354778,719,0.296875,0.5907593,0.50042725
1601135354779,720,0.2175293,0.6749878,0.6442261
1601135354782,721,0.37353516,0.5824585,0.57196045
1601135354782,722,0.265625,0.66204834,0.496521
1601135354782,723,0.296875,0.5907593,0.50042725
1601135354782,724,0.37353516,0.5824585,0.57196045
1601135354783,725,0.30273438,0.7094116,0.61224365
1601135354783,726,0.2175293,0.6749878,0.6442261
1601135354783,727,0.2175293,0.6749878,0.6442261
1601135354783,728,0.30273438,0.7094116,0.61224365
1601135354783,729,0.30273438,0.7094116,0.61224365
1601135354783,730,0.2175293,0.6749878,0.6442261
1601135354783,731,0.37353516,0.5824585,0.57196045
1601135354786,732,0.296875,0.5907593,0.50042725
1601135354794,733,0.37353516,0.5824585,0.57196045
1601135354794,734,0.31689453,0.6859741,0.56707764
1601135354795,735,0.37353516,0.5824585,0.57196045
1601135354795,736,0.37353516,0.5824585,0.57196045
1601135354795,737,0.31689453,0.6859741,0.56707764
1601135354795,738,0.31689453,0.6859741,0.56707764
1601135354795,739,0.2175293,0.6749878,0.6442261
1601135354795,740,0.31689453,0.6859741,0.56707764
1601135354795,741,0.1706543,0.5883179,0.6154175
1601135354795,742,0.27026367,0.7094116,0.62835693
1601135354795,743,0.37353516,0.5824585,0.57196045
1601135354795,744,0.1706543,0.5883179,0.6154175
1601135354796,745,0.37353516,0.5824585,0.57196045
1601135354796,746,0.31689453,0.6859741,0.56707764
1601135354796,747,0.27026367,0.7094116,0.62835693
1601135354796,748,0.31689453,0.6859741,0.56707764
1601135354796,749,0.27026367,0.7094116,0.62835693
1601135354796,750,0.30273438,0.7094116,0.61224365
1601135354796,751,0.19848633,0.4315796,0.510437
1601135354796,752,0.2175293,0.6749878,0.6442261
1601135354796,753,0.31689453,0.6859741,0.56707764
1601135354804,754,0.19848633,0.4315796,0.510437
1601135354805,755,0.31689453,0.6859741,0.56707764
1601135354805,756,0.1706543,0.5883179,0.6154175
1601135354805,757,0.27026367,0.7094116,0.62835693
1601135354805,758,0.35205078,0.8168335,0.4725952
1601135354805,759,0.27026367,0.7094116,0.62835693
1601135354805,760,0.35205078,0.8168335,0.4725952
1601135354805,761,0.37353516,0.5824585,0.57196045
1601135354805,762,0.1706543,0.5883179,0.6154175
1601135354806,763,0.27026367,0.7094116,0.62835693
1601135354806,764,0.31689453,0.6859741,0.56707764
1601135354806,765,0.19848633,0.4315796,0.510437
1601135354806,766,0.27026367,0.7094116,0.62835693
1601135354806,767,0.23608398,0.82806396,0.55023193
1601135354806,768,0.1706543,0.5883179,0.6154175
1601135354806,769,0.084472656,0.8029175,0.68255615
1601135354806,770,0.1706543,0.5883179,0.6154175
1601135354806,771,0.23608398,0.82806396,0.55023193
1601135354807,772,0.27026367,0.7094116,0.62835693
1601135354807,773,0.27026367,0.7094116,0.62835693
1601135354808,774,0.35205078,0.8168335,0.4725952
1601135354808,775,0.1706543,0.5883179,0.6154175
1601135354808,776,0.1706543,0.5883179,0.6154175
1601135354808,777,0.19848633,0.4315796,0.510437
1601135354821,778,0.19848633,0.4315796,0.510437
1601135354822,779,0.19848633,0.4315796,0.510437
1601135354823,780,0.084472656,0.8029175,0.68255615
1601135354823,781,0.35205078,0.8168335,0.4725952
1601135354823,782,0.1706543,0.5883179,0.6154175
1601135354823,783,0.080566406,0.75775146,0.6281128
1601135354823,784,0.23608398,0.82806396,0.55023193
1601135354823,785,0.19848633,0.4315796,0.510437
1601135354823,786,0.19848633,0.4315796,0.510437
1601135354823,787,0.084472656,0.8029175,0.68255615
1601135354823,788,0.1706543,0.5883179,0.6154175
1601135354824,789,0.080566406,0.75775146,0.6281128
1601135354824,790,0.35205078,0.8168335,0.4725952
1601135354824,791,0.080566406,0.75775146,0.6281128
1601135354824,792,0.23608398,0.82806396,0.55023193
1601135354824,793,0.22070312,0.6395874,0.5680542
1601135354824,794,0.22070312,0.6395874,0.5680542
1601135354824,795,0.35205078,0.8168335,0.4725952
1601135354824,796,0.18725586,0.70648193,0.59173584
1601135354825,797,0.35205078,0.8168335,0.4725952
1601135354825,798,0.23608398,0.82806396,0.55023193
1601135354825,799,0.18725586,0.70648193,0.59173584
1601135354825,800,0.19848633,0.4315796,0.510437
1601135354825,801,0.084472656,0.8029175,0.68255615
1601135354825,802,0.35205078,0.8168335,0.4725952
1601135354825,803,0.084472656,0.8029175,0.68255615
1601135354825,804,0.18725586,0.7057495,0.5704956
1601135354826,805,0.23608398,0.82806396,0.55023193
1601135354829,806,0.084472656,0.8029175,0.68255615
1601135354829,807,0.22070312,0.6395874,0.5680542
1601135354830,808,0.080566406,0.75775146,0.6281128
1601135354831,809,0.18725586,0.70648193,0.59173584
1601135354831,810,0.23608398,0.82806396,0.55023193
1601135354831,811,0.22070312,0.6395874,0.5680542
1601135354831,812,0.080566406,0.75775146,0.6281128
1601135354831,813,0.26635742,0.6156616,0.51971436
1601135354831,814,0.19848633,0.4315796,0.510437
1601135354831,815,0.23608398,0.82806396,0.55023193
1601135354835,816,0.084472656,0.8029175,0.68255615
1601135354835,817,0.35205078,0.8168335,0.4725952
1601135354835,818,0.18725586,0.7057495,0.5704956
1601135354836,819,0.18725586,0.7057495,0.5704956
1601135354836,820,0.23608398,0.82806396,0.55023193
1601135354836,821,0.18725586,0.70648193,0.59173584
1601135354836,822,0.22070312,0.6395874,0.5680542
1601135354836,823,0.23242188,0.6613159,0.54486084
1601135354837,824,0.35205078,0.8168335,0.4725952
1601135354837,825,0.080566406,0.75775146,0.6281128
1601135354837,826,0.080566406,0.75775146,0.6281128
1601135354837,827,0.084472656,0.8029175,0.68255615
1601135354839,828,0.084472656,0.8029175,0.68255615
1601135354839,829,0.18725586,0.7057495,0.5704956
1601135354843,830,0.26635742,0.6156616,0.51971436
1601135354843,831,0.14550781,0.8336792,0.5765991
1601135354843,832,0.23608398,0.82806396,0.55023193
1601135354843,833,0.22070312,0.6395874,0.5680542
1601135354843,834,0.26635742,0.6156616,0.51971436
1601135354843,835,0.22070312,0.6395874,0.5680542
1601135354844,836,0.080566406,0.75775146,0.6281128
1601135354844,837,0.18725586,0.70648193,0.59173584
1601135354844,838,0.18725586,0.70648193,0.59173584
1601135354845,839,0.26635742,0.6156616,0.51971436
1601135354851,840,0.080566406,0.75775146,0.6281128
1601135354851,841,0.084472656,0.8029175,0.68255615
1601135354851,842,0.18725586,0.70648193,0.59173584
1601135354851,843,0.23242188,0.6613159,0.54486084
1601135354852,844,0.22070312,0.6395874,0.5680542
1601135354852,845,0.23242188,0.6613159,0.54486084
1601135354852,846,0.18725586,0.7057495,0.5704956
1601135354852,847,0.18725586,0.7057495,0.5704956
1601135354852,848,0.14477539,0.7406616,0.6347046
1601135354853,849,0.23242188,0.6613159,0.54486084
1601135354854,850,0.080566406,0.75775146,0.6281128
1601135354864,851,0.14550781,0.8336792,0.5765991
1601135354865,852,0.26635742,0.6156616,0.51971436
1601135354865,853,0.26635742,0.6156616,0.51971436
1601135354865,854,0.18725586,0.70648193,0.59173584
1601135354865,855,0.061035156,0.6359253,1.0040894
1601135354865,856,0.14550781,0.8336792,0.5765991
1601135354865,857,0.22070312,0.6395874,0.5680542
1601135354865,858,0.09741211,0.56292725,1.0917358
1601135354865,859,0.18725586,0.7057495,0.5704956
1601135354866,860,0.18725586,0.70648193,0.59173584
1601135354866,861,0.23242188,0.6613159,0.54486084
1601135354866,862,0.18725586,0.7057495,0.5704956
1601135354866,863,0.14477539,0.7406616,0.6347046
1601135354866,864,0.22070312,0.6395874,0.5680542
1601135354866,865,0.14550781,0.8336792,0.5765991
1601135354866,866,0.14550781,0.8336792,0.5765991
1601135354867,867,0.061035156,0.6359253,1.0040894
1601135354867,868,0.14477539,0.7406616,0.6347046
1601135354867,869,0.20507812,0.6376343,0.6976929
1601135354867,870,0.23242188,0.6613159,0.54486084
1601135354872,871,0.18725586,0.7057495,0.5704956
1601135354872,872,0.18725586,0.70648193,0.59173584
1601135354872,873,0.14550781,0.8336792,0.5765991
1601135354872,874,0.09741211,0.56292725,1.0917358
1601135354872,875,0.14477539,0.7406616,0.6347046
1601135354873,876,0.26635742,0.6156616,0.51971436
1601135354873,877,0.061035156,0.6359253,1.0040894
1601135354873,878,0.23242188,0.6613159,0.54486084
1601135354873,879,0.26635742,0.6156616,0.51971436
1601135354880,880,0.23242188,0.6613159,0.54486084
1601135354880,881,0.14477539,0.7406616,0.6347046
1601135354881,882,0.26635742,0.6156616,0.51971436
1601135354881,883,0.18725586,0.7057495,0.5704956
1601135354881,884,0.19677734,0.61712646,0.3937378
1601135354881,885,0.061035156,0.6359253,1.0040894
1601135354882,886,0.20507812,0.6376343,0.6976929
1601135354882,887,0.09741211,0.56292725,1.0917358
1601135354882,888,0.09741211,0.56292725,1.0917358
1601135354882,889,0.14477539,0.7406616,0.6347046
1601135354883,890,0.20507812,0.6376343,0.6976929
1601135354883,891,0.23242188,0.6613159,0.54486084
1601135354883,892,0.061035156,0.6359253,1.0040894
1601135354883,893,0.26635742,0.6156616,0.51971436
1601135354887,894,0.14550781,0.8336792,0.5765991
1601135354888,895,0.061035156,0.6359253,1.0040894
1601135354888,896,0.14550781,0.8336792,0.5765991
1601135354888,897,0.19677734,0.61712646,0.3937378
1601135354888,898,0.20507812,0.6376343,0.6976929
1601135354888,899,0.2211914,0.3546753,0.5150757
1601135354889,900,0.14477539,0.7406616,0.6347046
1601135354889,901,0.09741211,0.56292725,1.0917358
1601135354889,902,0.061035156,0.6359253,1.0040894
1601135354889,903,0.14550781,0.8336792,0.5765991
1601135354889,904,0.23242188,0.6613159,0.54486084
1601135354897,905,0.14477539,0.7406616,0.6347046
1601135354897,906,0.2211914,0.3546753,0.5150757
1601135354897,907,0.19677734,0.61712646,0.3937378
1601135354897,908,0.1652832,0.35369873,0.7584839
1601135354897,909,0.19677734,0.61712646,0.3937378
1601135354898,910,0.09741211,0.56292725,1.0917358
1601135354898,911,0.14477539,0.7406616,0.6347046
1601135354898,912,0.09741211,0.56292725,1.0917358
1601135354898,913,0.20507812,0.6376343,0.6976929
1601135354898,914,0.14550781,0.8336792,0.5765991
1601135354906,915,0.061035156,0.6359253,1.0040894
1601135354906,916,0.1652832,0.35369873,0.7584839
1601135354906,917,0.09082031,0.63861084,0.8126831
1601135354906,918,0.2211914,0.3546753,0.5150757
1601135354906,919,0.20507812,0.6376343,0.6976929
1601135354906,920,0.061035156,0.6359253,1.0040894
1601135354906,921,0.20507812,0.6376343,0.6976929
1601135354906,922,0.19677734,0.61712646,0.3937378
1601135354907,923,0.09741211,0.56292725,1.0917358
1601135354914,924,0.19677734,0.61712646,0.3937378
1601135354915,925,0.09741211,0.56292725,1.0917358
1601135354915,926,0.2211914,0.3546753,0.5150757
1601135354915,927,0.1652832,0.35369873,0.7584839
1601135354915,928,0.14477539,0.7406616,0.6347046
1601135354915,929,0.20507812,0.6376343,0.6976929
1601135354915,930,0.1652832,0.35369873,0.7584839
1601135354915,931,0.09082031,0.63861084,0.8126831
1601135354915,932,0.09082031,0.63861084,0.8126831
1601135354915,933,0.2211914,0.3546753,0.5150757
1601135354915,934,0.20507812,0.6376343,0.6976929
1601135354915,935,0.061035156,0.6359253,1.0040894
1601135354915,936,0.2211914,0.3546753,0.5150757
1601135354915,937,0.19677734,0.61712646,0.3937378
1601135354916,938,0.09741211,0.56292725,1.0917358
1601135354921,939,0.19677734,0.61712646,0.3937378
1601135354922,940,0.1652832,0.35369873,0.7584839
1601135354922,941,0.19677734,0.61712646,0.3937378
1601135354922,942,0.1652832,0.35369873,0.7584839
1601135354922,943,0.09082031,0.63861084,0.8126831
1601135354922,944,0.2211914,0.3546753,0.5150757
1601135354922,945,0.20507812,0.6376343,0.6976929
1601135354929,946,0.2211914,0.3546753,0.5150757
1601135354929,947,0.2211914,0.3546753,0.5150757
1601135354937,948,0.09082031,0.63861084,0.8126831
1601135354937,949,0.1652832,0.35369873,0.7584839
1601135354937,950,0.19677734,0.61712646,0.3937378
1601135354938,951,0.09082031,0.63861084,0.8126831
1601135354938,952,0.1652832,0.35369873,0.7584839
1601135354938,953,0.1652832,0.35369873,0.7584839
1601135354938,954,0.2211914,0.3546753,0.5150757
1601135354938,955,0.09082031,0.63861084,0.8126831
1601135354938,956,0.09082031,0.63861084,0.8126831
1601135354938,957,0.09082031,0.63861084,0.8126831
1601135354938,958,0.1652832,0.35369873,0.7584839
1601135354938,959,0.09082031,0.63861084,0.8126831
1601135357234,960,0.16479492,0.40618896,0.88812256
1601135357242,961,0.16479492,0.40618896,0.88812256
1601135357242,962,0.16479492,0.40618896,0.88812256
1601135357243,963,0.14111328,0.34368896,0.6762085
1601135357244,964,0.16479492,0.40618896,0.88812256
1601135357244,965,0.16479492,0.40618896,0.88812256
1601135357255,966,0.16479492,0.40618896,0.88812256
1601135357255,967,0.14111328,0.34368896,0.6762085
1601135357255,968,0.16479492,0.40618896,0.88812256
1601135357255,969,0.14111328,0.34368896,0.6762085
1601135357255,970,0.16479492,0.40618896,0.88812256
1601135357255,971,0.16479492,0.40618896,0.88812256
1601135357255,972,0.16479492,0.40618896,0.88812256
1601135357256,973,0.14111328,0.34368896,0.6762085
1601135357256,974,0.14111328,0.34368896,0.6762085
1601135357256,975,0.009521484,0.48675537,0.90301514
1601135357256,976,0.14111328,0.34368896,0.6762085
1601135357256,977,0.14111328,0.34368896,0.6762085
1601135357257,978,0.009521484,0.48675537,0.90301514
1601135357257,979,0.14111328,0.34368896,0.6762085
1601135357257,980,0.14111328,0.34368896,0.6762085
1601135357257,981,0.14038086,0.43719482,0.9281616
1601135357257,982,0.14111328,0.34368896,0.6762085
1601135357259,983,0.009521484,0.48675537,0.90301514
1601135357260,984,0.009521484,0.48675537,0.90301514
1601135357260,985,0.009521484,0.48675537,0.90301514
1601135357261,986,0.14038086,0.43719482,0.9281616
1601135357263,987,0.009521484,0.48675537,0.90301514
1601135357264,988,0.1472168,0.35784912,0.7328491
1601135357266,989,0.009521484,0.48675537,0.90301514
1601135357266,990,0.14038086,0.43719482,0.9281616
1601135357283,991,0.06665039,0.49188232,0.8378296
1601135357283,992,0.14038086,0.43719482,0.9281616
1601135357283,993,0.009521484,0.48675537,0.90301514
1601135357284,994,0.1472168,0.35784912,0.7328491
1601135357284,995,0.009521484,0.48675537,0.90301514
1601135357284,996,0.1472168,0.35784912,0.7328491
1601135357284,997,0.009521484,0.48675537,0.90301514
1601135357285,998,0.1472168,0.35784912,0.7328491
1601135357285,999,0.14038086,0.43719482,0.9281616
1601135357285,1000,0.06665039,0.49188232,0.8378296
1601135357285,1001,0.14038086,0.43719482,0.9281616
1601135357286,1002,0.14331055,0.38787842,0.87323
1601135357288,1003,0.14038086,0.43719482,0.9281616
1601135357288,1004,0.14038086,0.43719482,0.9281616
1601135357288,1005,0.1472168,0.35784912,0.7328491
1601135357288,1006,0.06665039,0.49188232,0.8378296
1601135357288,1007,0.14038086,0.43719482,0.9281616
1601135357288,1008,0.1472168,0.35784912,0.7328491
1601135357288,1009,0.1472168,0.35784912,0.7328491
1601135357290,1010,0.1472168,0.35784912,0.7328491
1601135357290,1011,0.14038086,0.43719482,0.9281616
1601135357290,1012,0.1472168,0.35784912,0.7328491
1601135357290,1013,0.06665039,0.49188232,0.8378296
1601135357290,1014,0.06665039,0.49188232,0.8378296
1601135357290,1015,0.14331055,0.38787842,0.87323
1601135357290,1016,0.06665039,0.49188232,0.8378296
1601135357290,1017,0.14233398,0.50701904,0.7863159
1601135357290,1018,0.14233398,0.50701904,0.7863159
1601135357290,1019,0.14331055,0.38787842,0.87323
1601135357291,1020,0.06665039,0.49188232,0.8378296
1601135357291,1021,0.09423828,0.51068115,0.791687
1601135357291,1022,0.06665039,0.49188232,0.8378296
1601135357291,1023,0.06665039,0.49188232,0.8378296
1601135357291,1024,0.029296875,0.6005249,0.7909546
1601135357291,1025,0.14331055,0.38787842,0.87323
1601135357291,1026,0.09423828,0.51068115,0.791687
1601135357291,1027,0.14331055,0.38787842,0.87323
1601135357294,1028,0.14331055,0.38787842,0.87323
1601135357294,1029,0.14233398,0.50701904,0.7863159
1601135357295,1030,0.14331055,0.38787842,0.87323
1601135357296,1031,0.14233398,0.50701904,0.7863159
1601135357302,1032,0.09423828,0.51068115,0.791687
1601135357302,1033,0.1472168,0.35784912,0.7328491
1601135357302,1034,0.029296875,0.6005249,0.7909546
1601135357302,1035,0.14331055,0.38787842,0.87323
1601135357302,1036,0.14331055,0.38787842,0.87323
1601135357303,1037,0.21118164,0.36566162,0.7809448
1601135357303,1038,0.14233398,0.50701904,0.7863159
1601135357303,1039,0.029296875,0.6005249,0.7909546
1601135357303,1040,0.14233398,0.50701904,0.7863159
1601135357303,1041,0.09423828,0.51068115,0.791687
1601135357303,1042,0.21118164,0.36566162,0.7809448
1601135357304,1043,0.06665039,0.49188232,0.8378296
1601135357304,1044,0.14233398,0.50701904,0.7863159
1601135357304,1045,0.14233398,0.50701904,0.7863159
1601135357304,1046,0.2109375,0.24945068,0.8475952
1601135357304,1047,0.09423828,0.51068115,0.791687
1601135357305,1048,0.08276367,0.59295654,0.56707764
1601135357309,1049,0.029296875,0.6005249,0.7909546
1601135357309,1050,0.09423828,0.51068115,0.791687
1601135357310,1051,0.14233398,0.50701904,0.7863159
1601135357310,1052,0.21118164,0.36566162,0.7809448
1601135357310,1053,0.2109375,0.24945068,0.8475952
1601135357310,1054,0.029296875,0.6005249,0.7909546
1601135357310,1055,0.09423828,0.51068115,0.791687
1601135357310,1056,0.09423828,0.51068115,0.791687
1601135357310,1057,0.14331055,0.38787842,0.87323
1601135357310,1058,0.12475586,0.61053467,0.9137573
1601135357311,1059,0.2109375,0.24945068,0.8475952
1601135357311,1060,0.029296875,0.6005249,0.7909546
1601135357312,1061,0.09423828,0.51068115,0.791687
1601135357312,1062,0.08276367,0.59295654,0.56707764
1601135357312,1063,0.21118164,0.36566162,0.7809448
1601135357312,1064,0.029296875,0.6005249,0.7909546
1601135357312,1065,0.029296875,0.6005249,0.7909546
1601135357315,1066,0.21118164,0.36566162,0.7809448
1601135357322,1067,0.14233398,0.50701904,0.7863159
1601135357322,1068,0.2109375,0.24945068,0.8475952
1601135357323,1069,0.12475586,0.61053467,0.9137573
1601135357323,1070,0.21118164,0.36566162,0.7809448
1601135357323,1071,0.2109375,0.24945068,0.8475952
1601135357323,1072,0.08276367,0.59295654,0.56707764
1601135357323,1073,0.029296875,0.6005249,0.7909546
1601135357323,1074,0.12475586,0.61053467,0.9137573
1601135357323,1075,0.3359375,0.4869995,0.87542725
1601135357323,1076,0.3359375,0.4869995,0.87542725
1601135357323,1077,0.21118164,0.36566162,0.7809448
1601135357323,1078,0.09423828,0.51068115,0.791687
1601135357324,1079,0.08276367,0.59295654,0.56707764
1601135357324,1080,0.08276367,0.59295654,0.56707764
1601135357324,1081,0.2109375,0.24945068,0.8475952
1601135357324,1082,0.21118164,0.36566162,0.7809448
1601135357324,1083,0.12475586,0.61053467,0.9137573
1601135357324,1084,0.3359375,0.4869995,0.87542725
1601135357324,1085,0.08276367,0.59295654,0.56707764
1601135357324,1086,0.13354492,0.36517334,0.64520264
1601135357325,1087,0.3359375,0.4869995,0.87542725
1601135357325,1088,0.12475586,0.61053467,0.9137573
1601135357325,1089,0.13354492,0.36517334,0.64520264
1601135357325,1090,0.2109375,0.24945068,0.8475952
1601135357325,1091,0.21118164,0.36566162,0.7809448
1601135357325,1092,0.06933594,0.55926514,0.6564331
1601135357326,1093,0.2109375,0.24945068,0.8475952
1601135357326,1094,0.08276367,0.59295654,0.56707764
1601135357329,1095,0.13354492,0.36517334,0.64520264
1601135357329,1096,0.06933594,0.55926514,0.6564331
1601135357329,1097,0.13354492,0.36517334,0.64520264
1601135357330,1098,0.3359375,0.4869995,0.87542725
1601135357330,1099,0.12475586,0.61053467,0.9137573
1601135357330,1100,0.029296875,0.6005249,0.7909546
1601135357330,1101,0.13354492,0.36517334,0.64520264
1601135357330,1102,0.2109375,0.24945068,0.8475952
1601135357330,1103,0.21118164,0.36566162,0.7809448
1601135357330,1104,0.08276367,0.59295654,0.56707764
1601135357330,1105,0.3359375,0.4869995,0.87542725
1601135357331,1106,0.14794922,0.36712646,0.9110718
1601135357332,1107,0.14794922,0.36712646,0.9110718
1601135357335,1108,0.06933594,0.55926514,0.6564331
1601135357335,1109,0.12475586,0.61053467,0.9137573
1601135357336,1110,0.08276367,0.59295654,0.56707764
1601135357336,1111,0.06933594,0.55926514,0.6564331
1601135357336,1112,0.12475586,0.61053467,0.9137573
1601135357336,1113,0.13354492,0.36517334,0.64520264
1601135357336,1114,0.06933594,0.55926514,0.6564331
1601135357337,1115,0.06933594,0.55926514,0.6564331
1601135357337,1116,0.16357422,0.5321655,0.60272217
1601135357337,1117,0.16357422,0.5321655,0.60272217
1601135357338,1118,0.14794922,0.36712646,0.9110718
1601135357344,1119,0.12475586,0.61053467,0.9137573
1601135357344,1120,0.14794922,0.36712646,0.9110718
1601135357344,1121,0.2109375,0.24945068,0.8475952
1601135357344,1122,0.3359375,0.4869995,0.87542725
1601135357344,1123,0.14794922,0.36712646,0.9110718
1601135357345,1124,0.14794922,0.36712646,0.9110718
1601135357345,1125,0.08276367,0.59295654,0.56707764
1601135357345,1126,0.3359375,0.4869995,0.87542725
1601135357345,1127,0.16357422,0.5321655,0.60272217
1601135357345,1128,0.16357422,0.5321655,0.60272217
1601135357345,1129,0.12475586,0.61053467,0.9137573
1601135357346,1130,0.16699219,0.65448,0.7575073
1601135357346,1131,0.16357422,0.5321655,0.60272217
1601135357346,1132,0.3359375,0.4869995,0.87542725
1601135357346,1133,0.13354492,0.36517334,0.64520264
1601135357346,1134,0.16357422,0.5321655,0.60272217
1601135357346,1135,0.16699219,0.65448,0.7575073
1601135357347,1136,0.13354492,0.36517334,0.64520264
1601135357347,1137,0.3359375,0.4869995,0.87542725
1601135357348,1138,0.16699219,0.65448,0.7575073
1601135357348,1139,0.16699219,0.65448,0.7575073
1601135357349,1140,0.16699219,0.65448,0.7575073
1601135357349,1141,0.234375,0.41864014,0.81951904
1601135357349,1142,0.13354492,0.36517334,0.64520264
1601135357349,1143,0.234375,0.41864014,0.81951904
1601135357349,1144,0.16699219,0.65448,0.7575073
1601135357349,1145,0.234375,0.41864014,0.81951904
1601135357350,1146,0.06933594,0.55926514,0.6564331
1601135357350,1147,0.13354492,0.36517334,0.64520264
1601135357359,1148,0.234375,0.41864014,0.81951904
1601135357360,1149,0.06933594,0.55926514,0.6564331
1601135357360,1150,0.234375,0.41864014,0.81951904
1601135357360,1151,0.15771484,0.5817261,0.79071045
1601135357360,1152,0.15771484,0.5817261,0.79071045
1601135357360,1153,0.06933594,0.55926514,0.6564331
1601135357360,1154,0.15771484,0.5817261,0.79071045
1601135357361,1155,0.11303711,0.50164795,0.85443115
1601135357361,1156,0.14794922,0.36712646,0.9110718
1601135357361,1157,0.14794922,0.36712646,0.9110718
1601135357361,1158,0.08959961,0.49334717,0.88079834
1601135357361,1159,0.15771484,0.5817261,0.79071045
1601135357361,1160,0.16357422,0.5321655,0.60272217
1601135357361,1161,0.23046875,0.6107788,0.6366577
1601135357361,1162,0.11303711,0.50164795,0.85443115
1601135357362,1163,0.11303711,0.50164795,0.85443115
1601135357362,1164,0.15771484,0.5817261,0.79071045
1601135357362,1165,0.08959961,0.49334717,0.88079834
1601135357362,1166,0.11303711,0.50164795,0.85443115
1601135357362,1167,0.06933594,0.55926514,0.6564331
1601135357362,1168,0.234375,0.41864014,0.81951904
1601135357362,1169,0.16699219,0.65448,0.7575073
1601135357363,1170,0.08959961,0.49334717,0.88079834
1601135357363,1171,0.17553711,0.6156616,0.6881714
1601135357363,1172,0.16357422,0.5321655,0.60272217
1601135357363,1173,0.14794922,0.36712646,0.9110718
1601135357363,1174,0.23046875,0.6107788,0.6366577
1601135357367,1175,0.11303711,0.50164795,0.85443115
1601135357368,1176,0.14794922,0.36712646,0.9110718
1601135357368,1177,0.234375,0.41864014,0.81951904
1601135357368,1178,0.23046875,0.6107788,0.6366577
1601135357368,1179,0.15771484,0.5817261,0.79071045
1601135357368,1180,0.08959961,0.49334717,0.88079834
1601135357368,1181,0.17333984,0.48553467,0.7057495
1601135357369,1182,0.16357422,0.5321655,0.60272217
1601135357369,1183,0.16699219,0.65448,0.7575073
1601135357369,1184,0.23046875,0.6107788,0.6366577
1601135357369,1185,0.234375,0.41864014,0.81951904
1601135357377,1186,0.08959961,0.49334717,0.88079834
1601135357377,1187,0.17553711,0.6156616,0.6881714
1601135357377,1188,0.11303711,0.50164795,0.85443115
1601135357377,1189,0.16357422,0.5321655,0.60272217
1601135357378,1190,0.23046875,0.6107788,0.6366577
1601135357378,1191,0.17333984,0.48553467,0.7057495
1601135357378,1192,0.17553711,0.6156616,0.6881714
1601135357378,1193,0.17553711,0.6156616,0.6881714
1601135357378,1194,0.23876953,0.5050659,0.66156006
1601135357378,1195,0.15771484,0.5817261,0.79071045
1601135357379,1196,0.27514648,0.899353,0.5079956
1601135357379,1197,0.17553711,0.6156616,0.6881714
1601135357379,1198,0.08959961,0.49334717,0.88079834
1601135357380,1199,0.16699219,0.65448,0.7575073
1601135357380,1200,0.11303711,0.50164795,0.85443115
1601135357380,1201,0.16699219,0.65448,0.7575073
1601135357380,1202,0.23876953,0.5050659,0.66156006
1601135357381,1203,0.17333984,0.48553467,0.7057495
1601135357381,1204,0.17333984,0.48553467,0.7057495
1601135357381,1205,0.2043457,0.3925171,0.69525146
1601135357390,1206,0.234375,0.41864014,0.81951904
1601135357391,1207,0.1928711,0.95233154,0.54193115
1601135357391,1208,0.17333984,0.48553467,0.7057495
1601135357391,1209,0.15771484,0.5817261,0.79071045
1601135357391,1210,0.234375,0.41864014,0.81951904
1601135357391,1211,0.27514648,0.899353,0.5079956
1601135357391,1212,0.23876953,0.5050659,0.66156006
1601135357392,1213,0.15771484,0.5817261,0.79071045
1601135357393,1214,0.23876953,0.5050659,0.66156006
1601135357393,1215,0.2043457,0.3925171,0.69525146
1601135357393,1216,0.23046875,0.6107788,0.6366577
1601135357393,1217,0.11303711,0.50164795,0.85443115
1601135357393,1218,0.23901367,0.30755615,0.8036499
1601135357394,1219,0.17553711,0.6156616,0.6881714
1601135357394,1220,0.15771484,0.5817261,0.79071045
1601135357394,1221,0.17333984,0.48553467,0.7057495
1601135357394,1222,0.11303711,0.50164795,0.85443115
1601135357395,1223,0.1928711,0.95233154,0.54193115
1601135357395,1224,0.27514648,0.899353,0.5079956
1601135357401,1225,0.27514648,0.899353,0.5079956
1601135357403,1226,0.08959961,0.49334717,0.88079834
1601135357403,1227,0.23876953,0.5050659,0.66156006
1601135357403,1228,0.08959961,0.49334717,0.88079834
1601135357403,1229,0.27514648,0.899353,0.5079956
1601135357403,1230,0.23876953,0.5050659,0.66156006
1601135357403,1231,0.11303711,0.50164795,0.85443115
1601135357403,1232,0.2043457,0.3925171,0.69525146
1601135357403,1233,0.23901367,0.30755615,0.8036499
1601135357404,1234,0.2043457,0.3925171,0.69525146
1601135357404,1235,0.2043457,0.3925171,0.69525146
1601135357404,1236,0.08959961,0.49334717,0.88079834
1601135357404,1237,0.23046875,0.6107788,0.6366577
1601135357404,1238,0.23046875,0.6107788,0.6366577
1601135357404,1239,0.1928711,0.95233154,0.54193115
1601135357404,1240,0.08959961,0.49334717,0.88079834
1601135357406,1241,0.1928711,0.95233154,0.54193115
1601135357406,1242,0.17553711,0.6156616,0.6881714
1601135357406,1243,0.17553711,0.6156616,0.6881714
1601135357406,1244,0.23046875,0.6107788,0.6366577
1601135357406,1245,0.17333984,0.48553467,0.7057495
1601135357406,1246,0.27514648,0.899353,0.5079956
1601135357406,1247,0.23876953,0.5050659,0.66156006
1601135357406,1248,0.23046875,0.6107788,0.6366577
1601135357406,1249,0.23901367,0.30755615,0.8036499
1601135357407,1250,0.1928711,0.95233154,0.54193115
1601135357407,1251,0.17553711,0.6156616,0.6881714
1601135357407,1252,0.23901367,0.30755615,0.8036499
1601135357407,1253,0.2043457,0.3925171,0.69525146
1601135357407,1254,0.27514648,0.899353,0.5079956
1601135357407,1255,0.17553711,0.6156616,0.6881714
1601135357407,1256,0.23901367,0.30755615,0.8036499
1601135357407,1257,0.17333984,0.48553467,0.7057495
1601135357407,1258,0.17333984,0.48553467,0.7057495
1601135357412,1259,0.1928711,0.95233154,0.54193115
1601135357412,1260,0.17333984,0.48553467,0.7057495
1601135357412,1261,0.23876953,0.5050659,0.66156006
1601135357412,1262,0.23876953,0.5050659,0.66156006
1601135357412,1263,0.23901367,0.30755615,0.8036499
1601135357412,1264,0.23876953,0.5050659,0.66156006
1601135357412,1265,0.2043457,0.3925171,0.69525146
1601135357412,1266,0.27514648,0.899353,0.5079956
1601135357412,1267,0.1928711,0.95233154,0.54193115
1601135357412,1268,0.27514648,0.899353,0.5079956
1601135357412,1269,0.27514648,0.899353,0.5079956
1601135357413,1270,0.23901367,0.30755615,0.8036499
1601135357413,1271,0.2043457,0.3925171,0.69525146
1601135357413,1272,0.2043457,0.3925171,0.69525146
1601135357413,1273,0.2043457,0.3925171,0.69525146
1601135357413,1274,0.1928711,0.95233154,0.54193115
1601135357413,1275,0.1928711,0.95233154,0.54193115
1601135357413,1276,0.1928711,0.95233154,0.54193115
1601135357414,1277,0.23901367,0.30755615,0.8036499
1601135357416,1278,0.23901367,0.30755615,0.8036499
1601135357417,1279,0.23901367,0.30755615,0.8036499
1601135359745,1280,0.16772461,0.340271,0.93133545
1601135359749,1281,0.16772461,0.340271,0.93133545
1601135359749,1282,0.38891602,0.27166748,0.4755249
1601135359754,1283,0.16796875,0.7296753,0.7987671
1601135359754,1284,0.16772461,0.340271,0.93133545
1601135359757,1285,0.12011719,0.54901123,0.84246826
1601135359766,1286,0.16772461,0.340271,0.93133545
1601135359766,1287,0.16772461,0.340271,0.93133545
1601135359767,1288,0.38891602,0.27166748,0.4755249
1601135359767,1289,0.38891602,0.27166748,0.4755249
1601135359767,1290,0.38891602,0.27166748,0.4755249
1601135359767,1291,0.16796875,0.7296753,0.7987671
1601135359767,1292,0.16772461,0.340271,0.93133545
1601135359767,1293,0.16772461,0.340271,0.93133545
1601135359767,1294,0.38891602,0.27166748,0.4755249
1601135359767,1295,0.16772461,0.340271,0.93133545
1601135359767,1296,0.16796875,0.7296753,0.7987671
1601135359767,1297,0.16772461,0.340271,0.93133545
1601135359777,1298,0.16796875,0.7296753,0.7987671
1601135359777,1299,0.38891602,0.27166748,0.4755249
1601135359777,1300,0.21459961,0.34857178,0.79901123
1601135359777,1301,0.38891602,0.27166748,0.4755249
1601135359777,1302,0.16796875,0.7296753,0.7987671
1601135359777,1303,0.16772461,0.340271,0.93133545
1601135359777,1304,0.2890625,0.4725952,0.75042725
1601135359777,1305,0.12011719,0.54901123,0.84246826
1601135359777,1306,0.12011719,0.54901123,0.84246826
1601135359777,1307,0.38891602,0.27166748,0.4755249
1601135359778,1308,0.21459961,0.34857178,0.79901123
1601135359778,1309,0.12011719,0.54901123,0.84246826
1601135359778,1310,0.16796875,0.7296753,0.7987671
1601135359778,1311,0.38891602,0.27166748,0.4755249
1601135359778,1312,0.12011719,0.54901123,0.84246826
1601135359802,1313,0.16796875,0.7296753,0.7987671
1601135359803,1314,0.2890625,0.4725952,0.75042725
1601135359803,1315,0.16796875,0.7296753,0.7987671
1601135359803,1316,0.38891602,0.27166748,0.4755249
1601135359803,1317,0.26000977,0.59710693,0.74627686
1601135359803,1318,0.21459961,0.34857178,0.79901123
1601135359803,1319,0.21459961,0.34857178,0.79901123
1601135359803,1320,0.16796875,0.7296753,0.7987671
1601135359803,1321,0.16796875,0.7296753,0.7987671
1601135359803,1322,0.12011719,0.54901123,0.84246826
1601135359804,1323,0.21459961,0.34857178,0.79901123
1601135359804,1324,0.26000977,0.59710693,0.74627686
1601135359804,1325,0.12011719,0.54901123,0.84246826
1601135359804,1326,0.29223633,0.49798584,0.7357788
1601135359804,1327,0.21459961,0.34857178,0.79901123
1601135359804,1328,0.12011719,0.54901123,0.84246826
1601135359804,1329,0.29223633,0.49798584,0.7357788
1601135359804,1330,0.2890625,0.4725952,0.75042725
1601135359804,1331,0.21459961,0.34857178,0.79901123
1601135359804,1332,0.2890625,0.4725952,0.75042725
1601135359804,1333,0.12011719,0.54901123,0.84246826
1601135359804,1334,0.2890625,0.4725952,0.75042725
1601135359804,1335,0.21459961,0.34857178,0.79901123
1601135359804,1336,0.2890625,0.4725952,0.75042725
1601135359804,1337,0.2890625,0.4725952,0.75042725
1601135359804,1338,0.32006836,0.5055542,0.73431396
1601135359804,1339,0.2890625,0.4725952,0.75042725
1601135359804,1340,0.21459961,0.34857178,0.79901123
1601135359805,1341,0.32006836,0.5055542,0.73431396
1601135359805,1342,0.26000977,0.59710693,0.74627686
1601135359805,1343,0.26000977,0.59710693,0.74627686
1601135359805,1344,0.2890625,0.4725952,0.75042725
1601135359805,1345,0.26000977,0.59710693,0.74627686
1601135359805,1346,0.12011719,0.54901123,0.84246826
1601135359805,1347,0.26000977,0.59710693,0.74627686
1601135359805,1348,0.31958008,0.49090576,0.6918335
1601135359805,1349,0.31958008,0.49090576,0.6918335
1601135359805,1350,0.26000977,0.59710693,0.74627686
1601135359805,1351,0.26000977,0.59710693,0.74627686
1601135359805,1352,0.2709961,0.48724365,0.7128296
1601135359810,1353,0.29223633,0.49798584,0.7357788
1601135359811,1354,0.26000977,0.59710693,0.74627686
1601135359811,1355,0.29223633,0.49798584,0.7357788
1601135359811,1356,0.29223633,0.49798584,0.7357788
1601135359811,1357,0.29223633,0.49798584,0.7357788
1601135359811,1358,0.2709961,0.48724365,0.7128296
1601135359811,1359,0.29223633,0.49798584,0.7357788
1601135359811,1360,0.32006836,0.5055542,0.73431396
1601135359811,1361,0.29223633,0.49798584,0.7357788
1601135359811,1362,0.29223633,0.49798584,0.7357788
1601135359815,1363,0.32006836,0.5055542,0.73431396
1601135359816,1364,0.32006836,0.5055542,0.73431396
1601135359816,1365,0.21459961,0.34857178,0.79901123
1601135359816,1366,0.32006836,0.5055542,0.73431396
1601135359816,1367,0.24389648,0.5153198,0.73114014
1601135359817,1368,0.31958008,0.49090576,0.6918335
1601135359817,1369,0.31958008,0.49090576,0.6918335
1601135359817,1370,0.32006836,0.5055542,0.73431396
1601135359817,1371,0.32006836,0.5055542,0.73431396
1601135359817,1372,0.2709961,0.48724365,0.7128296
1601135359817,1373,0.31958008,0.49090576,0.6918335
1601135359828,1374,0.24389648,0.5153198,0.73114014
1601135359828,1375,0.32006836,0.5055542,0.73431396
1601135359828,1376,0.2890625,0.4725952,0.75042725
1601135359828,1377,0.24609375,0.51971436,0.7609253
1601135359828,1378,0.2709961,0.48724365,0.7128296
1601135359828,1379,0.31958008,0.49090576,0.6918335
1601135359828,1380,0.31958008,0.49090576,0.6918335
1601135359828,1381,0.2709961,0.48724365,0.7128296
1601135359829,1382,0.31958008,0.49090576,0.6918335
1601135359829,1383,0.24609375,0.51971436,0.7609253
1601135359829,1384,0.2709961,0.48724365,0.7128296
1601135359829,1385,0.29711914,0.55462646,0.74432373
1601135359829,1386,0.29711914,0.55462646,0.74432373
1601135359829,1387,0.31958008,0.49090576,0.6918335
1601135359829,1388,0.24389648,0.5153198,0.73114014
1601135359829,1389,0.2709961,0.48724365,0.7128296
1601135359829,1390,0.24389648,0.5153198,0.73114014
1601135359829,1391,0.28564453,0.49139404,0.7838745
1601135359829,1392,0.26000977,0.59710693,0.74627686
1601135359829,1393,0.24389648,0.5153198,0.73114014
1601135359829,1394,0.24389648,0.5153198,0.73114014
1601135359829,1395,0.24389648,0.5153198,0.73114014
1601135359829,1396,0.24609375,0.51971436,0.7609253
1601135359831,1397,0.28564453,0.49139404,0.7838745
1601135359831,1398,0.28979492,0.4237671,0.6588745
1601135359831,1399,0.2709961,0.48724365,0.7128296
1601135359847,1400,0.29223633,0.49798584,0.7357788
1601135359847,1401,0.24609375,0.51971436,0.7609253
1601135359847,1402,0.24609375,0.51971436,0.7609253
1601135359848,1403,0.24609375,0.51971436,0.7609253
1601135359848,1404,0.21582031,0.54364014,0.7675171
1601135359848,1405,0.2709961,0.48724365,0.7128296
1601135359848,1406,0.24609375,0.51971436,0.7609253
1601135359848,1407,0.29711914,0.55462646,0.74432373
1601135359848,1408,0.29711914,0.55462646,0.74432373
1601135359849,1409,0.28979492,0.4237671,0.6588745
1601135359849,1410,0.18530273,0.4328003,0.90911865
1601135359849,1411,0.21582031,0.54364014,0.7675171
1601135359849,1412,0.29711914,0.55462646,0.74432373
1601135359849,1413,0.28564453,0.49139404,0.7838745
1601135359849,1414,0.28564453,0.49139404,0.7838745
1601135359849,1415,0.28979492,0.4237671,0.6588745
1601135359849,1416,0.24389648,0.5153198,0.73114014
1601135359849,1417,0.24389648,0.5153198,0.73114014
1601135359849,1418,0.32006836,0.5055542,0.73431396
1601135359849,1419,0.28979492,0.4237671,0.6588745
1601135359850,1420,0.31958008,0.49090576,0.6918335
1601135359850,1421,0.18530273,0.4328003,0.90911865
1601135359850,1422,0.28564453,0.49139404,0.7838745
1601135359850,1423,0.29711914,0.55462646,0.74432373
1601135359850,1424,0.28979492,0.4237671,0.6588745
1601135359850,1425,0.29711914,0.55462646,0.74432373
1601135359850,1426,0.21582031,0.54364014,0.7675171
1601135359852,1427,0.28564453,0.49139404,0.7838745
1601135359853,1428,0.18530273,0.4328003,0.90911865
1601135359853,1429,0.24609375,0.51971436,0.7609253
1601135359853,1430,0.26293945,0.020202637,0.74090576
1601135359853,1431,0.26293945,0.020202637,0.74090576
1601135359853,1432,0.21582031,0.54364014,0.7675171
1601135359853,1433,0.26293945,0.020202637,0.74090576
1601135359853,1434,0.29711914,0.55462646,0.74432373
1601135359853,1435,0.24609375,0.51971436,0.7609253
1601135359856,1436,0.28979492,0.4237671,0.6588745
1601135359856,1437,0.29711914,0.55462646,0.74432373
1601135359856,1438,0.25927734,0.47576904,0.79559326
1601135359856,1439,0.18530273,0.4328003,0.90911865
1601135359856,1440,0.28564453,0.49139404,0.7838745
1601135359858,1441,0.21582031,0.54364014,0.7675171
1601135359858,1442,0.28564453,0.49139404,0.7838745
1601135359858,1443,0.28979492,0.4237671,0.6588745
1601135359859,1444,0.21582031,0.54364014,0.7675171
1601135359859,1445,0.2709961,0.48724365,0.7128296
1601135359859,1446,0.28979492,0.4237671,0.6588745
1601135359859,1447,0.28564453,0.49139404,0.7838745
1601135359859,1448,0.25927734,0.47576904,0.79559326
1601135359860,1449,0.1706543,0.67108154,0.89642334
1601135359860,1450,0.25927734,0.47576904,0.79559326
1601135359860,1451,0.21582031,0.54364014,0.7675171
1601135359860,1452,0.18530273,0.4328003,0.90911865
1601135359864,1453,0.24389648,0.5153198,0.73114014
1601135359866,1454,0.26293945,0.020202637,0.74090576
1601135359866,1455,0.24609375,0.51971436,0.7609253
1601135359866,1456,0.28979492,0.4237671,0.6588745
1601135359866,1457,0.29711914,0.55462646,0.74432373
1601135359866,1458,0.18530273,0.4328003,0.90911865
1601135359867,1459,0.28564453,0.49139404,0.7838745
1601135359867,1460,0.21582031,0.54364014,0.7675171
1601135359867,1461,0.26293945,0.020202637,0.74090576
1601135359867,1462,0.25927734,0.47576904,0.79559326
1601135359867,1463,0.1706543,0.67108154,0.89642334
1601135359867,1464,0.1706543,0.67108154,0.89642334
1601135359867,1465,0.25927734,0.47576904,0.79559326
1601135359867,1466,0.1706543,0.67108154,0.89642334
1601135359867,1467,0.26293945,0.020202637,0.74090576
1601135359867,1468,0.1706543,0.67108154,0.89642334
1601135359867,1469,0.16967773,0.15838623,0.8685913
1601135359868,1470,0.16967773,0.15838623,0.8685913
1601135359870,1471,0.16967773,0.15838623,0.8685913
1601135359870,1472,0.16967773,0.15838623,0.8685913
1601135359870,1473,0.21582031,0.54364014,0.7675171
1601135359870,1474,0.28979492,0.4237671,0.6588745
1601135359870,1475,0.2548828,0.29608154,0.62908936
1601135359870,1476,0.18530273,0.4328003,0.90911865
1601135359870,1477,0.18530273,0.4328003,0.90911865
1601135359870,1478,0.16967773,0.15838623,0.8685913
1601135359870,1479,0.2548828,0.29608154,0.62908936
1601135359874,1480,0.2548828,0.29608154,0.62908936
1601135359874,1481,0.25927734,0.47576904,0.79559326
1601135359874,1482,0.25708008,0.6984253,0.87615967
1601135359874,1483,0.21582031,0.54364014,0.7675171
1601135359874,1484,0.25708008,0.6984253,0.87615967
1601135359874,1485,0.1706543,0.67108154,0.89642334
1601135359874,1486,0.26293945,0.020202637,0.74090576
1601135359874,1487,0.26293945,0.020202637,0.74090576
1601135359875,1488,0.2548828,0.29608154,0.62908936
1601135359875,1489,0.25708008,0.6984253,0.87615967
1601135359875,1490,0.2548828,0.29608154,0.62908936
1601135359876,1491,0.23852539,0.49945068,0.91571045
1601135359876,1492,0.16967773,0.15838623,0.8685913
1601135359887,1493,0.18530273,0.4328003,0.90911865
1601135359887,1494,0.25927734,0.47576904,0.79559326
1601135359887,1495,0.25708008,0.6984253,0.87615967
1601135359887,1496,0.23852539,0.49945068,0.91571045
1601135359887,1497,0.18530273,0.4328003,0.90911865
1601135359888,1498,0.25708008,0.6984253,0.87615967
1601135359888,1499,0.23852539,0.49945068,0.91571045
1601135359888,1500,0.25927734,0.47576904,0.79559326
1601135359888,1501,0.08984375,0.16082764,0.57977295
1601135359888,1502,0.2548828,0.29608154,0.62908936
1601135359888,1503,0.26293945,0.020202637,0.74090576
1601135359888,1504,0.15893555,0.43792725,0.69744873
1601135359888,1505,0.23852539,0.49945068,0.91571045
1601135359888,1506,0.08984375,0.16082764,0.57977295
1601135359888,1507,0.1706543,0.67108154,0.89642334
1601135359888,1508,0.26293945,0.020202637,0.74090576
1601135359888,1509,0.1706543,0.67108154,0.89642334
1601135359888,1510,0.25927734,0.47576904,0.79559326
1601135359888,1511,0.08984375,0.16082764,0.57977295
1601135359888,1512,0.25708008,0.6984253,0.87615967
1601135359888,1513,0.22436523,0.80145264,0.9398804
1601135359889,1514,0.08984375,0.16082764,0.57977295
1601135359889,1515,0.16967773,0.15838623,0.8685913
1601135359889,1516,0.15893555,0.43792725,0.69744873
1601135359889,1517,0.23852539,0.49945068,0.91571045
1601135359889,1518,0.25927734,0.47576904,0.79559326
1601135359889,1519,0.16967773,0.15838623,0.8685913
1601135359889,1520,0.2548828,0.29608154,0.62908936
1601135359889,1521,0.2548828,0.29608154,0.62908936
1601135359889,1522,0.23852539,0.49945068,0.91571045
1601135359896,1523,0.15893555,0.43792725,0.69744873
1601135359896,1524,0.1706543,0.67108154,0.89642334
1601135359896,1525,0.1706543,0.67108154,0.89642334
1601135359897,1526,0.15893555,0.43792725,0.69744873
1601135359897,1527,0.22436523,0.80145264,0.9398804
1601135359897,1528,0.22436523,0.80145264,0.9398804
1601135359898,1529,0.08984375,0.16082764,0.57977295
1601135359898,1530,0.25708008,0.6984253,0.87615967
1601135359898,1531,0.2163086,0.26776123,0.8800659
1601135359898,1532,0.15893555,0.43792725,0.69744873
1601135359898,1533,0.22436523,0.80145264,0.9398804
1601135359898,1534,0.16967773,0.15838623,0.8685913
1601135359898,1535,0.19628906,0.12054443,0.70428467
1601135359898,1536,0.25708008,0.6984253,0.87615967
1601135359898,1537,0.2163086,0.26776123,0.8800659
1601135359899,1538,0.08984375,0.16082764,0.57977295
1601135359899,1539,0.09643555,0.98724365,0.7850952
1601135359899,1540,0.23852539,0.49945068,0.91571045
1601135359905,1541,0.2163086,0.26776123,0.8800659
1601135359905,1542,0.22436523,0.80145264,0.9398804
1601135359905,1543,0.2163086,0.26776123,0.8800659
1601135359905,1544,0.2548828,0.29608154,0.62908936
1601135359905,1545,0.23852539,0.49945068,0.91571045
1601135359905,1546,0.16967773,0.15838623,0.8685913
1601135359905,1547,0.15893555,0.43792725,0.69744873
1601135359905,1548,0.2548828,0.29608154,0.62908936
1601135359905,1549,0.22485352,0.18475342,0.7496948
1601135359905,1550,0.25708008,0.6984253,0.87615967
1601135359906,1551,0.22436523,0.80145264,0.9398804
1601135359906,1552,0.2163086,0.26776123,0.8800659
1601135359906,1553,0.19628906,0.12054443,0.70428467
1601135359910,1554,0.19628906,0.12054443,0.70428467
1601135359910,1555,0.19628906,0.12054443,0.70428467
1601135359914,1556,0.25708008,0.6984253,0.87615967
1601135359914,1557,0.08984375,0.16082764,0.57977295
1601135359914,1558,0.23852539,0.49945068,0.91571045
1601135359914,1559,0.23852539,0.49945068,0.91571045
1601135359914,1560,0.2163086,0.26776123,0.8800659
1601135359915,1561,0.15893555,0.43792725,0.69744873
1601135359915,1562,0.08984375,0.16082764,0.57977295
1601135359915,1563,0.19628906,0.12054443,0.70428467
1601135359918,1564,0.09643555,0.98724365,0.7850952
1601135359919,1565,0.08984375,0.16082764,0.57977295
1601135359919,1566,0.22485352,0.18475342,0.7496948
1601135359919,1567,0.09643555,0.98724365,0.7850952
1601135359919,1568,0.15893555,0.43792725,0.69744873
1601135359919,1569,0.22436523,0.80145264,0.9398804
1601135359919,1570,0.08984375,0.16082764,0.57977295
1601135359919,1571,0.09643555,0.98724365,0.7850952
1601135359919,1572,0.15893555,0.43792725,0.69744873
1601135359919,1573,0.09643555,0.98724365,0.7850952
1601135359919,1574,0.22436523,0.80145264,0.9398804
1601135359919,1575,0.19628906,0.12054443,0.70428467
1601135359919,1576,0.15893555,0.43792725,0.69744873
1601135359920,1577,0.22485352,0.18475342,0.7496948
1601135359920,1578,0.22436523,0.80145264,0.9398804
1601135359920,1579,0.22485352,0.18475342,0.7496948
1601135359924,1580,0.22485352,0.18475342,0.7496948
1601135359924,1581,0.2163086,0.26776123,0.8800659
1601135359924,1582,0.09643555,0.98724365,0.7850952
1601135359924,1583,0.19628906,0.12054443,0.70428467
1601135359924,1584,0.2163086,0.26776123,0.8800659
1601135359925,1585,0.09643555,0.98724365,0.7850952
1601135359925,1586,0.19628906,0.12054443,0.70428467
1601135359925,1587,0.22485352,0.18475342,0.7496948
1601135359932,1588,0.2163086,0.26776123,0.8800659
1601135359933,1589,0.22436523,0.80145264,0.9398804
1601135359934,1590,0.22485352,0.18475342,0.7496948
1601135359934,1591,0.09643555,0.98724365,0.7850952
1601135359934,1592,0.19628906,0.12054443,0.70428467
1601135359934,1593,0.2163086,0.26776123,0.8800659
1601135359934,1594,0.09643555,0.98724365,0.7850952
1601135359934,1595,0.22485352,0.18475342,0.7496948
1601135359934,1596,0.22485352,0.18475342,0.7496948
1601135359935,1597,0.19628906,0.12054443,0.70428467
1601135359935,1598,0.09643555,0.98724365,0.7850952
1601135359935,1599,0.22485352,0.18475342,0.7496948
1601135362308,1600,0.08081055,0.41888428,0.7172241
1601135362313,1601,0.08081055,0.41888428,0.7172241
1601135362315,1602,0.08081055,0.41888428,0.7172241
1601135362316,1603,0.31347656,0.96624756,0.6376343
1601135362321,1604,0.08081055,0.41888428,0.7172241
1601135362321,1605,0.08081055,0.41888428,0.7172241
1601135362322,1606,0.08081055,0.41888428,0.7172241
1601135362322,1607,0.31347656,0.96624756,0.6376343
1601135362322,1608,0.08081055,0.41888428,0.7172241
1601135362322,1609,0.08081055,0.41888428,0.7172241
1601135362322,1610,0.31347656,0.96624756,0.6376343
1601135362336,1611,0.31347656,0.96624756,0.6376343
1601135362337,1612,0.31347656,0.96624756,0.6376343
1601135362337,1613,0.3696289,0.40740967,0.56781006
1601135362337,1614,0.31347656,0.96624756,0.6376343
1601135362337,1615,0.3696289,0.40740967,0.56781006
1601135362340,1616,0.31347656,0.96624756,0.6376343
1601135362341,1617,0.31347656,0.96624756,0.6376343
1601135362341,1618,0.3696289,0.40740967,0.56781006
1601135362341,1619,-0.22607422,0.42425537,0.98846436
1601135362341,1620,0.3696289,0.40740967,0.56781006
1601135362341,1621,0.3696289,0.40740967,0.56781006
1601135362341,1622,0.3696289,0.40740967,0.56781006
1601135362341,1623,-0.22607422,0.42425537,0.98846436
1601135362341,1624,-0.22607422,0.42425537,0.98846436
1601135362341,1625,0.21459961,0.65960693,0.85736084
1601135362341,1626,0.08081055,0.41888428,0.7172241
1601135362342,1627,-0.22607422,0.42425537,0.98846436
1601135362342,1628,0.3696289,0.40740967,0.56781006
1601135362342,1629,0.31347656,0.96624756,0.6376343
1601135362342,1630,0.08081055,0.41888428,0.7172241
1601135362342,1631,0.3696289,0.40740967,0.56781006
1601135362342,1632,-0.22607422,0.42425537,0.98846436
1601135362342,1633,0.3696289,0.40740967,0.56781006
1601135362348,1634,0.21459961,0.65960693,0.85736084
1601135362348,1635,0.21459961,0.65960693,0.85736084
1601135362348,1636,-0.22607422,0.42425537,0.98846436
1601135362348,1637,0.21459961,0.65960693,0.85736084
1601135362349,1638,-0.22607422,0.42425537,0.98846436
1601135362349,1639,-0.22607422,0.42425537,0.98846436
1601135362349,1640,0.29345703,0.62957764,0.73968506
1601135362349,1641,0.31347656,0.96624756,0.6376343
1601135362349,1642,-0.22607422,0.42425537,0.98846436
1601135362349,1643,0.21459961,0.65960693,0.85736084
1601135362350,1644,0.21459961,0.65960693,0.85736084
1601135362350,1645,0.29345703,0.62957764,0.73968506
1601135362350,1646,0.29345703,0.62957764,0.73968506
1601135362357,1647,0.21459961,0.65960693,0.85736084
1601135362357,1648,0.29345703,0.62957764,0.73968506
1601135362357,1649,-0.024658203,0.48016357,0.40594482
1601135362357,1650,0.3696289,0.40740967,0.56781006
1601135362357,1651,0.4975586,0.93426514,0.45159912
1601135362357,1652,0.21459961,0.65960693,0.85736084
1601135362358,1653,0.34228516,0.8493042,0.6022339
1601135362359,1654,-0.024658203,0.48016357,0.40594482
1601135362359,1655,0.21459961,0.65960693,0.85736084
1601135362359,1656,-0.024658203,0.48016357,0.40594482
1601135362359,1657,0.29345703,0.62957764,0.73968506
1601135362364,1658,-0.024658203,0.48016357,0.40594482
1601135362365,1659,0.29345703,0.62957764,0.73968506
1601135362365,1660,0.29345703,0.62957764,0.73968506
1601135362365,1661,0.29345703,0.62957764,0.73968506
1601135362365,1662,-0.22607422,0.42425537,0.98846436
1601135362365,1663,-0.024658203,0.48016357,0.40594482
1601135362365,1664,-0.021972656,0.27264404,0.71014404
1601135362365,1665,0.4975586,0.93426514,0.45159912
1601135362366,1666,-0.024658203,0.48016357,0.40594482
1601135362366,1667,0.4975586,0.93426514,0.45159912
1601135362366,1668,0.4975586,0.93426514,0.45159912
1601135362366,1669,0.34228516,0.8493042,0.6022339
1601135362366,1670,-0.024658203,0.48016357,0.40594482
1601135362366,1671,0.4975586,0.93426514,0.45159912
1601135362366,1672,0.21459961,0.65960693,0.85736084
1601135362366,1673,0.01977539,0.85858154,0.7904663
1601135362366,1674,-0.024658203,0.48016357,0.40594482
1601135362367,1675,0.29345703,0.62957764,0.73968506
1601135362379,1676,-0.024658203,0.48016357,0.40594482
1601135362381,1677,-0.021972656,0.27264404,0.71014404
1601135362381,1678,0.34228516,0.8493042,0.6022339
1601135362381,1679,0.01977539,0.85858154,0.7904663
1601135362382,1680,0.29345703,0.62957764,0.73968506
1601135362382,1681,0.34228516,0.8493042,0.6022339
1601135362382,1682,0.2290039,1.0978394,0.7418823
1601135362382,1683,0.4975586,0.93426514,0.45159912
1601135362382,1684,0.4975586,0.93426514,0.45159912
1601135362382,1685,0.34228516,0.8493042,0.6022339
1601135362382,1686,0.34228516,0.8493042,0.6022339
1601135362382,1687,0.4975586,0.93426514,0.45159912
1601135362382,1688,0.4975586,0.93426514,0.45159912
1601135362383,1689,-0.024658203,0.48016357,0.40594482
1601135362383,1690,-0.021972656,0.27264404,0.71014404
1601135362383,1691,-0.021972656,0.27264404,0.71014404
1601135362383,1692,0.2290039,1.0978394,0.7418823
1601135362383,1693,0.34228516,0.8493042,0.6022339
1601135362383,1694,0.01977539,0.85858154,0.7904663
1601135362383,1695,-0.021972656,0.27264404,0.71014404
1601135362383,1696,-0.021972656,0.27264404,0.71014404
1601135362383,1697,0.34228516,0.8493042,0.6022339
1601135362383,1698,-0.021972656,0.27264404,0.71014404
1601135362384,1699,0.2290039,1.0978394,0.7418823
1601135362384,1700,0.01977539,0.85858154,0.7904663
1601135362384,1701,0.34228516,0.8493042,0.6022339
1601135362384,1702,0.4182129,-0.23370361,0.5765991
1601135362384,1703,0.4182129,-0.23370361,0.5765991
1601135362387,1704,0.030517578,0.33172607,0.7531128
1601135362387,1705,0.01977539,0.85858154,0.7904663
1601135362387,1706,-0.021972656,0.27264404,0.71014404
1601135362387,1707,0.17016602,1.0184937,0.5187378
1601135362387,1708,0.4182129,-0.23370361,0.5765991
1601135362388,1709,0.5202637,0.25335693,0.5009155
1601135362388,1710,0.2290039,1.0978394,0.7418823
1601135362388,1711,0.01977539,0.85858154,0.7904663
1601135362388,1712,0.4975586,0.93426514,0.45159912
1601135362388,1713,0.2290039,1.0978394,0.7418823
1601135362393,1714,0.030517578,0.33172607,0.7531128
1601135362394,1715,0.4182129,-0.23370361,0.5765991
1601135362394,1716,-0.021972656,0.27264404,0.71014404
1601135362394,1717,0.1628418,0.90496826,0.5883179
1601135362394,1718,0.030517578,0.33172607,0.7531128
1601135362394,1719,0.17016602,1.0184937,0.5187378
1601135362394,1720,0.2290039,1.0978394,0.7418823
1601135362394,1721,0.34228516,0.8493042,0.6022339
1601135362394,1722,0.01977539,0.85858154,0.7904663
1601135362394,1723,0.4182129,-0.23370361,0.5765991
1601135362394,1724,0.5202637,0.25335693,0.5009155
1601135362402,1725,0.4182129,-0.23370361,0.5765991
1601135362402,1726,0.01977539,0.85858154,0.7904663
1601135362403,1727,-0.021972656,0.27264404,0.71014404
1601135362403,1728,0.01977539,0.85858154,0.7904663
1601135362403,1729,0.27539062,0.8842163,0.62005615
1601135362403,1730,0.17016602,1.0184937,0.5187378
1601135362403,1731,0.030517578,0.33172607,0.7531128
1601135362403,1732,0.030517578,0.33172607,0.7531128
1601135362404,1733,0.2290039,1.0978394,0.7418823
1601135362404,1734,0.2290039,1.0978394,0.7418823
1601135362404,1735,0.4182129,-0.23370361,0.5765991
1601135362404,1736,0.030517578,0.33172607,0.7531128
1601135362404,1737,0.2290039,1.0978394,0.7418823
1601135362404,1738,0.030517578,0.33172607,0.7531128
1601135362404,1739,0.17016602,1.0184937,0.5187378
1601135362404,1740,0.17016602,1.0184937,0.5187378
1601135362404,1741,0.4182129,-0.23370361,0.5765991
1601135362404,1742,0.3190918,0.5717163,0.6322632
1601135362404,1743,0.1628418,0.90496826,0.5883179
1601135362405,1744,0.01977539,0.85858154,0.7904663
1601135362405,1745,0.4182129,-0.23370361,0.5765991
1601135362405,1746,0.17016602,1.0184937,0.5187378
1601135362410,1747,0.030517578,0.33172607,0.7531128
1601135362410,1748,0.030517578,0.33172607,0.7531128
1601135362410,1749,0.5202637,0.25335693,0.5009155
1601135362411,1750,0.17016602,1.0184937,0.5187378
1601135362411,1751,0.17016602,1.0184937,0.5187378
1601135362412,1752,0.1628418,0.90496826,0.5883179
1601135362412,1753,0.27539062,0.8842163,0.62005615
1601135362412,1754,0.5202637,0.25335693,0.5009155
1601135362412,1755,0.5202637,0.25335693,0.5009155
1601135362412,1756,0.17016602,1.0184937,0.5187378
1601135362412,1757,0.5202637,0.25335693,0.5009155
1601135362412,1758,0.5202637,0.25335693,0.5009155
1601135362414,1759,0.2290039,1.0978394,0.7418823
1601135362430,1760,0.27539062,0.8842163,0.62005615
1601135362431,1761,0.4182129,-0.23370361,0.5765991
1601135362431,1762,0.1628418,0.90496826,0.5883179
1601135362431,1763,0.5202637,0.25335693,0.5009155
1601135362432,1764,0.23901367,0.6083374,0.66571045
1601135362432,1765,0.3190918,0.5717163,0.6322632
1601135362432,1766,0.5202637,0.25335693,0.5009155
1601135362432,1767,0.030517578,0.33172607,0.7531128
1601135362432,1768,0.3190918,0.5717163,0.6322632
1601135362432,1769,0.1628418,0.90496826,0.5883179
1601135362432,1770,0.1628418,0.90496826,0.5883179
1601135362435,1771,0.1628418,0.90496826,0.5883179
1601135362435,1772,0.27539062,0.8842163,0.62005615
1601135362435,1773,0.1628418,0.90496826,0.5883179
1601135362435,1774,0.23901367,0.6083374,0.66571045
1601135362435,1775,0.1628418,0.90496826,0.5883179
1601135362435,1776,0.3190918,0.5717163,0.6322632
1601135362435,1777,0.24902344,0.7819214,0.5307007
1601135362435,1778,0.27539062,0.8842163,0.62005615
1601135362436,1779,0.27539062,0.8842163,0.62005615
1601135362436,1780,0.27539062,0.8842163,0.62005615
1601135362436,1781,0.23901367,0.6083374,0.66571045
1601135362436,1782,0.27539062,0.8842163,0.62005615
1601135362436,1783,0.24902344,0.7819214,0.5307007
1601135362436,1784,0.17016602,1.0184937,0.5187378
1601135362436,1785,0.27539062,0.8842163,0.62005615
1601135362436,1786,0.24902344,0.7819214,0.5307007
1601135362436,1787,0.3190918,0.5717163,0.6322632
1601135362436,1788,0.3190918,0.5717163,0.6322632
1601135362436,1789,0.5202637,0.25335693,0.5009155
1601135362436,1790,0.30493164,0.5060425,0.65252686
1601135362436,1791,0.3190918,0.5717163,0.6322632
1601135362437,1792,0.3190918,0.5717163,0.6322632
1601135362438,1793,0.1628418,0.90496826,0.5883179
1601135362438,1794,0.30493164,0.5060425,0.65252686
1601135362438,1795,0.30493164,0.5060425,0.65252686
1601135362438,1796,0.23901367,0.6083374,0.66571045
1601135362438,1797,0.3791504,0.78240967,0.70111084
1601135362438,1798,0.63134766,1.1935425,0.6815796
1601135362438,1799,0.3791504,0.78240967,0.70111084
1601135362438,1800,0.23901367,0.6083374,0.66571045
1601135362438,1801,0.23901367,0.6083374,0.66571045
1601135362438,1802,0.3190918,0.5717163,0.6322632
1601135362438,1803,0.24902344,0.7819214,0.5307007
1601135362438,1804,0.24902344,0.7819214,0.5307007
1601135362438,1805,0.23901367,0.6083374,0.66571045
1601135362439,1806,0.23901367,0.6083374,0.66571045
1601135362439,1807,0.24902344,0.7819214,0.5307007
1601135362439,1808,0.29833984,0.4064331,0.52337646
1601135362439,1809,0.63134766,1.1935425,0.6815796
1601135362445,1810,0.23901367,0.6083374,0.66571045
1601135362445,1811,0.3791504,0.78240967,0.70111084
1601135362446,1812,0.30493164,0.5060425,0.65252686
1601135362446,1813,0.30493164,0.5060425,0.65252686
1601135362446,1814,0.3791504,0.78240967,0.70111084
1601135362446,1815,0.3791504,0.78240967,0.70111084
1601135362446,1816,0.63134766,1.1935425,0.6815796
1601135362446,1817,0.27539062,0.8842163,0.62005615
1601135362446,1818,0.24902344,0.7819214,0.5307007
1601135362446,1819,0.29833984,0.4064331,0.52337646
1601135362447,1820,0.21801758,-0.32403564,0.38250732
1601135362448,1821,0.24902344,0.7819214,0.5307007
1601135362448,1822,0.63134766,1.1935425,0.6815796
1601135362448,1823,0.24902344,0.7819214,0.5307007
1601135362448,1824,0.30493164,0.5060425,0.65252686
1601135362448,1825,0.30493164,0.5060425,0.65252686
1601135362448,1826,0.29833984,0.4064331,0.52337646
1601135362448,1827,0.29833984,0.4064331,0.52337646
1601135362448,1828,0.30493164,0.5060425,0.65252686
1601135362448,1829,0.3791504,0.78240967,0.70111084
1601135362448,1830,0.21801758,-0.32403564,0.38250732
1601135362448,1831,0.63134766,1.1935425,0.6815796
1601135362456,1832,0.38378906,1.2306519,0.10736084
1601135362456,1833,0.30493164,0.5060425,0.65252686
1601135362456,1834,1.0700684,1.3685913,0.23846436
1601135362456,1835,0.21801758,-0.32403564,0.38250732
1601135362456,1836,0.3190918,0.5717163,0.6322632
1601135362456,1837,0.5175781,-0.22979736,0.5619507
1601135362456,1838,0.3791504,0.78240967,0.70111084
1601135362457,1839,0.63134766,1.1935425,0.6815796
1601135362457,1840,0.38378906,1.2306519,0.10736084
1601135362457,1841,0.29833984,0.4064331,0.52337646
1601135362457,1842,0.23901367,0.6083374,0.66571045
1601135362457,1843,0.21801758,-0.32403564,0.38250732
1601135362457,1844,0.24902344,0.7819214,0.5307007
1601135362458,1845,0.29833984,0.4064331,0.52337646
1601135362458,1846,0.15917969,-0.62042236,0.52948
1601135362458,1847,0.3791504,0.78240967,0.70111084
1601135362458,1848,0.38378906,1.2306519,0.10736084
1601135362458,1849,0.5661621,0.8912964,0.17254639
1601135362458,1850,0.63134766,1.1935425,0.6815796
1601135362458,1851,0.21801758,-0.32403564,0.38250732
1601135362459,1852,0.3791504,0.78240967,0.70111084
1601135362459,1853,0.38378906,1.2306519,0.10736084
1601135362459,1854,0.29833984,0.4064331,0.52337646
1601135362459,1855,0.21801758,-0.32403564,0.38250732
1601135362459,1856,0.63134766,1.1935425,0.6815796
1601135362459,1857,0.38378906,1.2306519,0.10736084
1601135362459,1858,1.0700684,1.3685913,0.23846436
1601135362462,1859,0.30493164,0.5060425,0.65252686
1601135362464,1860,1.0700684,1.3685913,0.23846436
1601135362464,1861,0.63134766,1.1935425,0.6815796
1601135362464,1862,1.0700684,1.3685913,0.23846436
1601135362464,1863,0.3791504,0.78240967,0.70111084
1601135362464,1864,0.5175781,-0.22979736,0.5619507
1601135362465,1865,0.5175781,-0.22979736,0.5619507
1601135362465,1866,1.0700684,1.3685913,0.23846436
1601135362465,1867,0.15917969,-0.62042236,0.52948
1601135362465,1868,0.6418457,-0.21124268,0.54119873
1601135362470,1869,0.5175781,-0.22979736,0.5619507
1601135362470,1870,0.29833984,0.4064331,0.52337646
1601135362470,1871,0.29833984,0.4064331,0.52337646
1601135362470,1872,0.21801758,-0.32403564,0.38250732
1601135362470,1873,0.38378906,1.2306519,0.10736084
1601135362470,1874,0.21801758,-0.32403564,0.38250732
1601135362470,1875,0.5661621,0.8912964,0.17254639
1601135362470,1876,0.5175781,-0.22979736,0.5619507
1601135362471,1877,0.15917969,-0.62042236,0.52948
1601135362472,1878,0.15917969,-0.62042236,0.52948
1601135362487,1879,0.38378906,1.2306519,0.10736084
1601135362488,1880,0.63134766,1.1935425,0.6815796
1601135362488,1881,1.0700684,1.3685913,0.23846436
1601135362488,1882,1.0700684,1.3685913,0.23846436
1601135362488,1883,0.15917969,-0.62042236,0.52948
1601135362488,1884,0.29833984,0.4064331,0.52337646
1601135362488,1885,0.6418457,-0.21124268,0.54119873
1601135362488,1886,0.21801758,-0.32403564,0.38250732
1601135362489,1887,0.5661621,0.8912964,0.17254639
1601135362489,1888,0.38378906,1.2306519,0.10736084
1601135362489,1889,0.6418457,-0.21124268,0.54119873
1601135362489,1890,0.5175781,-0.22979736,0.5619507
1601135362489,1891,0.5661621,0.8912964,0.17254639
1601135362489,1892,1.0700684,1.3685913,0.23846436
1601135362490,1893,0.5661621,0.8912964,0.17254639
1601135362490,1894,0.38378906,1.2306519,0.10736084
1601135362490,1895,0.5175781,-0.22979736,0.5619507
1601135362491,1896,0.6418457,-0.21124268,0.54119873
1601135362491,1897,0.21801758,-0.32403564,0.38250732
1601135362492,1898,0.5175781,-0.22979736,0.5619507
1601135362492,1899,0.15917969,-0.62042236,0.52948
1601135362495,1900,1.0700684,1.3685913,0.23846436
1601135362495,1901,0.15917969,-0.62042236,0.52948
1601135362495,1902,0.6418457,-0.21124268,0.54119873
1601135362495,1903,0.15917969,-0.62042236,0.52948
1601135362495,1904,0.5175781,-0.22979736,0.5619507
1601135362495,1905,0.38378906,1.2306519,0.10736084
1601135362495,1906,0.5661621,0.8912964,0.17254639
1601135362496,1907,0.15917969,-0.62042236,0.52948
1601135362498,1908,0.5661621,0.8912964,0.17254639
1601135362498,1909,1.0700684,1.3685913,0.23846436
1601135362500,1910,0.5661621,0.8912964,0.17254639
1601135362501,1911,0.6418457,-0.21124268,0.54119873
1601135362503,1912,0.5175781,-0.22979736,0.5619507
1601135362503,1913,0.5661621,0.8912964,0.17254639
1601135362503,1914,0.6418457,-0.21124268,0.54119873
1601135362506,1915,0.15917969,-0.62042236,0.52948
1601135362506,1916,0.6418457,-0.21124268,0.54119873
1601135362506,1917,0.5661621,0.8912964,0.17254639
1601135362507,1918,0.6418457,-0.21124268,0.54119873
1601135362509,1919,0.6418457,-0.21124268,0.54119873
1601135364619,1920,1.2402344,0.39666748,0.7555542
1601135364628,1921,1.2402344,0.39666748,0.7555542
1601135364628,1922,1.2402344,0.39666748,0.7555542
1601135364628,1923,1.2402344,0.39666748,0.7555542
1601135364628,1924,1.2402344,0.39666748,0.7555542
1601135364628,1925,0.66845703,1.2982788,0.5829468
1601135364628,1926,1.2402344,0.39666748,0.7555542
1601135364628,1927,1.2402344,0.39666748,0.7555542
1601135364628,1928,0.66845703,1.2982788,0.5829468
1601135364628,1929,0.21801758,-0.8862915,-0.05596924
1601135364629,1930,0.66845703,1.2982788,0.5829468
1601135364629,1931,0.66845703,1.2982788,0.5829468
1601135364629,1932,0.66845703,1.2982788,0.5829468
1601135364629,1933,1.2402344,0.39666748,0.7555542
1601135364629,1934,1.2402344,0.39666748,0.7555542
1601135364629,1935,1.2402344,0.39666748,0.7555542
1601135364629,1936,0.66845703,1.2982788,0.5829468
1601135364636,1937,0.66845703,1.2982788,0.5829468
1601135364636,1938,0.21801758,-0.8862915,-0.05596924
1601135364636,1939,0.21801758,-0.8862915,-0.05596924
1601135364636,1940,0.21801758,-0.8862915,-0.05596924
1601135364636,1941,0.029052734,-1.2393188,0.70477295
1601135364636,1942,0.66845703,1.2982788,0.5829468
1601135364636,1943,0.21801758,-0.8862915,-0.05596924
1601135364636,1944,0.66845703,1.2982788,0.5829468
1601135364637,1945,0.21801758,-0.8862915,-0.05596924
1601135364637,1946,0.21801758,-0.8862915,-0.05596924
1601135364637,1947,0.029052734,-1.2393188,0.70477295
1601135364637,1948,-0.67041016,1.6801147,0.13641357
1601135364644,1949,0.029052734,-1.2393188,0.70477295
1601135364644,1950,-0.67041016,1.6801147,0.13641357
1601135364644,1951,-0.67041016,1.6801147,0.13641357
1601135364645,1952,0.66845703,1.2982788,0.5829468
1601135364645,1953,0.21801758,-0.8862915,-0.05596924
1601135364646,1954,0.029052734,-1.2393188,0.70477295
1601135364646,1955,0.029052734,-1.2393188,0.70477295
1601135364647,1956,0.029052734,-1.2393188,0.70477295
1601135364647,1957,-0.67041016,1.6801147,0.13641357
1601135364647,1958,0.029052734,-1.2393188,0.70477295
1601135364647,1959,0.91503906,0.6442261,0.59295654
1601135364647,1960,0.21801758,-0.8862915,-0.05596924
1601135364647,1961,0.91503906,0.6442261,0.59295654
1601135364647,1962,0.029052734,-1.2393188,0.70477295
1601135364647,1963,0.21801758,-0.8862915,-0.05596924
1601135364647,1964,0.029052734,-1.2393188,0.70477295
1601135364651,1965,-0.67041016,1.6801147,0.13641357
1601135364652,1966,-0.67041016,1.6801147,0.13641357
1601135364652,1967,0.91503906,0.6442261,0.59295654
1601135364652,1968,0.91503906,0.6442261,0.59295654
1601135364652,1969,0.39453125,0.43328857,0.50994873
1601135364652,1970,0.91503906,0.6442261,0.59295654
1601135364652,1971,-0.67041016,1.6801147,0.13641357
1601135364653,1972,0.029052734,-1.2393188,0.70477295
1601135364653,1973,0.39453125,0.43328857,0.50994873
1601135364653,1974,0.91503906,0.6442261,0.59295654
1601135364653,1975,-0.20947266,1.4081421,-0.039123535
1601135364653,1976,0.39453125,0.43328857,0.50994873
1601135364653,1977,-0.67041016,1.6801147,0.13641357
1601135364654,1978,0.91503906,0.6442261,0.59295654
1601135364654,1979,-0.67041016,1.6801147,0.13641357
1601135364659,1980,0.39770508,0.54241943,0.24554443
1601135364660,1981,0.91503906,0.6442261,0.59295654
1601135364660,1982,0.91503906,0.6442261,0.59295654
1601135364660,1983,0.39453125,0.43328857,0.50994873
1601135364660,1984,0.11230469,0.34173584,0.5338745
1601135364660,1985,-0.20947266,1.4081421,-0.039123535
1601135364660,1986,0.39453125,0.43328857,0.50994873
1601135364660,1987,-0.67041016,1.6801147,0.13641357
1601135364660,1988,0.39453125,0.43328857,0.50994873
1601135364660,1989,-0.20947266,1.4081421,-0.039123535
1601135364660,1990,0.39453125,0.43328857,0.50994873
1601135364660,1991,-0.20947266,1.4081421,-0.039123535
1601135364663,1992,-0.20947266,1.4081421,-0.039123535
1601135364670,1993,0.39770508,0.54241943,0.24554443
1601135364670,1994,0.39770508,0.54241943,0.24554443
1601135364671,1995,0.91503906,0.6442261,0.59295654
1601135364671,1996,0.11230469,0.34173584,0.5338745
1601135364671,1997,-0.20947266,1.4081421,-0.039123535
1601135364671,1998,0.39453125,0.43328857,0.50994873
1601135364671,1999,0.39453125,0.43328857,0.50994873
1601135364671,2000,0.39770508,0.54241943,0.24554443
1601135364671,2001,-0.20947266,1.4081421,-0.039123535
1601135364671,2002,-0.0703125,0.7938843,0.6906128
1601135364671,2003,0.39770508,0.54241943,0.24554443
1601135364673,2004,0.39770508,0.54241943,0.24554443
1601135364674,2005,0.11230469,0.34173584,0.5338745
1601135364674,2006,-0.20947266,1.4081421,-0.039123535
1601135364674,2007,-0.0056152344,1.0111694,0.73065186
1601135364674,2008,0.39770508,0.54241943,0.24554443
1601135364674,2009,0.118652344,0.93255615,0.60321045
1601135364674,2010,-0.0703125,0.7938843,0.6906128
1601135364674,2011,-0.20947266,1.4081421,-0.039123535
1601135364676,2012,0.16699219,0.9472046,0.5307007
1601135364676,2013,-0.0703125,0.7938843,0.6906128
1601135364676,2014,0.11230469,0.34173584,0.5338745
1601135364676,2015,0.39770508,0.54241943,0.24554443
1601135364692,2016,0.11230469,0.34173584,0.5338745
1601135364692,2017,0.11230469,0.34173584,0.5338745
1601135364692,2018,-0.0056152344,1.0111694,0.73065186
1601135364692,2019,0.39770508,0.54241943,0.24554443
1601135364692,2020,-0.0703125,0.7938843,0.6906128
1601135364692,2021,0.11230469,0.34173584,0.5338745
1601135364693,2022,-0.0056152344,1.0111694,0.73065186
1601135364693,2023,-0.0703125,0.7938843,0.6906128
1601135364693,2024,-0.04736328,0.7748413,0.6454468
1601135364693,2025,0.11230469,0.34173584,0.5338745
1601135364693,2026,-0.080078125,0.6976929,0.5570679
1601135364694,2027,-0.0703125,0.7938843,0.6906128
1601135364694,2028,0.11230469,0.34173584,0.5338745
1601135364694,2029,0.118652344,0.93255615,0.60321045
1601135364695,2030,0.118652344,0.93255615,0.60321045
1601135364695,2031,-0.0703125,0.7938843,0.6906128
1601135364695,2032,0.39453125,0.43328857,0.50994873
1601135364695,2033,-0.0056152344,1.0111694,0.73065186
1601135364695,2034,0.16699219,0.9472046,0.5307007
1601135364695,2035,-0.20947266,1.4081421,-0.039123535
1601135364695,2036,0.06933594,0.6588745,0.5026245
1601135364695,2037,-0.04736328,0.7748413,0.6454468
1601135364695,2038,-0.0056152344,1.0111694,0.73065186
1601135364695,2039,0.16699219,0.9472046,0.5307007
1601135364695,2040,-0.080078125,0.6976929,0.5570679
1601135364695,2041,0.118652344,0.93255615,0.60321045
1601135364695,2042,-0.0703125,0.7938843,0.6906128
1601135364695,2043,0.39770508,0.54241943,0.24554443
1601135364695,2044,0.16699219,0.9472046,0.5307007
1601135364697,2045,0.11230469,0.34173584,0.5338745
1601135364697,2046,-0.0056152344,1.0111694,0.73065186
1601135364697,2047,0.009033203,0.8048706,0.5014038
1601135364698,2048,-0.0703125,0.7938843,0.6906128
1601135364698,2049,-0.0056152344,1.0111694,0.73065186
1601135364698,2050,-0.04736328,0.7748413,0.6454468
1601135364699,2051,0.118652344,0.93255615,0.60321045
1601135364699,2052,-0.0703125,0.7938843,0.6906128
1601135364699,2053,-0.0056152344,1.0111694,0.73065186
1601135364699,2054,0.16699219,0.9472046,0.5307007
1601135364699,2055,0.06933594,0.6588745,0.5026245
1601135364699,2056,-0.0056152344,1.0111694,0.73065186
1601135364706,2057,0.118652344,0.93255615,0.60321045
1601135364710,2058,-0.080078125,0.6976929,0.5570679
1601135364710,2059,0.09643555,0.66278076,0.6727905
1601135364710,2060,-0.0056152344,1.0111694,0.73065186
1601135364710,2061,0.118652344,0.93255615,0.60321045
1601135364710,2062,0.118652344,0.93255615,0.60321045
1601135364711,2063,-0.04736328,0.7748413,0.6454468
1601135364711,2064,0.06933594,0.6588745,0.5026245
1601135364711,2065,-0.080078125,0.6976929,0.5570679
1601135364711,2066,0.118652344,0.93255615,0.60321045
1601135364711,2067,0.06933594,0.6588745,0.5026245
1601135364711,2068,0.009033203,0.8048706,0.5014038
1601135364711,2069,0.009033203,0.8048706,0.5014038
1601135364711,2070,0.118652344,0.93255615,0.60321045
1601135364711,2071,0.09643555,0.66278076,0.6727905
1601135364711,2072,0.16699219,0.9472046,0.5307007
1601135364711,2073,0.13745117,0.6625366,0.6425171
1601135364712,2074,0.16699219,0.9472046,0.5307007
1601135364712,2075,0.16699219,0.9472046,0.5307007
1601135364712,2076,0.16699219,0.9472046,0.5307007
1601135364712,2077,0.009033203,0.8048706,0.5014038
1601135364713,2078,0.09643555,0.66278076,0.6727905
1601135364714,2079,0.16699219,0.9472046,0.5307007
1601135364714,2080,0.13745117,0.6625366,0.6425171
1601135364714,2081,0.13745117,0.6625366,0.6425171
1601135364714,2082,0.30151367,1.1515503,0.28118896
1601135364714,2083,-0.04736328,0.7748413,0.6454468
1601135364714,2084,-0.04736328,0.7748413,0.6454468
1601135364715,2085,-0.04736328,0.7748413,0.6454468
1601135364715,2086,-0.04736328,0.7748413,0.6454468
1601135364715,2087,0.3334961,0.5829468,0.5685425
1601135364715,2088,-0.04736328,0.7748413,0.6454468
1601135364715,2089,-0.04736328,0.7748413,0.6454468
1601135364716,2090,0.30151367,1.1515503,0.28118896
1601135364720,2091,-0.080078125,0.6976929,0.5570679
1601135364720,2092,-0.080078125,0.6976929,0.5570679
1601135364721,2093,0.09643555,0.66278076,0.6727905
1601135364721,2094,-0.080078125,0.6976929,0.5570679
1601135364721,2095,-0.080078125,0.6976929,0.5570679
1601135364721,2096,-0.080078125,0.6976929,0.5570679
1601135364721,2097,0.28295898,0.633728,0.4694214
1601135364721,2098,-0.080078125,0.6976929,0.5570679
1601135364722,2099,0.06933594,0.6588745,0.5026245
1601135364727,2100,0.06933594,0.6588745,0.5026245
1601135364728,2101,0.13745117,0.6625366,0.6425171
1601135364728,2102,0.3334961,0.5829468,0.5685425
1601135364728,2103,0.06933594,0.6588745,0.5026245
1601135364728,2104,0.30151367,1.1515503,0.28118896
1601135364728,2105,0.06933594,0.6588745,0.5026245
1601135364728,2106,0.06933594,0.6588745,0.5026245
1601135364728,2107,0.009033203,0.8048706,0.5014038
1601135364728,2108,0.009033203,0.8048706,0.5014038
1601135364728,2109,0.009033203,0.8048706,0.5014038
1601135364728,2110,0.09643555,0.66278076,0.6727905
1601135364729,2111,0.009033203,0.8048706,0.5014038
1601135364729,2112,0.3334961,0.5829468,0.5685425
1601135364729,2113,0.009033203,0.8048706,0.5014038
1601135364729,2114,0.09643555,0.66278076,0.6727905
1601135364730,2115,0.30151367,1.1515503,0.28118896
1601135364730,2116,0.06933594,0.6588745,0.5026245
1601135364730,2117,0.18457031,0.79241943,0.32781982
1601135364730,2118,0.09643555,0.66278076,0.6727905
1601135364731,2119,0.13745117,0.6625366,0.6425171
1601135364733,2120,0.28295898,0.633728,0.4694214
1601135364742,2121,0.09643555,0.66278076,0.6727905
1601135364742,2122,0.13745117,0.6625366,0.6425171
1601135364743,2123,0.009033203,0.8048706,0.5014038
1601135364744,2124,0.13745117,0.6625366,0.6425171
1601135364744,2125,0.3334961,0.5829468,0.5685425
1601135364744,2126,0.21240234,0.71746826,0.29974365
1601135364745,2127,0.28295898,0.633728,0.4694214
1601135364745,2128,0.30151367,1.1515503,0.28118896
1601135364745,2129,0.30151367,1.1515503,0.28118896
1601135364745,2130,0.18457031,0.79241943,0.32781982
1601135364745,2131,0.3334961,0.5829468,0.5685425
1601135364745,2132,0.18457031,0.79241943,0.32781982
1601135364745,2133,0.30151367,1.1515503,0.28118896
1601135364745,2134,0.09643555,0.66278076,0.6727905
1601135364745,2135,0.3334961,0.5829468,0.5685425
1601135364745,2136,0.13745117,0.6625366,0.6425171
1601135364745,2137,0.09643555,0.66278076,0.6727905
1601135364745,2138,0.13745117,0.6625366,0.6425171
1601135364749,2139,0.21240234,0.71746826,0.29974365
1601135364749,2140,0.21240234,0.71746826,0.29974365
1601135364749,2141,0.3334961,0.5829468,0.5685425
1601135364749,2142,0.28295898,0.633728,0.4694214
1601135364749,2143,0.28295898,0.633728,0.4694214
1601135364749,2144,0.22094727,0.90252686,0.25238037
1601135364749,2145,0.28295898,0.633728,0.4694214
1601135364750,2146,0.30151367,1.1515503,0.28118896
1601135364750,2147,0.13745117,0.6625366,0.6425171
1601135364750,2148,0.18457031,0.79241943,0.32781982
1601135364750,2149,0.22094727,0.90252686,0.25238037
1601135364751,2150,0.28295898,0.633728,0.4694214
1601135364751,2151,0.30151367,1.1515503,0.28118896
1601135364755,2152,0.32983398,0.9784546,0.32513428
1601135364755,2153,0.30151367,1.1515503,0.28118896
1601135364755,2154,0.21240234,0.71746826,0.29974365
1601135364755,2155,0.3334961,0.5829468,0.5685425
1601135364756,2156,0.22094727,0.90252686,0.25238037
1601135364756,2157,0.32983398,0.9784546,0.32513428
1601135364756,2158,0.18457031,0.79241943,0.32781982
1601135364756,2159,0.28295898,0.633728,0.4694214
1601135364756,2160,0.18457031,0.79241943,0.32781982
1601135364756,2161,0.3334961,0.5829468,0.5685425
1601135364759,2162,0.30859375,0.8234253,0.36834717
1601135364760,2163,0.22094727,0.90252686,0.25238037
1601135364760,2164,0.3334961,0.5829468,0.5685425
1601135364760,2165,0.18457031,0.79241943,0.32781982
1601135364760,2166,0.30859375,0.8234253,0.36834717
1601135364760,2167,0.18457031,0.79241943,0.32781982
1601135364760,2168,0.32983398,0.9784546,0.32513428
1601135364760,2169,0.21240234,0.71746826,0.29974365
1601135364760,2170,0.21240234,0.71746826,0.29974365
1601135364760,2171,0.32983398,0.9784546,0.32513428
1601135364760,2172,0.22094727,0.90252686,0.25238037
1601135364760,2173,0.20678711,0.8588257,0.28533936
1601135364776,2174,0.21240234,0.71746826,0.29974365
1601135364776,2175,0.22094727,0.90252686,0.25238037
1601135364776,2176,0.203125,0.8825073,0.25946045
1601135364776,2177,0.32983398,0.9784546,0.32513428
1601135364776,2178,0.30859375,0.8234253,0.36834717
1601135364776,2179,0.28295898,0.633728,0.4694214
1601135364776,2180,0.22094727,0.90252686,0.25238037
1601135364776,2181,0.30859375,0.8234253,0.36834717
1601135364776,2182,0.32983398,0.9784546,0.32513428
1601135364776,2183,0.21240234,0.71746826,0.29974365
1601135364776,2184,0.32983398,0.9784546,0.32513428
1601135364776,2185,0.28295898,0.633728,0.4694214
1601135364776,2186,0.30859375,0.8234253,0.36834717
1601135364777,2187,0.20678711,0.8588257,0.28533936
1601135364777,2188,0.25708008,0.793396,0.27630615
1601135364777,2189,0.20678711,0.8588257,0.28533936
1601135364777,2190,0.18457031,0.79241943,0.32781982
1601135364777,2191,0.20678711,0.8588257,0.28533936
1601135364777,2192,0.30859375,0.8234253,0.36834717
1601135364777,2193,0.30859375,0.8234253,0.36834717
1601135364777,2194,0.22094727,0.90252686,0.25238037
1601135364777,2195,0.20678711,0.8588257,0.28533936
1601135364777,2196,0.18457031,0.79241943,0.32781982
1601135364777,2197,0.203125,0.8825073,0.25946045
1601135364777,2198,0.203125,0.8825073,0.25946045
1601135364777,2199,0.24829102,0.90130615,0.27093506
1601135364777,2200,0.203125,0.8825073,0.25946045
1601135364777,2201,0.203125,0.8825073,0.25946045
1601135364777,2202,0.25708008,0.793396,0.27630615
1601135364777,2203,0.20678711,0.8588257,0.28533936
1601135364777,2204,0.21240234,0.71746826,0.29974365
1601135364777,2205,0.203125,0.8825073,0.25946045
1601135364778,2206,0.21240234,0.71746826,0.29974365
1601135364778,2207,0.25708008,0.793396,0.27630615
1601135364778,2208,0.25708008,0.793396,0.27630615
1601135364778,2209,0.22094727,0.90252686,0.25238037
1601135364781,2210,0.25708008,0.793396,0.27630615
1601135364781,2211,0.24829102,0.90130615,0.27093506
1601135364781,2212,0.24829102,0.90130615,0.27093506
1601135364782,2213,0.22094727,0.90252686,0.25238037
1601135364782,2214,0.25708008,0.793396,0.27630615
1601135364782,2215,0.24829102,0.90130615,0.27093506
1601135364782,2216,0.20678711,0.8588257,0.28533936
1601135364787,2217,0.32983398,0.9784546,0.32513428
1601135364788,2218,0.24829102,0.90130615,0.27093506
1601135364789,2219,0.32983398,0.9784546,0.32513428
1601135364789,2220,0.24829102,0.90130615,0.27093506
1601135364790,2221,0.32983398,0.9784546,0.32513428
1601135364790,2222,0.30859375,0.8234253,0.36834717
1601135364790,2223,0.30859375,0.8234253,0.36834717
1601135364791,2224,0.203125,0.8825073,0.25946045
1601135364791,2225,0.30859375,0.8234253,0.36834717
1601135364791,2226,0.20678711,0.8588257,0.28533936
1601135364791,2227,0.20678711,0.8588257,0.28533936
1601135364791,2228,0.25708008,0.793396,0.27630615
1601135364791,2229,0.20678711,0.8588257,0.28533936
1601135364791,2230,0.203125,0.8825073,0.25946045
1601135364794,2231,0.203125,0.8825073,0.25946045
1601135364794,2232,0.203125,0.8825073,0.25946045
1601135364794,2233,0.24829102,0.90130615,0.27093506
1601135364794,2234,0.25708008,0.793396,0.27630615
1601135364794,2235,0.25708008,0.793396,0.27630615
1601135364797,2236,0.25708008,0.793396,0.27630615
1601135364797,2237,0.24829102,0.90130615,0.27093506
1601135364798,2238,0.24829102,0.90130615,0.27093506
1601135364798,2239,0.24829102,0.90130615,0.27093506
1601135367180,2240,0.23608398,0.86224365,0.30218506
1601135367187,2241,0.23608398,0.86224365,0.30218506
1601135367188,2242,0.23608398,0.86224365,0.30218506
1601135367190,2243,0.23608398,0.86224365,0.30218506
1601135367192,2244,0.23608398,0.86224365,0.30218506
1601135367193,2245,0.2253418,0.76190186,0.35980225
1601135367193,2246,0.23608398,0.86224365,0.30218506
1601135367194,2247,0.23608398,0.86224365,0.30218506
1601135367195,2248,0.23608398,0.86224365,0.30218506
1601135367197,2249,0.23608398,0.86224365,0.30218506
1601135367197,2250,0.2253418,0.76190186,0.35980225
1601135367197,2251,0.2253418,0.76190186,0.35980225
1601135367197,2252,0.23730469,0.8383179,0.3204956
1601135367197,2253,0.2253418,0.76190186,0.35980225
1601135367197,2254,0.2253418,0.76190186,0.35980225
1601135367197,2255,0.2253418,0.76190186,0.35980225
1601135367198,2256,0.23730469,0.8383179,0.3204956
1601135367198,2257,0.23730469,0.8383179,0.3204956
1601135367198,2258,0.2253418,0.76190186,0.35980225
1601135367198,2259,0.23730469,0.8383179,0.3204956
1601135367206,2260,0.2253418,0.76190186,0.35980225
1601135367206,2261,0.2253418,0.76190186,0.35980225
1601135367206,2262,0.23730469,0.8383179,0.3204956
1601135367207,2263,0.23608398,0.86224365,0.30218506
1601135367207,2264,0.2536621,0.87542725,0.2855835
1601135367207,2265,0.2536621,0.87542725,0.2855835
1601135367207,2266,0.23730469,0.8383179,0.3204956
1601135367207,2267,0.2253418,0.76190186,0.35980225
1601135367207,2268,0.23730469,0.8383179,0.3204956
1601135367207,2269,0.23730469,0.8383179,0.3204956
1601135367207,2270,0.2536621,0.87542725,0.2855835
1601135367207,2271,0.2536621,0.87542725,0.2855835
1601135367219,2272,0.2536621,0.9179077,0.28216553
1601135367221,2273,0.2536621,0.87542725,0.2855835
1601135367221,2274,0.23730469,0.8383179,0.3204956
1601135367221,2275,0.2536621,0.87542725,0.2855835
1601135367221,2276,0.2536621,0.87542725,0.2855835
1601135367221,2277,0.2536621,0.9179077,0.28216553
1601135367221,2278,0.2536621,0.87542725,0.2855835
1601135367222,2279,0.23730469,0.8383179,0.3204956
1601135367222,2280,0.2536621,0.9179077,0.28216553
1601135367222,2281,0.2536621,0.9179077,0.28216553
1601135367228,2282,0.2626953,0.9281616,0.28656006
1601135367228,2283,0.2536621,0.9179077,0.28216553
1601135367229,2284,0.2536621,0.9179077,0.28216553
1601135367229,2285,0.2626953,0.9281616,0.28656006
1601135367229,2286,0.2536621,0.87542725,0.2855835
1601135367229,2287,0.2536621,0.9179077,0.28216553
1601135367229,2288,0.2536621,0.9179077,0.28216553
1601135367229,2289,0.2626953,0.9281616,0.28656006
1601135367230,2290,0.2626953,0.9281616,0.28656006
1601135367230,2291,0.2536621,0.87542725,0.2855835
1601135367240,2292,0.27661133,0.76068115,0.34954834
1601135367240,2293,0.2626953,0.9281616,0.28656006
1601135367240,2294,0.2626953,0.9281616,0.28656006
1601135367240,2295,0.27661133,0.76068115,0.34954834
1601135367240,2296,0.2536621,0.9179077,0.28216553
1601135367241,2297,0.2626953,0.9281616,0.28656006
1601135367241,2298,0.27661133,0.76068115,0.34954834
1601135367241,2299,0.27661133,0.76068115,0.34954834
1601135367241,2300,0.2626953,0.9281616,0.28656006
1601135367241,2301,0.2866211,0.74798584,0.3764038
1601135367242,2302,0.2866211,0.74798584,0.3764038
1601135367242,2303,0.2866211,0.74798584,0.3764038
1601135367242,2304,0.27661133,0.76068115,0.34954834
1601135367242,2305,0.27661133,0.76068115,0.34954834
1601135367242,2306,0.27661133,0.76068115,0.34954834
1601135367242,2307,0.2626953,0.9281616,0.28656006
1601135367242,2308,0.27661133,0.76068115,0.34954834
1601135367243,2309,0.2536621,0.9179077,0.28216553
1601135367243,2310,0.4267578,0.543396,0.4869995
1601135367245,2311,0.4267578,0.543396,0.4869995
1601135367245,2312,0.4267578,0.543396,0.4869995
1601135367246,2313,0.2866211,0.74798584,0.3764038
1601135367246,2314,0.2866211,0.74798584,0.3764038
1601135367246,2315,0.2866211,0.74798584,0.3764038
1601135367246,2316,0.4267578,0.543396,0.4869995
1601135367246,2317,0.4267578,0.543396,0.4869995
1601135367246,2318,0.27661133,0.76068115,0.34954834
1601135367246,2319,0.2626953,0.9281616,0.28656006
1601135367246,2320,0.2866211,0.74798584,0.3764038
1601135367246,2321,0.36157227,0.6234741,0.5348511
1601135367254,2322,0.36157227,0.6234741,0.5348511
1601135367254,2323,0.4267578,0.543396,0.4869995
1601135367254,2324,0.2866211,0.74798584,0.3764038
1601135367254,2325,0.2866211,0.74798584,0.3764038
1601135367254,2326,0.36157227,0.6234741,0.5348511
1601135367255,2327,0.4267578,0.543396,0.4869995
1601135367255,2328,0.36157227,0.6234741,0.5348511
1601135367255,2329,0.27661133,0.76068115,0.34954834
1601135367255,2330,0.36157227,0.6234741,0.5348511
1601135367255,2331,0.09472656,1.022644,0.5072632
1601135367255,2332,0.09472656,1.022644,0.5072632
1601135367261,2333,0.4267578,0.543396,0.4869995
1601135367263,2334,0.09472656,1.022644,0.5072632
1601135367263,2335,0.36157227,0.6234741,0.5348511
1601135367263,2336,0.4267578,0.543396,0.4869995
1601135367263,2337,0.09472656,1.022644,0.5072632
1601135367263,2338,0.2866211,0.74798584,0.3764038
1601135367263,2339,0.09472656,1.022644,0.5072632
1601135367263,2340,0.3244629,0.682312,0.73480225
1601135367263,2341,0.36157227,0.6234741,0.5348511
1601135367264,2342,0.36157227,0.6234741,0.5348511
1601135367265,2343,0.3244629,0.682312,0.73480225
1601135367265,2344,0.09472656,1.022644,0.5072632
1601135367265,2345,0.18579102,0.88616943,0.32366943
1601135367265,2346,0.36157227,0.6234741,0.5348511
1601135367265,2347,0.4267578,0.543396,0.4869995
1601135367270,2348,0.3244629,0.682312,0.73480225
1601135367270,2349,0.18579102,0.88616943,0.32366943
1601135367270,2350,0.09472656,1.022644,0.5072632
1601135367271,2351,0.09472656,1.022644,0.5072632
1601135367271,2352,-0.44091797,0.44647217,0.43182373
1601135367271,2353,0.3244629,0.682312,0.73480225
1601135367271,2354,-0.44091797,0.44647217,0.43182373
1601135367272,2355,0.3244629,0.682312,0.73480225
1601135367272,2356,0.09472656,1.022644,0.5072632
1601135367272,2357,0.36157227,0.6234741,0.5348511
1601135367278,2358,0.3244629,0.682312,0.73480225
1601135367278,2359,0.18579102,0.88616943,0.32366943
1601135367279,2360,-0.9562988,0.28778076,0.5824585
1601135367279,2361,0.3244629,0.682312,0.73480225
1601135367279,2362,0.18579102,0.88616943,0.32366943
1601135367279,2363,0.3244629,0.682312,0.73480225
1601135367279,2364,-0.9562988,0.28778076,0.5824585
1601135367279,2365,0.09472656,1.022644,0.5072632
1601135367279,2366,0.18579102,0.88616943,0.32366943
1601135367279,2367,0.3244629,0.682312,0.73480225
1601135367279,2368,0.18579102,0.88616943,0.32366943
1601135367280,2369,0.3244629,0.682312,0.73480225
1601135367280,2370,-0.7426758,0.59783936,0.4960327
1601135367280,2371,0.18579102,0.88616943,0.32366943
1601135367280,2372,0.18579102,0.88616943,0.32366943
1601135367285,2373,-0.44091797,0.44647217,0.43182373
