# Sensor position: Chest
# Sensor side: Right
# Activity type: Walking at normal speed
# Activity code: 1
# Subject id: s1735229
timestamp,seq,accel_x,accel_y,accel_z
1601136837614,0,0.21948242,-0.973938,-0.097717285
1601136837614,1,0.15014648,-1.1524048,0.026794434
1601136837614,2,-4.8828125E-4,-0.92974854,-0.16851807
1601136837614,3,0.40893555,-0.8777466,-0.14849854
1601136837614,4,0.11645508,-1.0408325,0.0072631836
1601136837614,5,0.2709961,-1.0567017,-0.066467285
1601136837614,6,0.34838867,-0.94415283,-0.07940674
1601136837615,7,0.21948242,-0.973938,-0.097717285
1601136837615,8,0.32836914,-0.96051025,-0.08502197
1601136837615,9,-4.8828125E-4,-0.92974854,-0.16851807
1601136837615,10,0.21948242,-0.973938,-0.097717285
1601136837615,11,0.15014648,-1.1524048,0.026794434
1601136837615,12,0.15014648,-1.1524048,0.026794434
1601136837615,13,0.34838867,-0.94415283,-0.07940674
1601136837615,14,0.11645508,-1.0408325,0.0072631836
1601136837615,15,0.10888672,-0.8804321,0.059020996
1601136837616,16,0.34838867,-0.94415283,-0.07940674
1601136837620,17,-4.8828125E-4,-0.92974854,-0.16851807
1601136837623,18,0.11645508,-1.0408325,0.0072631836
1601136837624,19,0.32836914,-0.96051025,-0.08502197
1601136837624,20,0.15014648,-1.1524048,0.026794434
1601136837627,21,-4.8828125E-4,-0.92974854,-0.16851807
1601136837628,22,0.10888672,-0.8804321,0.059020996
1601136837628,23,0.10058594,-0.9673462,0.13031006
1601136837628,24,0.32836914,-0.96051025,-0.08502197
1601136837628,25,0.31347656,-0.9631958,-0.09259033
1601136837628,26,0.15014648,-1.1524048,0.026794434
1601136837628,27,0.32836914,-0.96051025,-0.08502197
1601136837628,28,0.30444336,-1.0083618,-0.050109863
1601136837628,29,0.13793945,-0.9458618,0.10614014
1601136837628,30,0.31347656,-0.9631958,-0.09259033
1601136837628,31,0.10058594,-0.9673462,0.13031006
1601136837628,32,0.31347656,-0.9631958,-0.09259033
1601136837639,33,0.30444336,-1.0083618,-0.050109863
1601136837639,34,0.11645508,-1.0408325,0.0072631836
1601136837639,35,0.1303711,-1.0371704,0.14105225
1601136837639,36,0.15014648,-1.1524048,0.026794434
1601136837640,37,0.2709961,-1.0567017,-0.066467285
1601136837640,38,0.11645508,-1.0408325,0.0072631836
1601136837640,39,0.13793945,-0.9458618,0.10614014
1601136837640,40,0.2709961,-1.0567017,-0.066467285
1601136837640,41,0.10888672,-0.8804321,0.059020996
1601136837640,42,0.1303711,-1.0371704,0.14105225
1601136837640,43,0.10058594,-0.9673462,0.13031006
1601136837640,44,0.21972656,-1.1172485,0.066345215
1601136837640,45,0.30444336,-1.0083618,-0.050109863
1601136837640,46,0.21972656,-1.1172485,0.066345215
1601136837640,47,0.21948242,-0.973938,-0.097717285
1601136837640,48,0.11645508,-1.0408325,0.0072631836
1601136837641,49,0.21948242,-0.973938,-0.097717285
1601136837641,50,0.31347656,-0.9631958,-0.09259033
1601136837641,51,0.10888672,-0.8804321,0.059020996
1601136837641,52,0.10888672,-0.8804321,0.059020996
1601136837641,53,0.10888672,-0.8804321,0.059020996
1601136837641,54,0.30444336,-1.0083618,-0.050109863
1601136837641,55,0.2709961,-1.0567017,-0.066467285
1601136837645,56,-4.8828125E-4,-0.92974854,-0.16851807
1601136837645,57,0.24682617,-1.0322876,-0.0881958
1601136837645,58,0.15014648,-1.1524048,0.026794434
1601136837646,59,-4.8828125E-4,-0.92974854,-0.16851807
1601136837646,60,0.10058594,-0.9673462,0.13031006
1601136837646,61,0.10058594,-0.9673462,0.13031006
1601136837646,62,0.27783203,-0.96588135,-0.07745361
1601136837646,63,0.13793945,-0.9458618,0.10614014
1601136837646,64,0.24682617,-1.0322876,-0.0881958
1601136837646,65,0.21948242,-0.973938,-0.097717285
1601136837653,66,0.11645508,-1.0408325,0.0072631836
1601136837653,67,0.10058594,-0.9673462,0.13031006
1601136837654,68,0.13793945,-0.9458618,0.10614014
1601136837654,69,0.10888672,-0.8804321,0.059020996
1601136837655,70,0.15014648,-1.1524048,0.026794434
1601136837655,71,0.13793945,-0.9458618,0.10614014
1601136837655,72,0.3112793,-0.9265747,-0.19146729
1601136837655,73,0.1303711,-1.0371704,0.14105225
1601136837655,74,0.1303711,-1.0371704,0.14105225
1601136837655,75,0.27783203,-0.96588135,-0.07745361
1601136837655,76,0.21972656,-1.1172485,0.066345215
1601136837655,77,0.21972656,-1.1172485,0.066345215
1601136837655,78,0.2709961,-1.0567017,-0.066467285
1601136837659,79,0.1303711,-1.0371704,0.14105225
1601136837659,80,0.24682617,-1.0322876,-0.0881958
1601136837659,81,0.11645508,-1.0408325,0.0072631836
1601136837659,82,-4.8828125E-4,-0.92974854,-0.16851807
1601136837659,83,0.21972656,-1.1172485,0.066345215
1601136837659,84,0.13793945,-0.9458618,0.10614014
1601136837660,85,0.15014648,-1.1524048,0.026794434
1601136837660,86,0.24682617,-1.0322876,-0.0881958
1601136837660,87,0.3112793,-0.9265747,-0.19146729
1601136837660,88,0.10058594,-0.9673462,0.13031006
1601136837661,89,0.31201172,-0.9841919,-0.12261963
1601136837661,90,0.31201172,-0.9841919,-0.12261963
1601136837661,91,0.21948242,-0.973938,-0.097717285
1601136837661,92,0.10888672,-0.8804321,0.059020996
1601136837661,93,0.24682617,-1.0322876,-0.0881958
1601136837664,94,0.11645508,-1.0408325,0.0072631836
1601136837664,95,0.27783203,-0.96588135,-0.07745361
1601136837665,96,0.3112793,-0.9265747,-0.19146729
1601136837666,97,0.27783203,-0.96588135,-0.07745361
1601136837666,98,0.31201172,-0.9841919,-0.12261963
1601136837666,99,-4.8828125E-4,-0.92974854,-0.16851807
1601136837666,100,0.33154297,-0.9602661,-0.07574463
1601136837667,101,0.10058594,-0.9673462,0.13031006
1601136837667,102,0.1303711,-1.0371704,0.14105225
1601136837670,103,0.21972656,-1.1172485,0.066345215
1601136837670,104,0.33154297,-0.9602661,-0.07574463
1601136837670,105,0.24682617,-1.0322876,-0.0881958
1601136837670,106,0.3112793,-0.9265747,-0.19146729
1601136837671,107,0.33154297,-0.9602661,-0.07574463
1601136837671,108,0.15014648,-1.1524048,0.026794434
1601136837671,109,0.13793945,-0.9458618,0.10614014
1601136837671,110,0.13793945,-0.9458618,0.10614014
1601136837671,111,0.11645508,-1.0408325,0.0072631836
1601136837671,112,0.10888672,-0.8804321,0.059020996
1601136837671,113,0.27783203,-0.96588135,-0.07745361
1601136837680,114,0.1303711,-1.0371704,0.14105225
1601136837680,115,0.10888672,-0.8804321,0.059020996
1601136837680,116,0.1303711,-1.0371704,0.14105225
1601136837681,117,0.10058594,-0.9673462,0.13031006
1601136837681,118,0.31201172,-0.9841919,-0.12261963
1601136837681,119,0.21972656,-1.1172485,0.066345215
1601136837681,120,0.3112793,-0.9265747,-0.19146729
1601136837681,121,0.21972656,-1.1172485,0.066345215
1601136837681,122,0.10058594,-0.9673462,0.13031006
1601136837681,123,0.24682617,-1.0322876,-0.0881958
1601136837681,124,0.27783203,-0.96588135,-0.07745361
1601136837682,125,0.13793945,-0.9458618,0.10614014
1601136837682,126,0.24682617,-1.0322876,-0.0881958
1601136837683,127,0.13793945,-0.9458618,0.10614014
1601136837683,128,0.33154297,-0.9602661,-0.07574463
1601136837683,129,0.1303711,-1.0371704,0.14105225
1601136837683,130,0.3112793,-0.9265747,-0.19146729
1601136837683,131,0.1303711,-1.0371704,0.14105225
1601136837685,132,0.27783203,-0.96588135,-0.07745361
1601136837685,133,0.31201172,-0.9841919,-0.12261963
1601136837685,134,0.3112793,-0.9265747,-0.19146729
1601136837685,135,0.27783203,-0.96588135,-0.07745361
1601136837685,136,0.33154297,-0.9602661,-0.07574463
1601136837685,137,0.21972656,-1.1172485,0.066345215
1601136837685,138,0.21972656,-1.1172485,0.066345215
1601136837687,139,0.3112793,-0.9265747,-0.19146729
1601136837699,140,0.24682617,-1.0322876,-0.0881958
1601136837699,141,0.24682617,-1.0322876,-0.0881958
1601136837699,142,0.27783203,-0.96588135,-0.07745361
1601136837699,143,0.31201172,-0.9841919,-0.12261963
1601136837699,144,0.31201172,-0.9841919,-0.12261963
1601136837699,145,0.3112793,-0.9265747,-0.19146729
1601136837699,146,0.31201172,-0.9841919,-0.12261963
1601136837699,147,0.33154297,-0.9602661,-0.07574463
1601136837700,148,0.31201172,-0.9841919,-0.12261963
1601136837702,149,0.27783203,-0.96588135,-0.07745361
1601136837702,150,0.33154297,-0.9602661,-0.07574463
1601136837702,151,0.33154297,-0.9602661,-0.07574463
1601136837703,152,0.33154297,-0.9602661,-0.07574463
1601136837703,153,0.3112793,-0.9265747,-0.19146729
1601136837704,154,0.31201172,-0.9841919,-0.12261963
1601136837706,155,0.33154297,-0.9602661,-0.07574463
1601136840021,156,0.3466797,-0.8953247,-0.094055176
1601136840021,157,0.3466797,-0.8953247,-0.094055176
1601136840027,158,0.3466797,-0.8953247,-0.094055176
1601136840032,159,0.3466797,-0.8953247,-0.094055176
1601136840032,160,0.32910156,-0.9873657,-0.07208252
1601136840038,161,0.3466797,-0.8953247,-0.094055176
1601136840039,162,0.3466797,-0.8953247,-0.094055176
1601136840039,163,0.3466797,-0.8953247,-0.094055176
1601136840040,164,0.3466797,-0.8953247,-0.094055176
1601136840040,165,0.32910156,-0.9873657,-0.07208252
1601136840040,166,0.3466797,-0.8953247,-0.094055176
1601136840040,167,0.32910156,-0.9873657,-0.07208252
1601136840040,168,0.32910156,-0.9873657,-0.07208252
1601136840041,169,0.3388672,-0.97442627,-0.06427002
1601136840041,170,0.32910156,-0.9873657,-0.07208252
1601136840042,171,0.37597656,-0.95513916,-0.013000488
1601136840043,172,0.32910156,-0.9873657,-0.07208252
1601136840043,173,0.3684082,-0.95098877,0.024108887
1601136840043,174,0.32910156,-0.9873657,-0.07208252
1601136840043,175,0.3466797,-0.8953247,-0.094055176
1601136840043,176,0.32910156,-0.9873657,-0.07208252
1601136840043,177,0.32910156,-0.9873657,-0.07208252
1601136840043,178,0.32910156,-0.9873657,-0.07208252
1601136840043,179,0.3388672,-0.97442627,-0.06427002
1601136840043,180,0.3388672,-0.97442627,-0.06427002
1601136840043,181,0.3388672,-0.97442627,-0.06427002
1601136840044,182,0.3388672,-0.97442627,-0.06427002
1601136840044,183,0.3388672,-0.97442627,-0.06427002
1601136840044,184,0.31518555,-0.9949341,0.031188965
1601136840044,185,0.37597656,-0.95513916,-0.013000488
1601136840045,186,0.37597656,-0.95513916,-0.013000488
1601136840046,187,0.37597656,-0.95513916,-0.013000488
1601136840047,188,0.37597656,-0.95513916,-0.013000488
1601136840049,189,0.3684082,-0.95098877,0.024108887
1601136840056,190,0.23999023,-1.211731,-0.03326416
1601136840057,191,0.3684082,-0.95098877,0.024108887
1601136840057,192,0.3388672,-0.97442627,-0.06427002
1601136840057,193,0.31518555,-0.9949341,0.031188965
1601136840057,194,0.3388672,-0.97442627,-0.06427002
1601136840060,195,0.03515625,-0.9365845,-0.10723877
1601136840060,196,0.37597656,-0.95513916,-0.013000488
1601136840060,197,0.3684082,-0.95098877,0.024108887
1601136840060,198,0.3388672,-0.97442627,-0.06427002
1601136840060,199,0.31518555,-0.9949341,0.031188965
1601136840060,200,0.31518555,-0.9949341,0.031188965
1601136840064,201,0.23999023,-1.211731,-0.03326416
1601136840070,202,0.37597656,-0.95513916,-0.013000488
1601136840070,203,0.3388672,-0.97442627,-0.06427002
1601136840070,204,0.37597656,-0.95513916,-0.013000488
1601136840070,205,0.3684082,-0.95098877,0.024108887
1601136840070,206,0.3684082,-0.95098877,0.024108887
1601136840070,207,0.3684082,-0.95098877,0.024108887
1601136840070,208,0.37597656,-0.95513916,-0.013000488
1601136840070,209,0.23999023,-1.211731,-0.03326416
1601136840071,210,0.03515625,-0.9365845,-0.10723877
1601136840073,211,0.0017089844,-0.8892212,0.009216309
1601136840073,212,0.3684082,-0.95098877,0.024108887
1601136840084,213,0.37597656,-0.95513916,-0.013000488
1601136840084,214,0.31518555,-0.9949341,0.031188965
1601136840084,215,0.31518555,-0.9949341,0.031188965
1601136840084,216,0.3684082,-0.95098877,0.024108887
1601136840084,217,0.03515625,-0.9365845,-0.10723877
1601136840085,218,0.0017089844,-0.8892212,0.009216309
1601136840085,219,0.23999023,-1.211731,-0.03326416
1601136840085,220,0.16333008,-1.1934204,0.061706543
1601136840085,221,0.31518555,-0.9949341,0.031188965
1601136840085,222,0.31518555,-0.9949341,0.031188965
1601136840086,223,0.3684082,-0.95098877,0.024108887
1601136840086,224,0.23999023,-1.211731,-0.03326416
1601136840089,225,0.0017089844,-0.8892212,0.009216309
1601136840109,226,0.16333008,-1.1934204,0.061706543
1601136840109,227,0.16333008,-1.1934204,0.061706543
1601136840109,228,0.044677734,-0.8250122,0.07537842
1601136840109,229,0.23999023,-1.211731,-0.03326416
1601136840110,230,0.23999023,-1.211731,-0.03326416
1601136840110,231,0.31518555,-0.9949341,0.031188965
1601136840110,232,0.23999023,-1.211731,-0.03326416
1601136840110,233,0.03515625,-0.9365845,-0.10723877
1601136840110,234,0.03515625,-0.9365845,-0.10723877
1601136840110,235,0.0017089844,-0.8892212,0.009216309
1601136840110,236,0.23999023,-1.211731,-0.03326416
1601136840110,237,0.03515625,-0.9365845,-0.10723877
1601136840110,238,0.03515625,-0.9365845,-0.10723877
1601136840111,239,0.03515625,-0.9365845,-0.10723877
1601136840111,240,0.103515625,-0.911438,0.13250732
1601136840111,241,0.31518555,-0.9949341,0.031188965
1601136840112,242,0.0017089844,-0.8892212,0.009216309
1601136840112,243,0.16333008,-0.991272,0.1408081
1601136840112,244,0.23999023,-1.211731,-0.03326416
1601136840112,245,0.044677734,-0.8250122,0.07537842
1601136840112,246,0.03515625,-0.9365845,-0.10723877
1601136840112,247,0.103515625,-0.911438,0.13250732
1601136840112,248,0.0017089844,-0.8892212,0.009216309
1601136840112,249,0.0017089844,-0.8892212,0.009216309
1601136840112,250,0.0017089844,-0.8892212,0.009216309
1601136840113,251,0.16333008,-1.1934204,0.061706543
1601136840113,252,0.16333008,-1.1934204,0.061706543
1601136840114,253,0.09423828,-1.0115356,0.105651855
1601136840114,254,0.16333008,-1.1934204,0.061706543
1601136840128,255,0.0017089844,-0.8892212,0.009216309
1601136840128,256,0.16333008,-1.1934204,0.061706543
1601136840128,257,0.03515625,-0.9365845,-0.10723877
1601136840128,258,0.16333008,-1.1934204,0.061706543
1601136840129,259,0.16333008,-1.1934204,0.061706543
1601136840129,260,0.044677734,-0.8250122,0.07537842
1601136840129,261,0.18579102,-1.1902466,0.078308105
1601136840129,262,0.044677734,-0.8250122,0.07537842
1601136840129,263,0.044677734,-0.8250122,0.07537842
1601136840130,264,0.044677734,-0.8250122,0.07537842
1601136840130,265,0.103515625,-0.911438,0.13250732
1601136840130,266,0.24975586,-1.237854,-0.1795044
1601136840130,267,0.0017089844,-0.8892212,0.009216309
1601136840131,268,0.044677734,-0.8250122,0.07537842
1601136840132,269,0.103515625,-0.911438,0.13250732
1601136840132,270,0.16333008,-0.991272,0.1408081
1601136840133,271,0.21118164,-0.833313,-0.18658447
1601136840133,272,0.103515625,-0.911438,0.13250732
1601136840133,273,0.103515625,-0.911438,0.13250732
1601136840133,274,0.044677734,-0.8250122,0.07537842
1601136840133,275,0.103515625,-0.911438,0.13250732
1601136840135,276,0.16333008,-0.991272,0.1408081
1601136840207,277,0.09423828,-1.0115356,0.105651855
1601136840210,278,0.19946289,-0.99713135,-0.18560791
1601136840210,279,0.09423828,-1.0115356,0.105651855
1601136840210,280,0.16333008,-0.991272,0.1408081
1601136840210,281,0.31835938,-0.9229126,-0.1350708
1601136840210,282,0.044677734,-0.8250122,0.07537842
1601136840210,283,0.16333008,-0.991272,0.1408081
1601136840210,284,0.103515625,-0.911438,0.13250732
1601136840210,285,0.16333008,-0.991272,0.1408081
1601136840210,286,0.28686523,-0.96173096,-0.105529785
1601136840211,287,0.09423828,-1.0115356,0.105651855
1601136840211,288,0.16333008,-0.991272,0.1408081
1601136840211,289,0.29345703,-0.9846802,-0.07183838
1601136840211,290,0.18579102,-1.1902466,0.078308105
1601136840211,291,0.31811523,-0.93170166,-0.02545166
1601136840211,292,0.09423828,-1.0115356,0.105651855
1601136840211,293,0.18579102,-1.1902466,0.078308105
1601136840211,294,0.16333008,-0.991272,0.1408081
1601136840211,295,0.24975586,-1.237854,-0.1795044
1601136840212,296,0.09423828,-1.0115356,0.105651855
1601136840212,297,0.31469727,-0.9993286,-0.023498535
1601136840212,298,0.33740234,-0.95684814,0.034851074
1601136840212,299,0.09423828,-1.0115356,0.105651855
1601136840212,300,0.24975586,-1.237854,-0.1795044
1601136840212,301,0.18579102,-1.1902466,0.078308105
1601136840212,302,0.09423828,-1.0115356,0.105651855
1601136840213,303,0.24975586,-1.237854,-0.1795044
1601136840213,304,0.103515625,-0.911438,0.13250732
1601136840213,305,0.38012695,-0.92633057,0.08001709
1601136840213,306,0.16333008,-1.1934204,0.061706543
1601136840213,307,0.18579102,-1.1902466,0.078308105
1601136840213,308,0.32055664,-0.9019165,0.06121826
1601136840214,309,0.18579102,-1.1902466,0.078308105
1601136840214,310,0.18579102,-1.1902466,0.078308105
1601136840214,311,0.18579102,-1.1902466,0.078308105
1601136840214,312,0.21118164,-0.833313,-0.18658447
1601136840214,313,0.21118164,-0.833313,-0.18658447
1601136840244,314,0.16333008,-0.991272,0.1408081
1601136840245,315,0.24975586,-1.237854,-0.1795044
1601136840245,316,0.06762695,-1.3015747,-0.09234619
1601136840245,317,0.24975586,-1.237854,-0.1795044
1601136840245,318,0.24975586,-1.237854,-0.1795044
1601136840245,319,0.10888672,-0.8545532,-0.05718994
1601136840245,320,0.19946289,-0.99713135,-0.18560791
1601136840246,321,0.19946289,-0.99713135,-0.18560791
1601136840246,322,0.19824219,-1.1497192,0.059509277
1601136840246,323,0.09423828,-1.0115356,0.105651855
1601136840246,324,0.044677734,-0.8250122,0.07537842
1601136840247,325,0.18579102,-1.1902466,0.078308105
1601136840247,326,0.24975586,-1.237854,-0.1795044
1601136840247,327,0.103515625,-0.911438,0.13250732
1601136840251,328,0.21118164,-0.833313,-0.18658447
1601136840251,329,0.21118164,-0.833313,-0.18658447
1601136840251,330,0.16333008,-0.991272,0.1408081
1601136840251,331,0.31835938,-0.9229126,-0.1350708
1601136840251,332,0.09423828,-1.0115356,0.105651855
1601136840251,333,0.31835938,-0.9229126,-0.1350708
1601136840251,334,0.28686523,-0.96173096,-0.105529785
1601136840251,335,0.24975586,-1.237854,-0.1795044
1601136840251,336,0.28686523,-0.96173096,-0.105529785
1601136840252,337,0.21118164,-0.833313,-0.18658447
1601136840252,338,0.21118164,-0.833313,-0.18658447
1601136840252,339,0.21118164,-0.833313,-0.18658447
1601136840252,340,0.19946289,-0.99713135,-0.18560791
1601136840252,341,0.19946289,-0.99713135,-0.18560791
1601136840252,342,0.21118164,-0.833313,-0.18658447
1601136840252,343,0.31835938,-0.9229126,-0.1350708
1601136840252,344,0.19946289,-0.99713135,-0.18560791
1601136840252,345,0.18579102,-1.1902466,0.078308105
1601136840252,346,0.19946289,-0.99713135,-0.18560791
1601136840252,347,0.29345703,-0.9846802,-0.07183838
1601136840252,348,0.31835938,-0.9229126,-0.1350708
1601136840253,349,0.31811523,-0.93170166,-0.02545166
1601136840253,350,0.07299805,-0.8867798,0.010681152
1601136840253,351,0.31835938,-0.9229126,-0.1350708
1601136840253,352,0.31469727,-0.9993286,-0.023498535
1601136840253,353,0.19946289,-0.99713135,-0.18560791
1601136840253,354,0.19946289,-0.99713135,-0.18560791
1601136840253,355,0.24975586,-1.237854,-0.1795044
1601136840253,356,0.31835938,-0.9229126,-0.1350708
1601136840253,357,0.31835938,-0.9229126,-0.1350708
1601136840254,358,0.29345703,-0.9846802,-0.07183838
1601136840254,359,0.107910156,-0.92852783,0.10369873
1601136840261,360,0.31835938,-0.9229126,-0.1350708
1601136840261,361,0.115478516,-0.89849854,0.058532715
1601136840261,362,0.28686523,-0.96173096,-0.105529785
1601136840261,363,0.28686523,-0.96173096,-0.105529785
1601136840261,364,0.28686523,-0.96173096,-0.105529785
1601136840261,365,0.21118164,-0.833313,-0.18658447
1601136840261,366,0.29345703,-0.9846802,-0.07183838
1601136840262,367,0.33740234,-0.95684814,0.034851074
1601136840262,368,0.19946289,-0.99713135,-0.18560791
1601136840262,369,0.38012695,-0.92633057,0.08001709
1601136840262,370,0.31835938,-0.9229126,-0.1350708
1601136840262,371,0.28686523,-0.96173096,-0.105529785
1601136840262,372,0.28686523,-0.96173096,-0.105529785
1601136840262,373,0.29345703,-0.9846802,-0.07183838
1601136840263,374,0.29345703,-0.9846802,-0.07183838
1601136840263,375,0.31811523,-0.93170166,-0.02545166
1601136840263,376,0.31811523,-0.93170166,-0.02545166
1601136840263,377,0.28686523,-0.96173096,-0.105529785
1601136840263,378,0.32055664,-0.9019165,0.06121826
1601136840264,379,0.29345703,-0.9846802,-0.07183838
1601136840265,380,0.28686523,-0.96173096,-0.105529785
1601136840266,381,0.31811523,-0.93170166,-0.02545166
1601136840266,382,0.31811523,-0.93170166,-0.02545166
1601136840266,383,0.31469727,-0.9993286,-0.023498535
1601136840266,384,0.29345703,-0.9846802,-0.07183838
1601136840267,385,0.06762695,-1.3015747,-0.09234619
1601136840275,386,0.29345703,-0.9846802,-0.07183838
1601136840275,387,0.31811523,-0.93170166,-0.02545166
1601136840275,388,0.31469727,-0.9993286,-0.023498535
1601136840275,389,0.29345703,-0.9846802,-0.07183838
1601136840275,390,0.31469727,-0.9993286,-0.023498535
1601136840275,391,0.31469727,-0.9993286,-0.023498535
1601136840275,392,0.33740234,-0.95684814,0.034851074
1601136840275,393,0.10888672,-0.8545532,-0.05718994
1601136840275,394,0.31811523,-0.93170166,-0.02545166
1601136840275,395,0.31469727,-0.9993286,-0.023498535
1601136840275,396,0.31811523,-0.93170166,-0.02545166
1601136840275,397,0.33740234,-0.95684814,0.034851074
1601136840276,398,0.33740234,-0.95684814,0.034851074
1601136840276,399,0.33740234,-0.95684814,0.034851074
1601136840276,400,0.33740234,-0.95684814,0.034851074
1601136840276,401,0.31469727,-0.9993286,-0.023498535
1601136840276,402,0.19824219,-1.1497192,0.059509277
1601136840276,403,0.31469727,-0.9993286,-0.023498535
1601136840276,404,0.38012695,-0.92633057,0.08001709
1601136840276,405,0.38012695,-0.92633057,0.08001709
1601136840278,406,0.38012695,-0.92633057,0.08001709
1601136840278,407,0.31811523,-0.93170166,-0.02545166
1601136840284,408,0.32055664,-0.9019165,0.06121826
1601136840284,409,0.33740234,-0.95684814,0.034851074
1601136840284,410,0.32055664,-0.9019165,0.06121826
1601136840285,411,0.38012695,-0.92633057,0.08001709
1601136840285,412,0.38012695,-0.92633057,0.08001709
1601136840285,413,0.06762695,-1.3015747,-0.09234619
1601136840285,414,0.32055664,-0.9019165,0.06121826
1601136840285,415,0.32055664,-0.9019165,0.06121826
1601136840285,416,0.06762695,-1.3015747,-0.09234619
1601136840285,417,0.06762695,-1.3015747,-0.09234619
1601136840285,418,0.06762695,-1.3015747,-0.09234619
1601136840285,419,0.33740234,-0.95684814,0.034851074
1601136840285,420,0.10888672,-0.8545532,-0.05718994
1601136840289,421,0.10888672,-0.8545532,-0.05718994
1601136840289,422,0.10888672,-0.8545532,-0.05718994
1601136840289,423,0.07299805,-0.8867798,0.010681152
1601136840290,424,0.32055664,-0.9019165,0.06121826
1601136840290,425,0.10888672,-0.8545532,-0.05718994
1601136840290,426,0.31469727,-0.9993286,-0.023498535
1601136840296,427,0.19824219,-1.1497192,0.059509277
1601136840296,428,0.33740234,-0.95684814,0.034851074
1601136840296,429,0.19824219,-1.1497192,0.059509277
1601136840296,430,0.38012695,-0.92633057,0.08001709
1601136840296,431,0.19824219,-1.1497192,0.059509277
1601136840296,432,0.32055664,-0.9019165,0.06121826
1601136840296,433,0.06762695,-1.3015747,-0.09234619
1601136840296,434,0.06762695,-1.3015747,-0.09234619
1601136840296,435,0.10888672,-0.8545532,-0.05718994
1601136840296,436,0.19824219,-1.1497192,0.059509277
1601136840296,437,0.07299805,-0.8867798,0.010681152
1601136840296,438,0.19824219,-1.1497192,0.059509277
1601136840297,439,0.07299805,-0.8867798,0.010681152
1601136840297,440,0.07299805,-0.8867798,0.010681152
1601136840297,441,0.07299805,-0.8867798,0.010681152
1601136840297,442,0.38012695,-0.92633057,0.08001709
1601136840297,443,0.107910156,-0.92852783,0.10369873
1601136840297,444,0.107910156,-0.92852783,0.10369873
1601136840297,445,0.107910156,-0.92852783,0.10369873
1601136840297,446,0.38012695,-0.92633057,0.08001709
1601136840297,447,0.107910156,-0.92852783,0.10369873
1601136840302,448,0.10888672,-0.8545532,-0.05718994
1601136840302,449,0.115478516,-0.89849854,0.058532715
1601136840302,450,0.07299805,-0.8867798,0.010681152
1601136840302,451,0.115478516,-0.89849854,0.058532715
1601136840302,452,0.32055664,-0.9019165,0.06121826
1601136840302,453,0.115478516,-0.89849854,0.058532715
1601136840302,454,0.32055664,-0.9019165,0.06121826
1601136840302,455,0.06762695,-1.3015747,-0.09234619
1601136840309,456,0.19824219,-1.1497192,0.059509277
1601136840309,457,0.107910156,-0.92852783,0.10369873
1601136840309,458,0.107910156,-0.92852783,0.10369873
1601136840309,459,0.115478516,-0.89849854,0.058532715
1601136840309,460,0.10888672,-0.8545532,-0.05718994
1601136840309,461,0.06762695,-1.3015747,-0.09234619
1601136840312,462,0.19824219,-1.1497192,0.059509277
1601136840312,463,0.115478516,-0.89849854,0.058532715
1601136840319,464,0.07299805,-0.8867798,0.010681152
1601136840319,465,0.10888672,-0.8545532,-0.05718994
1601136840319,466,0.07299805,-0.8867798,0.010681152
1601136840319,467,0.115478516,-0.89849854,0.058532715
1601136840321,468,0.107910156,-0.92852783,0.10369873
1601136840321,469,0.19824219,-1.1497192,0.059509277
1601136840322,470,0.107910156,-0.92852783,0.10369873
1601136840324,471,0.07299805,-0.8867798,0.010681152
1601136840327,472,0.115478516,-0.89849854,0.058532715
1601136840328,473,0.107910156,-0.92852783,0.10369873
1601136840330,474,0.115478516,-0.89849854,0.058532715
1601136840331,475,0.115478516,-0.89849854,0.058532715
1601136842592,476,0.125,-0.9932251,0.08807373
1601136842592,477,0.125,-0.9932251,0.08807373
1601136842592,478,0.125,-0.9932251,0.08807373
1601136842598,479,0.125,-0.9932251,0.08807373
1601136842606,480,0.125,-0.9932251,0.08807373
1601136842606,481,0.12158203,-1.0401001,0.13983154
1601136842606,482,0.12158203,-1.0401001,0.13983154
1601136842606,483,0.125,-0.9932251,0.08807373
1601136842606,484,0.12158203,-1.0401001,0.13983154
1601136842606,485,0.125,-0.9932251,0.08807373
1601136842607,486,0.27148438,-1.0713501,0.10687256
1601136842607,487,0.125,-0.9932251,0.08807373
1601136842607,488,0.27148438,-1.0713501,0.10687256
1601136842607,489,0.12158203,-1.0401001,0.13983154
1601136842607,490,0.14282227,-1.3408813,-0.2156372
1601136842607,491,0.125,-0.9932251,0.08807373
1601136842607,492,0.14282227,-1.3408813,-0.2156372
1601136842607,493,0.12158203,-1.0401001,0.13983154
1601136842607,494,0.12158203,-1.0401001,0.13983154
1601136842607,495,0.27148438,-1.0713501,0.10687256
1601136842607,496,0.27148438,-1.0713501,0.10687256
1601136842608,497,0.15307617,-0.8328247,-0.11602783
1601136842608,498,0.125,-0.9932251,0.08807373
1601136842608,499,0.12158203,-1.0401001,0.13983154
1601136842608,500,0.12158203,-1.0401001,0.13983154
1601136842608,501,0.12158203,-1.0401001,0.13983154
1601136842608,502,0.27148438,-1.0713501,0.10687256
1601136842608,503,0.27148438,-1.0713501,0.10687256
1601136842608,504,0.14282227,-1.3408813,-0.2156372
1601136842608,505,0.14282227,-1.3408813,-0.2156372
1601136842608,506,0.15307617,-0.8328247,-0.11602783
1601136842608,507,0.14282227,-1.3408813,-0.2156372
1601136842609,508,0.19580078,-1.1262817,-0.059631348
1601136842609,509,0.15307617,-0.8328247,-0.11602783
1601136842609,510,0.19580078,-1.1262817,-0.059631348
1601136842609,511,0.15307617,-0.8328247,-0.11602783
1601136842609,512,0.27148438,-1.0713501,0.10687256
1601136842609,513,0.15307617,-0.8328247,-0.11602783
1601136842609,514,0.27148438,-1.0713501,0.10687256
1601136842609,515,0.27148438,-1.0713501,0.10687256
1601136842609,516,0.12158203,-1.0401001,0.13983154
1601136842609,517,0.19580078,-1.1262817,-0.059631348
1601136842609,518,0.14282227,-1.3408813,-0.2156372
1601136842610,519,0.14282227,-1.3408813,-0.2156372
1601136842610,520,0.27148438,-1.0713501,0.10687256
1601136842610,521,0.19580078,-1.1262817,-0.059631348
1601136842610,522,0.15307617,-0.8328247,-0.11602783
1601136842616,523,0.29833984,-0.911438,-0.039611816
1601136842616,524,0.29833984,-0.911438,-0.039611816
1601136842616,525,0.14282227,-1.3408813,-0.2156372
1601136842617,526,0.23779297,-0.8843384,-0.10772705
1601136842617,527,0.15307617,-0.8328247,-0.11602783
1601136842617,528,0.14282227,-1.3408813,-0.2156372
1601136842617,529,0.14282227,-1.3408813,-0.2156372
1601136842617,530,0.29833984,-0.911438,-0.039611816
1601136842617,531,0.15307617,-0.8328247,-0.11602783
1601136842617,532,0.23779297,-0.8843384,-0.10772705
1601136842617,533,0.23779297,-0.8843384,-0.10772705
1601136842617,534,0.19580078,-1.1262817,-0.059631348
1601136842617,535,0.26391602,-0.9624634,-0.0071411133
1601136842617,536,0.26391602,-0.9624634,-0.0071411133
1601136842617,537,0.27197266,-0.97076416,0.061462402
1601136842618,538,0.29833984,-0.911438,-0.039611816
1601136842618,539,0.27197266,-0.97076416,0.061462402
1601136842618,540,0.19580078,-1.1262817,-0.059631348
1601136842618,541,0.23779297,-0.8843384,-0.10772705
1601136842618,542,0.26391602,-0.9624634,-0.0071411133
1601136842618,543,0.29833984,-0.911438,-0.039611816
1601136842619,544,0.15307617,-0.8328247,-0.11602783
1601136842619,545,0.19580078,-1.1262817,-0.059631348
1601136842619,546,0.19580078,-1.1262817,-0.059631348
1601136842619,547,0.29833984,-0.911438,-0.039611816
1601136842633,548,0.15307617,-0.8328247,-0.11602783
1601136842634,549,0.28271484,-0.972229,-0.0095825195
1601136842634,550,0.19580078,-1.1262817,-0.059631348
1601136842634,551,0.27197266,-0.97076416,0.061462402
1601136842634,552,0.29833984,-0.911438,-0.039611816
1601136842634,553,0.28271484,-0.972229,-0.0095825195
1601136842635,554,0.19580078,-1.1262817,-0.059631348
1601136842635,555,0.29833984,-0.911438,-0.039611816
1601136842635,556,0.29296875,-1.0383911,0.13494873
1601136842635,557,0.23779297,-0.8843384,-0.10772705
1601136842635,558,0.29833984,-0.911438,-0.039611816
1601136842635,559,0.29296875,-1.0383911,0.13494873
1601136842635,560,0.29833984,-0.911438,-0.039611816
1601136842635,561,0.28271484,-0.972229,-0.0095825195
1601136842635,562,0.23779297,-0.8843384,-0.10772705
1601136842635,563,0.23779297,-0.8843384,-0.10772705
1601136842635,564,0.23779297,-0.8843384,-0.10772705
1601136842635,565,0.3310547,-1.1133423,-0.08843994
1601136842635,566,0.26391602,-0.9624634,-0.0071411133
1601136842635,567,0.3310547,-1.1133423,-0.08843994
1601136842635,568,0.29296875,-1.0383911,0.13494873
1601136842635,569,0.23779297,-0.8843384,-0.10772705
1601136842636,570,0.23779297,-0.8843384,-0.10772705
1601136842636,571,0.26391602,-0.9624634,-0.0071411133
1601136842636,572,0.092041016,-1.08844,-0.06793213
1601136842636,573,0.26391602,-0.9624634,-0.0071411133
1601136842636,574,0.046142578,-0.94976807,-0.05279541
1601136842636,575,0.27197266,-0.97076416,0.061462402
1601136842636,576,0.26391602,-0.9624634,-0.0071411133
1601136842636,577,0.3310547,-1.1133423,-0.08843994
1601136842636,578,0.26391602,-0.9624634,-0.0071411133
1601136842636,579,0.26391602,-0.9624634,-0.0071411133
1601136842636,580,0.26391602,-0.9624634,-0.0071411133
1601136842636,581,0.092041016,-1.08844,-0.06793213
1601136842636,582,0.27197266,-0.97076416,0.061462402
1601136842645,583,0.16992188,-1.1660767,0.06512451
1601136842646,584,0.28271484,-0.972229,-0.0095825195
1601136842646,585,0.27197266,-0.97076416,0.061462402
1601136842646,586,0.27197266,-0.97076416,0.061462402
1601136842646,587,0.27197266,-0.97076416,0.061462402
1601136842646,588,0.092041016,-1.08844,-0.06793213
1601136842647,589,0.28271484,-0.972229,-0.0095825195
1601136842647,590,0.046142578,-0.94976807,-0.05279541
1601136842647,591,0.27197266,-0.97076416,0.061462402
1601136842647,592,0.27197266,-0.97076416,0.061462402
1601136842647,593,0.29296875,-1.0383911,0.13494873
1601136842647,594,0.075927734,-0.8491821,-0.020324707
1601136842647,595,0.29296875,-1.0383911,0.13494873
1601136842647,596,0.11206055,-0.91851807,0.06781006
1601136842647,597,0.28271484,-0.972229,-0.0095825195
1601136842647,598,0.12890625,-0.9636841,0.08441162
1601136842648,599,0.29296875,-1.0383911,0.13494873
1601136842648,600,0.16992188,-1.1660767,0.06512451
1601136842652,601,0.3310547,-1.1133423,-0.08843994
1601136842652,602,0.28271484,-0.972229,-0.0095825195
1601136842652,603,0.092041016,-1.08844,-0.06793213
1601136842652,604,0.28271484,-0.972229,-0.0095825195
1601136842653,605,0.3310547,-1.1133423,-0.08843994
1601136842653,606,0.28271484,-0.972229,-0.0095825195
1601136842653,607,0.14331055,-0.9702759,0.06976318
1601136842653,608,0.3310547,-1.1133423,-0.08843994
1601136842653,609,0.15893555,-1.0005493,0.101501465
1601136842653,610,0.075927734,-0.8491821,-0.020324707
1601136842653,611,0.28271484,-0.972229,-0.0095825195
1601136842653,612,0.29296875,-1.0383911,0.13494873
1601136842660,613,0.046142578,-0.94976807,-0.05279541
1601136842660,614,0.29296875,-1.0383911,0.13494873
1601136842661,615,0.092041016,-1.08844,-0.06793213
1601136842661,616,0.29296875,-1.0383911,0.13494873
1601136842661,617,0.046142578,-0.94976807,-0.05279541
1601136842661,618,0.046142578,-0.94976807,-0.05279541
1601136842661,619,0.15795898,-0.97979736,0.14813232
1601136842661,620,0.11206055,-0.91851807,0.06781006
1601136842661,621,0.29296875,-1.0383911,0.13494873
1601136842661,622,0.3310547,-1.1133423,-0.08843994
1601136842662,623,0.3310547,-1.1133423,-0.08843994
1601136842663,624,0.092041016,-1.08844,-0.06793213
1601136842668,625,0.3310547,-1.1133423,-0.08843994
1601136842669,626,0.13793945,-1.180481,0.0018920898
1601136842669,627,0.12890625,-0.9636841,0.08441162
1601136842669,628,0.16992188,-1.1660767,0.06512451
1601136842669,629,0.092041016,-1.08844,-0.06793213
1601136842669,630,0.092041016,-1.08844,-0.06793213
1601136842669,631,0.21948242,-1.1873169,-0.15948486
1601136842669,632,0.046142578,-0.94976807,-0.05279541
1601136842669,633,0.046142578,-0.94976807,-0.05279541
1601136842669,634,0.16992188,-1.1660767,0.06512451
1601136842669,635,0.16992188,-1.1660767,0.06512451
1601136842669,636,0.16992188,-1.1660767,0.06512451
1601136842669,637,0.14331055,-0.9702759,0.06976318
1601136842669,638,0.3310547,-1.1133423,-0.08843994
1601136842669,639,0.092041016,-1.08844,-0.06793213
1601136842669,640,0.046142578,-0.94976807,-0.05279541
1601136842670,641,0.19873047,-0.8040161,-0.08843994
1601136842670,642,0.16992188,-1.1660767,0.06512451
1601136842671,643,0.075927734,-0.8491821,-0.020324707
1601136842680,644,0.075927734,-0.8491821,-0.020324707
1601136842680,645,0.092041016,-1.08844,-0.06793213
1601136842680,646,0.15893555,-1.0005493,0.101501465
1601136842680,647,0.046142578,-0.94976807,-0.05279541
1601136842680,648,0.16992188,-1.1660767,0.06512451
1601136842681,649,0.28076172,-1.0010376,-0.20880127
1601136842681,650,0.075927734,-0.8491821,-0.020324707
1601136842681,651,0.075927734,-0.8491821,-0.020324707
1601136842681,652,0.16992188,-1.1660767,0.06512451
1601136842681,653,0.11206055,-0.91851807,0.06781006
1601136842697,654,0.11206055,-0.91851807,0.06781006
1601136842699,655,0.046142578,-0.94976807,-0.05279541
1601136842700,656,0.15795898,-0.97979736,0.14813232
1601136842700,657,0.16992188,-1.1660767,0.06512451
1601136842700,658,0.075927734,-0.8491821,-0.020324707
1601136842700,659,0.075927734,-0.8491821,-0.020324707
1601136842700,660,0.13793945,-1.180481,0.0018920898
1601136842700,661,0.11206055,-0.91851807,0.06781006
1601136842700,662,0.075927734,-0.8491821,-0.020324707
1601136842701,663,0.12890625,-0.9636841,0.08441162
1601136842701,664,0.11206055,-0.91851807,0.06781006
1601136842703,665,0.14331055,-0.9702759,0.06976318
1601136842703,666,0.12890625,-0.9636841,0.08441162
1601136842704,667,0.15893555,-1.0005493,0.101501465
1601136842704,668,0.15795898,-0.97979736,0.14813232
1601136842705,669,0.28271484,-1.0515747,-0.058166504
1601136842705,670,0.21948242,-1.1873169,-0.15948486
1601136842705,671,0.11206055,-0.91851807,0.06781006
1601136842705,672,0.19873047,-0.8040161,-0.08843994
1601136842705,673,0.28076172,-1.0010376,-0.20880127
1601136842705,674,0.11206055,-0.91851807,0.06781006
1601136842705,675,0.28271484,-1.0515747,-0.058166504
1601136842705,676,0.075927734,-0.8491821,-0.020324707
1601136842705,677,0.14331055,-0.9702759,0.06976318
1601136842705,678,0.26171875,-0.8833618,-0.10064697
1601136842705,679,0.26171875,-0.8833618,-0.10064697
1601136842706,680,0.11206055,-0.91851807,0.06781006
1601136842706,681,0.12890625,-0.9636841,0.08441162
1601136842708,682,0.12890625,-0.9636841,0.08441162
1601136842709,683,0.12890625,-0.9636841,0.08441162
1601136842709,684,0.12890625,-0.9636841,0.08441162
1601136842709,685,0.14331055,-0.9702759,0.06976318
1601136842710,686,0.11206055,-0.91851807,0.06781006
1601136842710,687,0.13793945,-1.180481,0.0018920898
1601136842710,688,0.3112793,-0.91070557,-0.085754395
1601136842710,689,0.3112793,-0.91070557,-0.085754395
1601136842710,690,0.12890625,-0.9636841,0.08441162
1601136842710,691,0.14331055,-0.9702759,0.06976318
1601136842711,692,0.31176758,-0.9944458,-0.004211426
1601136842711,693,0.15893555,-1.0005493,0.101501465
1601136842711,694,0.14331055,-0.9702759,0.06976318
1601136842711,695,0.12890625,-0.9636841,0.08441162
1601136842715,696,0.21948242,-1.1873169,-0.15948486
1601136842715,697,0.31176758,-0.9944458,-0.004211426
1601136842733,698,0.31103516,-0.9619751,-0.0064086914
1601136842735,699,0.15795898,-0.97979736,0.14813232
1601136842735,700,0.14331055,-0.9702759,0.06976318
1601136842735,701,0.15893555,-1.0005493,0.101501465
1601136842736,702,0.15893555,-1.0005493,0.101501465
1601136842737,703,0.14331055,-0.9702759,0.06976318
1601136842737,704,0.14331055,-0.9702759,0.06976318
1601136842737,705,0.15893555,-1.0005493,0.101501465
1601136842737,706,0.19873047,-0.8040161,-0.08843994
1601136842737,707,0.15893555,-1.0005493,0.101501465
1601136842737,708,0.28076172,-1.0010376,-0.20880127
1601136842738,709,0.15795898,-0.97979736,0.14813232
1601136842738,710,0.28271484,-1.0515747,-0.058166504
1601136842738,711,0.13793945,-1.180481,0.0018920898
1601136842738,712,0.26171875,-0.8833618,-0.10064697
1601136842739,713,0.15893555,-1.0005493,0.101501465
1601136842739,714,0.15795898,-0.97979736,0.14813232
1601136842739,715,0.15795898,-0.97979736,0.14813232
1601136842739,716,0.31103516,-0.9619751,-0.0064086914
1601136842740,717,0.30786133,-0.9800415,-0.015930176
1601136842740,718,0.15795898,-0.97979736,0.14813232
1601136842740,719,0.13793945,-1.180481,0.0018920898
1601136842740,720,0.15893555,-1.0005493,0.101501465
1601136842740,721,0.21948242,-1.1873169,-0.15948486
1601136842740,722,0.30786133,-0.9800415,-0.015930176
1601136842740,723,0.3112793,-0.91070557,-0.085754395
1601136842740,724,0.15795898,-0.97979736,0.14813232
1601136842741,725,0.13793945,-1.180481,0.0018920898
1601136842741,726,0.13793945,-1.180481,0.0018920898
1601136842741,727,0.13793945,-1.180481,0.0018920898
1601136842741,728,0.15795898,-0.97979736,0.14813232
1601136842746,729,0.13793945,-1.180481,0.0018920898
1601136842747,730,0.21948242,-1.1873169,-0.15948486
1601136842748,731,0.21948242,-1.1873169,-0.15948486
1601136842748,732,0.19873047,-0.8040161,-0.08843994
1601136842748,733,0.21948242,-1.1873169,-0.15948486
1601136842749,734,0.19873047,-0.8040161,-0.08843994
1601136842749,735,0.21948242,-1.1873169,-0.15948486
1601136842749,736,0.13793945,-1.180481,0.0018920898
1601136842749,737,0.19873047,-0.8040161,-0.08843994
1601136842749,738,0.19873047,-0.8040161,-0.08843994
1601136842749,739,0.21948242,-1.1873169,-0.15948486
1601136842749,740,0.28076172,-1.0010376,-0.20880127
1601136842749,741,0.19873047,-0.8040161,-0.08843994
1601136842749,742,0.28271484,-1.0515747,-0.058166504
1601136842749,743,0.28076172,-1.0010376,-0.20880127
1601136842749,744,0.31176758,-0.9944458,-0.004211426
1601136842749,745,0.21948242,-1.1873169,-0.15948486
1601136842749,746,0.19873047,-0.8040161,-0.08843994
1601136842754,747,0.28076172,-1.0010376,-0.20880127
1601136842754,748,0.26171875,-0.8833618,-0.10064697
1601136842754,749,0.28076172,-1.0010376,-0.20880127
1601136842754,750,0.28076172,-1.0010376,-0.20880127
1601136842754,751,0.28271484,-1.0515747,-0.058166504
1601136842754,752,0.19873047,-0.8040161,-0.08843994
1601136842754,753,0.28076172,-1.0010376,-0.20880127
1601136842755,754,0.31103516,-0.9619751,-0.0064086914
1601136842756,755,0.28271484,-1.0515747,-0.058166504
1601136842762,756,0.28076172,-1.0010376,-0.20880127
1601136842762,757,0.26171875,-0.8833618,-0.10064697
1601136842762,758,0.28271484,-1.0515747,-0.058166504
1601136842763,759,0.26171875,-0.8833618,-0.10064697
1601136842763,760,0.28271484,-1.0515747,-0.058166504
1601136842763,761,0.30786133,-0.9800415,-0.015930176
1601136842763,762,0.3112793,-0.91070557,-0.085754395
1601136842763,763,0.28271484,-1.0515747,-0.058166504
1601136842763,764,0.3112793,-0.91070557,-0.085754395
1601136842763,765,0.26171875,-0.8833618,-0.10064697
1601136842768,766,0.3112793,-0.91070557,-0.085754395
1601136842768,767,0.28271484,-1.0515747,-0.058166504
1601136842769,768,0.31176758,-0.9944458,-0.004211426
1601136842769,769,0.26171875,-0.8833618,-0.10064697
1601136842769,770,0.31176758,-0.9944458,-0.004211426
1601136842769,771,0.3112793,-0.91070557,-0.085754395
1601136842769,772,0.31103516,-0.9619751,-0.0064086914
1601136842769,773,0.26171875,-0.8833618,-0.10064697
1601136842770,774,0.31103516,-0.9619751,-0.0064086914
1601136842772,775,0.26171875,-0.8833618,-0.10064697
1601136842780,776,0.30786133,-0.9800415,-0.015930176
1601136842780,777,0.31176758,-0.9944458,-0.004211426
1601136842780,778,0.3112793,-0.91070557,-0.085754395
1601136842780,779,0.31103516,-0.9619751,-0.0064086914
1601136842780,780,0.30786133,-0.9800415,-0.015930176
1601136842781,781,0.30786133,-0.9800415,-0.015930176
1601136842781,782,0.31176758,-0.9944458,-0.004211426
1601136842781,783,0.31103516,-0.9619751,-0.0064086914
1601136842781,784,0.30786133,-0.9800415,-0.015930176
1601136842781,785,0.31176758,-0.9944458,-0.004211426
1601136842783,786,0.3112793,-0.91070557,-0.085754395
1601136842784,787,0.3112793,-0.91070557,-0.085754395
1601136842784,788,0.31103516,-0.9619751,-0.0064086914
1601136842784,789,0.31176758,-0.9944458,-0.004211426
1601136842786,790,0.31176758,-0.9944458,-0.004211426
1601136842786,791,0.31103516,-0.9619751,-0.0064086914
1601136842786,792,0.30786133,-0.9800415,-0.015930176
1601136842786,793,0.31103516,-0.9619751,-0.0064086914
1601136842787,794,0.30786133,-0.9800415,-0.015930176
1601136842789,795,0.30786133,-0.9800415,-0.015930176
1601136845098,796,0.3154297,-1.015686,0.05682373
1601136845105,797,0.3154297,-1.015686,0.05682373
1601136845105,798,0.31469727,-1.145813,-0.054504395
1601136845105,799,0.3154297,-1.015686,0.05682373
1601136845106,800,0.3154297,-1.015686,0.05682373
1601136845106,801,0.3154297,-1.015686,0.05682373
1601136845106,802,0.31469727,-1.145813,-0.054504395
1601136845106,803,0.31469727,-1.145813,-0.054504395
1601136845106,804,0.3154297,-1.015686,0.05682373
1601136845107,805,0.3154297,-1.015686,0.05682373
1601136845108,806,0.3154297,-1.015686,0.05682373
1601136845108,807,0.31469727,-1.145813,-0.054504395
1601136845108,808,0.31469727,-1.145813,-0.054504395
1601136845108,809,0.31469727,-1.145813,-0.054504395
1601136845120,810,0.060302734,-1.0786743,-0.08673096
1601136845121,811,0.060302734,-1.0786743,-0.08673096
1601136845121,812,0.31469727,-1.145813,-0.054504395
1601136845121,813,0.3154297,-1.015686,0.05682373
1601136845121,814,0.060302734,-1.0786743,-0.08673096
1601136845121,815,0.3154297,-1.015686,0.05682373
1601136845122,816,0.31469727,-1.145813,-0.054504395
1601136845122,817,0.060302734,-1.0786743,-0.08673096
1601136845122,818,0.060302734,-1.0786743,-0.08673096
1601136845122,819,0.31469727,-1.145813,-0.054504395
1601136845122,820,0.03955078,-0.95269775,-0.020812988
1601136845122,821,0.060302734,-1.0786743,-0.08673096
1601136845122,822,0.060302734,-1.0786743,-0.08673096
1601136845122,823,0.03955078,-0.95269775,-0.020812988
1601136845122,824,0.03955078,-0.95269775,-0.020812988
1601136845123,825,0.03955078,-0.95269775,-0.020812988
1601136845123,826,0.060302734,-1.0786743,-0.08673096
1601136845124,827,0.119140625,-1.083313,0.024353027
1601136845134,828,0.03955078,-0.95269775,-0.020812988
1601136845134,829,0.31469727,-1.145813,-0.054504395
1601136845134,830,0.03955078,-0.95269775,-0.020812988
1601136845134,831,0.060302734,-1.0786743,-0.08673096
1601136845134,832,0.119140625,-1.083313,0.024353027
1601136845134,833,0.03955078,-0.95269775,-0.020812988
1601136845134,834,0.119140625,-1.083313,0.024353027
1601136845135,835,0.119140625,-1.083313,0.024353027
1601136845135,836,0.032470703,-0.8657837,0.010925293
1601136845135,837,0.119140625,-1.083313,0.024353027
1601136845135,838,0.119140625,-1.083313,0.024353027
1601136845159,839,0.03955078,-0.95269775,-0.020812988
1601136845159,840,0.060302734,-1.0786743,-0.08673096
1601136845160,841,0.032470703,-0.8657837,0.010925293
1601136845160,842,0.119140625,-1.083313,0.024353027
1601136845160,843,0.032470703,-0.8657837,0.010925293
1601136845160,844,0.032470703,-0.8657837,0.010925293
1601136845160,845,0.110839844,-0.97320557,0.08929443
1601136845160,846,0.032470703,-0.8657837,0.010925293
1601136845160,847,0.03955078,-0.95269775,-0.020812988
1601136845160,848,0.032470703,-0.8657837,0.010925293
1601136845160,849,0.119140625,-1.083313,0.024353027
1601136845160,850,0.03955078,-0.95269775,-0.020812988
1601136845160,851,0.110839844,-0.97320557,0.08929443
1601136845160,852,0.119140625,-1.083313,0.024353027
1601136845160,853,0.110839844,-0.97320557,0.08929443
1601136845161,854,0.032470703,-0.8657837,0.010925293
1601136845161,855,0.110839844,-0.97320557,0.08929443
1601136845161,856,0.10620117,-0.9475708,0.08880615
1601136845161,857,0.110839844,-0.97320557,0.08929443
1601136845161,858,0.119384766,-0.9697876,0.08929443
1601136845163,859,0.10620117,-0.9475708,0.08880615
1601136845163,860,0.032470703,-0.8657837,0.010925293
1601136845163,861,0.10620117,-0.9475708,0.08880615
1601136845163,862,0.032470703,-0.8657837,0.010925293
1601136845163,863,0.119384766,-0.9697876,0.08929443
1601136845163,864,0.110839844,-0.97320557,0.08929443
1601136845163,865,0.12792969,-0.9841919,0.117126465
1601136845163,866,0.12792969,-0.9841919,0.117126465
1601136845163,867,0.10620117,-0.9475708,0.08880615
1601136845163,868,0.119384766,-0.9697876,0.08929443
1601136845163,869,0.110839844,-0.97320557,0.08929443
1601136845163,870,0.119384766,-0.9697876,0.08929443
1601136845164,871,0.24072266,-0.9873657,0.18231201
1601136845164,872,0.110839844,-0.97320557,0.08929443
1601136845164,873,0.110839844,-0.97320557,0.08929443
1601136845164,874,0.10620117,-0.9475708,0.08880615
1601136845164,875,0.10620117,-0.9475708,0.08880615
1601136845164,876,0.24072266,-0.9873657,0.18231201
1601136845169,877,0.10620117,-0.9475708,0.08880615
1601136845170,878,0.12792969,-0.9841919,0.117126465
1601136845170,879,0.1340332,-1.1362915,0.0836792
1601136845170,880,0.119140625,-1.083313,0.024353027
1601136845170,881,0.17749023,-1.2827759,-0.19342041
1601136845170,882,0.10620117,-0.9475708,0.08880615
1601136845170,883,0.10620117,-0.9475708,0.08880615
1601136845170,884,0.119384766,-0.9697876,0.08929443
1601136845170,885,0.1340332,-1.1362915,0.0836792
1601136845170,886,0.119384766,-0.9697876,0.08929443
1601136845179,887,0.119384766,-0.9697876,0.08929443
1601136845180,888,0.24072266,-0.9873657,0.18231201
1601136845180,889,0.12792969,-0.9841919,0.117126465
1601136845180,890,0.032470703,-0.8657837,0.010925293
1601136845180,891,0.24072266,-0.9873657,0.18231201
1601136845180,892,0.22265625,-0.78692627,-0.13238525
1601136845180,893,0.119384766,-0.9697876,0.08929443
1601136845180,894,0.119384766,-0.9697876,0.08929443
1601136845180,895,0.17749023,-1.2827759,-0.19342041
1601136845180,896,0.12792969,-0.9841919,0.117126465
1601136845183,897,0.12792969,-0.9841919,0.117126465
1601136845184,898,0.1340332,-1.1362915,0.0836792
1601136845184,899,0.110839844,-0.97320557,0.08929443
1601136845184,900,0.12792969,-0.9841919,0.117126465
1601136845184,901,0.10620117,-0.9475708,0.08880615
1601136845184,902,0.24072266,-0.9873657,0.18231201
1601136845184,903,0.12792969,-0.9841919,0.117126465
1601136845185,904,0.1340332,-1.1362915,0.0836792
1601136845185,905,0.12792969,-0.9841919,0.117126465
1601136845185,906,0.17749023,-1.2827759,-0.19342041
1601136845190,907,0.24072266,-0.9873657,0.18231201
1601136845190,908,0.22265625,-0.78692627,-0.13238525
1601136845190,909,0.22265625,-0.78692627,-0.13238525
1601136845190,910,0.119384766,-0.9697876,0.08929443
1601136845190,911,0.24072266,-0.9873657,0.18231201
1601136845191,912,0.19946289,-1.0664673,-0.21612549
1601136845191,913,0.17749023,-1.2827759,-0.19342041
1601136845191,914,0.23608398,-0.98028564,-0.078186035
1601136845191,915,0.24072266,-0.9873657,0.18231201
1601136845202,916,0.19946289,-1.0664673,-0.21612549
1601136845202,917,0.1340332,-1.1362915,0.0836792
1601136845203,918,0.19946289,-1.0664673,-0.21612549
1601136845203,919,0.12792969,-0.9841919,0.117126465
1601136845203,920,0.24072266,-0.9873657,0.18231201
1601136845203,921,0.1340332,-1.1362915,0.0836792
1601136845203,922,0.1340332,-1.1362915,0.0836792
1601136845203,923,0.23608398,-0.98028564,-0.078186035
1601136845203,924,0.22265625,-0.78692627,-0.13238525
1601136845209,925,0.1340332,-1.1362915,0.0836792
1601136845209,926,0.21777344,-0.9048462,-0.117004395
1601136845209,927,0.21777344,-0.9048462,-0.117004395
1601136845209,928,0.17749023,-1.2827759,-0.19342041
1601136845209,929,0.17749023,-1.2827759,-0.19342041
1601136845210,930,0.2709961,-0.944397,-0.074279785
1601136845210,931,0.24072266,-0.9873657,0.18231201
1601136845210,932,0.22265625,-0.78692627,-0.13238525
1601136845210,933,0.17749023,-1.2827759,-0.19342041
1601136845210,934,0.19946289,-1.0664673,-0.21612549
1601136845218,935,0.17749023,-1.2827759,-0.19342041
1601136845218,936,0.2709961,-0.944397,-0.074279785
1601136845218,937,0.22265625,-0.78692627,-0.13238525
1601136845218,938,0.1340332,-1.1362915,0.0836792
1601136845218,939,0.26367188,-0.9902954,-0.014953613
1601136845218,940,0.1340332,-1.1362915,0.0836792
1601136845218,941,0.19946289,-1.0664673,-0.21612549
1601136845218,942,0.30200195,-0.9993286,-0.00592041
1601136845219,943,0.17749023,-1.2827759,-0.19342041
1601136845219,944,0.22265625,-0.78692627,-0.13238525
1601136845221,945,0.26367188,-0.9902954,-0.014953613
1601136845221,946,0.19946289,-1.0664673,-0.21612549
1601136845223,947,0.23608398,-0.98028564,-0.078186035
1601136845223,948,0.23608398,-0.98028564,-0.078186035
1601136845229,949,0.30004883,-0.9885864,0.03265381
1601136845230,950,0.22265625,-0.78692627,-0.13238525
1601136845230,951,0.32299805,-0.9644165,0.04876709
1601136845230,952,0.19946289,-1.0664673,-0.21612549
1601136845230,953,0.23608398,-0.98028564,-0.078186035
1601136845230,954,0.30200195,-0.9993286,-0.00592041
1601136845230,955,0.23608398,-0.98028564,-0.078186035
1601136845230,956,0.17749023,-1.2827759,-0.19342041
1601136845231,957,0.30004883,-0.9885864,0.03265381
1601136845231,958,0.21777344,-0.9048462,-0.117004395
1601136845234,959,0.2709961,-0.944397,-0.074279785
1601136845234,960,0.19946289,-1.0664673,-0.21612549
1601136845234,961,0.26367188,-0.9902954,-0.014953613
1601136845234,962,0.23608398,-0.98028564,-0.078186035
1601136845234,963,0.23608398,-0.98028564,-0.078186035
1601136845234,964,0.21777344,-0.9048462,-0.117004395
1601136845235,965,0.22265625,-0.78692627,-0.13238525
1601136845235,966,0.2709961,-0.944397,-0.074279785
1601136845235,967,0.32299805,-0.9644165,0.04876709
1601136845235,968,0.22265625,-0.78692627,-0.13238525
1601136845236,969,0.19946289,-1.0664673,-0.21612549
1601136845244,970,0.30200195,-0.9993286,-0.00592041
1601136845244,971,0.21777344,-0.9048462,-0.117004395
1601136845244,972,0.30004883,-0.9885864,0.03265381
1601136845244,973,0.21777344,-0.9048462,-0.117004395
1601136845244,974,0.21777344,-0.9048462,-0.117004395
1601136845244,975,0.32299805,-0.9644165,0.04876709
1601136845244,976,0.2709961,-0.944397,-0.074279785
1601136845245,977,0.23608398,-0.98028564,-0.078186035
1601136845245,978,0.19946289,-1.0664673,-0.21612549
1601136845245,979,0.23242188,-1.2600708,-0.06011963
1601136845246,980,0.23608398,-0.98028564,-0.078186035
1601136845246,981,0.02734375,-0.97662354,-0.0051879883
1601136845246,982,0.21777344,-0.9048462,-0.117004395
1601136845246,983,0.23242188,-1.2600708,-0.06011963
1601136845247,984,0.2709961,-0.944397,-0.074279785
1601136845247,985,0.2709961,-0.944397,-0.074279785
1601136845247,986,0.21777344,-0.9048462,-0.117004395
1601136845247,987,0.26367188,-0.9902954,-0.014953613
1601136845249,988,0.2709961,-0.944397,-0.074279785
1601136845275,989,0.26367188,-0.9902954,-0.014953613
1601136845275,990,0.26367188,-0.9902954,-0.014953613
1601136845275,991,0.025390625,-0.9116821,-0.01763916
1601136845275,992,0.02734375,-0.97662354,-0.0051879883
1601136845275,993,0.26367188,-0.9902954,-0.014953613
1601136845275,994,0.26367188,-0.9902954,-0.014953613
1601136845276,995,0.2709961,-0.944397,-0.074279785
1601136845276,996,0.30200195,-0.9993286,-0.00592041
1601136845276,997,0.21777344,-0.9048462,-0.117004395
1601136845276,998,0.23242188,-1.2600708,-0.06011963
1601136845276,999,0.30200195,-0.9993286,-0.00592041
1601136845277,1000,0.26367188,-0.9902954,-0.014953613
1601136845277,1001,0.30200195,-0.9993286,-0.00592041
1601136845277,1002,0.02734375,-0.97662354,-0.0051879883
1601136845278,1003,0.30200195,-0.9993286,-0.00592041
1601136845278,1004,0.30200195,-0.9993286,-0.00592041
1601136845278,1005,0.30004883,-0.9885864,0.03265381
1601136845278,1006,0.30004883,-0.9885864,0.03265381
1601136845279,1007,0.2709961,-0.944397,-0.074279785
1601136845279,1008,0.32299805,-0.9644165,0.04876709
1601136845279,1009,0.30004883,-0.9885864,0.03265381
1601136845279,1010,0.23242188,-1.2600708,-0.06011963
1601136845280,1011,0.30004883,-0.9885864,0.03265381
1601136845280,1012,0.32299805,-0.9644165,0.04876709
1601136845280,1013,0.025390625,-0.9116821,-0.01763916
1601136845280,1014,0.23242188,-1.2600708,-0.06011963
1601136845280,1015,0.32299805,-0.9644165,0.04876709
1601136845280,1016,0.30004883,-0.9885864,0.03265381
1601136845280,1017,0.32299805,-0.9644165,0.04876709
1601136845280,1018,0.26367188,-0.9902954,-0.014953613
1601136845280,1019,0.02734375,-0.97662354,-0.0051879883
1601136845281,1020,0.23242188,-1.2600708,-0.06011963
1601136845282,1021,0.02734375,-0.97662354,-0.0051879883
1601136845282,1022,0.30200195,-0.9993286,-0.00592041
1601136845282,1023,0.02734375,-0.97662354,-0.0051879883
1601136845295,1024,0.111083984,-1.0925903,0.12445068
1601136845297,1025,0.32299805,-0.9644165,0.04876709
1601136845297,1026,0.025390625,-0.9116821,-0.01763916
1601136845297,1027,0.23242188,-1.2600708,-0.06011963
1601136845297,1028,0.30200195,-0.9993286,-0.00592041
1601136845297,1029,0.111083984,-1.0925903,0.12445068
1601136845297,1030,0.30004883,-0.9885864,0.03265381
1601136845297,1031,0.025390625,-0.9116821,-0.01763916
1601136845297,1032,0.025390625,-0.9116821,-0.01763916
1601136845297,1033,0.025390625,-0.9116821,-0.01763916
1601136845298,1034,0.111083984,-1.0925903,0.12445068
1601136845299,1035,0.0546875,-0.8909302,0.07562256
1601136845300,1036,0.111083984,-1.0925903,0.12445068
1601136845302,1037,0.30004883,-0.9885864,0.03265381
1601136845309,1038,0.32299805,-0.9644165,0.04876709
1601136845310,1039,0.02734375,-0.97662354,-0.0051879883
1601136845310,1040,0.32299805,-0.9644165,0.04876709
1601136845310,1041,0.111083984,-1.0925903,0.12445068
1601136845310,1042,0.111083984,-1.0925903,0.12445068
1601136845310,1043,0.0703125,-0.9697876,0.14935303
1601136845310,1044,0.23242188,-1.2600708,-0.06011963
1601136845310,1045,0.0546875,-0.8909302,0.07562256
1601136845310,1046,0.0546875,-0.8909302,0.07562256
1601136845322,1047,0.0703125,-0.9697876,0.14935303
1601136845323,1048,0.0546875,-0.8909302,0.07562256
1601136845323,1049,0.025390625,-0.9116821,-0.01763916
1601136845323,1050,0.10595703,-0.95440674,0.11004639
1601136845324,1051,0.0546875,-0.8909302,0.07562256
1601136845324,1052,0.10595703,-0.95440674,0.11004639
1601136845324,1053,0.02734375,-0.97662354,-0.0051879883
1601136845324,1054,0.0703125,-0.9697876,0.14935303
1601136845324,1055,0.0703125,-0.9697876,0.14935303
1601136845324,1056,0.10595703,-0.95440674,0.11004639
1601136845324,1057,0.0546875,-0.8909302,0.07562256
1601136845324,1058,0.23242188,-1.2600708,-0.06011963
1601136845324,1059,0.111083984,-1.0925903,0.12445068
1601136845325,1060,0.0703125,-0.9697876,0.14935303
1601136845325,1061,0.0546875,-0.8909302,0.07562256
1601136845326,1062,0.1303711,-0.98760986,0.13470459
1601136845326,1063,0.1303711,-0.98760986,0.13470459
1601136845328,1064,0.23242188,-1.2600708,-0.06011963
1601136845329,1065,0.02734375,-0.97662354,-0.0051879883
1601136845332,1066,0.0703125,-0.9697876,0.14935303
1601136845335,1067,0.0703125,-0.9697876,0.14935303
1601136845335,1068,0.10595703,-0.95440674,0.11004639
1601136845335,1069,0.12548828,-0.9602661,0.10491943
1601136845335,1070,0.10595703,-0.95440674,0.11004639
1601136845342,1071,0.10595703,-0.95440674,0.11004639
1601136845343,1072,0.025390625,-0.9116821,-0.01763916
1601136845344,1073,0.02734375,-0.97662354,-0.0051879883
1601136845344,1074,0.1303711,-0.98760986,0.13470459
1601136845344,1075,0.025390625,-0.9116821,-0.01763916
1601136845344,1076,0.1303711,-0.98760986,0.13470459
1601136845344,1077,0.1303711,-0.98760986,0.13470459
1601136845344,1078,0.17895508,-0.9717407,0.14837646
1601136845344,1079,0.12548828,-0.9602661,0.10491943
1601136845344,1080,0.10595703,-0.95440674,0.11004639
1601136845344,1081,0.111083984,-1.0925903,0.12445068
1601136845345,1082,0.12548828,-0.9602661,0.10491943
1601136845357,1083,0.1303711,-0.98760986,0.13470459
1601136845358,1084,0.025390625,-0.9116821,-0.01763916
1601136845358,1085,0.12548828,-0.9602661,0.10491943
1601136845358,1086,0.12548828,-0.9602661,0.10491943
1601136845358,1087,0.12548828,-0.9602661,0.10491943
1601136845358,1088,0.1303711,-0.98760986,0.13470459
1601136845359,1089,0.0546875,-0.8909302,0.07562256
1601136845359,1090,0.17895508,-0.9717407,0.14837646
1601136845359,1091,0.111083984,-1.0925903,0.12445068
1601136845359,1092,0.111083984,-1.0925903,0.12445068
1601136845359,1093,0.0546875,-0.8909302,0.07562256
1601136845359,1094,0.17895508,-0.9717407,0.14837646
1601136845360,1095,0.0703125,-0.9697876,0.14935303
1601136845362,1096,0.17895508,-0.9717407,0.14837646
1601136845369,1097,0.12548828,-0.9602661,0.10491943
1601136845369,1098,0.0546875,-0.8909302,0.07562256
1601136845371,1099,0.17895508,-0.9717407,0.14837646
1601136845371,1100,0.17895508,-0.9717407,0.14837646
1601136845371,1101,0.10595703,-0.95440674,0.11004639
1601136845371,1102,0.0703125,-0.9697876,0.14935303
1601136845382,1103,0.17895508,-0.9717407,0.14837646
1601136845382,1104,0.0703125,-0.9697876,0.14935303
1601136845383,1105,0.10595703,-0.95440674,0.11004639
1601136845390,1106,0.10595703,-0.95440674,0.11004639
1601136845390,1107,0.1303711,-0.98760986,0.13470459
1601136845390,1108,0.1303711,-0.98760986,0.13470459
1601136845390,1109,0.1303711,-0.98760986,0.13470459
1601136845391,1110,0.12548828,-0.9602661,0.10491943
1601136845391,1111,0.12548828,-0.9602661,0.10491943
1601136845391,1112,0.12548828,-0.9602661,0.10491943
1601136845391,1113,0.17895508,-0.9717407,0.14837646
1601136845391,1114,0.17895508,-0.9717407,0.14837646
1601136845393,1115,0.17895508,-0.9717407,0.14837646
1601136847594,1116,0.118896484,-1.2393188,0.049987793
1601136847594,1117,0.118896484,-1.2393188,0.049987793
1601136847594,1118,0.118896484,-1.2393188,0.049987793
1601136847597,1119,0.118896484,-1.2393188,0.049987793
1601136847597,1120,0.118896484,-1.2393188,0.049987793
1601136847597,1121,0.07739258,-1.2490845,-0.2119751
1601136847597,1122,0.07739258,-1.2490845,-0.2119751
1601136847599,1123,0.100097656,-0.7932739,-0.14459229
1601136847599,1124,0.118896484,-1.2393188,0.049987793
1601136847599,1125,0.100097656,-0.7932739,-0.14459229
1601136847599,1126,0.07739258,-1.2490845,-0.2119751
1601136847613,1127,0.118896484,-1.2393188,0.049987793
1601136847613,1128,0.118896484,-1.2393188,0.049987793
1601136847614,1129,0.07739258,-1.2490845,-0.2119751
1601136847614,1130,0.07739258,-1.2490845,-0.2119751
1601136847614,1131,0.100097656,-0.7932739,-0.14459229
1601136847614,1132,0.15332031,-1.1275024,-0.24664307
1601136847614,1133,0.20629883,-0.9595337,-0.128479
1601136847614,1134,0.100097656,-0.7932739,-0.14459229
1601136847614,1135,0.15332031,-1.1275024,-0.24664307
1601136847614,1136,0.118896484,-1.2393188,0.049987793
1601136847614,1137,0.20629883,-0.9595337,-0.128479
1601136847615,1138,0.07739258,-1.2490845,-0.2119751
1601136847615,1139,0.100097656,-0.7932739,-0.14459229
1601136847615,1140,0.07739258,-1.2490845,-0.2119751
1601136847615,1141,0.100097656,-0.7932739,-0.14459229
1601136847615,1142,0.15332031,-1.1275024,-0.24664307
1601136847615,1143,0.100097656,-0.7932739,-0.14459229
1601136847616,1144,0.15454102,-0.9368286,-0.10626221
1601136847616,1145,0.15332031,-1.1275024,-0.24664307
1601136847616,1146,0.15332031,-1.1275024,-0.24664307
1601136847616,1147,0.23583984,-0.96881104,-0.113098145
1601136847616,1148,0.15332031,-1.1275024,-0.24664307
1601136847617,1149,0.15454102,-0.9368286,-0.10626221
1601136847618,1150,0.20629883,-0.9595337,-0.128479
1601136847618,1151,0.23583984,-0.96881104,-0.113098145
1601136847635,1152,0.07739258,-1.2490845,-0.2119751
1601136847635,1153,0.25634766,-0.9805298,-0.06011963
1601136847635,1154,0.20629883,-0.9595337,-0.128479
1601136847636,1155,0.15332031,-1.1275024,-0.24664307
1601136847636,1156,0.20629883,-0.9595337,-0.128479
1601136847636,1157,0.24291992,-0.9414673,-0.06060791
1601136847636,1158,0.15454102,-0.9368286,-0.10626221
1601136847636,1159,0.15454102,-0.9368286,-0.10626221
1601136847636,1160,0.23583984,-0.96881104,-0.113098145
1601136847636,1161,0.23583984,-0.96881104,-0.113098145
1601136847636,1162,0.25634766,-0.9805298,-0.06011963
1601136847636,1163,0.25634766,-0.9805298,-0.06011963
1601136847636,1164,0.07739258,-1.2490845,-0.2119751
1601136847636,1165,0.20629883,-0.9595337,-0.128479
1601136847636,1166,0.20629883,-0.9595337,-0.128479
1601136847637,1167,0.100097656,-0.7932739,-0.14459229
1601136847637,1168,0.15454102,-0.9368286,-0.10626221
1601136847637,1169,0.118896484,-1.2393188,0.049987793
1601136847637,1170,0.15454102,-0.9368286,-0.10626221
1601136847637,1171,0.24291992,-0.9414673,-0.06060791
1601136847637,1172,0.23583984,-0.96881104,-0.113098145
1601136847637,1173,0.07739258,-1.2490845,-0.2119751
1601136847637,1174,0.15332031,-1.1275024,-0.24664307
1601136847638,1175,0.25634766,-0.9805298,-0.06011963
1601136847638,1176,0.100097656,-0.7932739,-0.14459229
1601136847638,1177,0.24291992,-0.9414673,-0.06060791
1601136847638,1178,0.24047852,-1.0256958,0.017028809
1601136847638,1179,0.24047852,-1.0256958,0.017028809
1601136847638,1180,0.24291992,-0.9414673,-0.06060791
1601136847638,1181,0.100097656,-0.7932739,-0.14459229
1601136847638,1182,0.24047852,-1.0256958,0.017028809
1601136847644,1183,0.25634766,-0.9805298,-0.06011963
1601136847644,1184,0.24560547,-1.2197876,-0.105773926
1601136847644,1185,0.15332031,-1.1275024,-0.24664307
1601136847644,1186,-0.04736328,-0.99835205,-0.14630127
1601136847644,1187,0.23583984,-0.96881104,-0.113098145
1601136847644,1188,0.24560547,-1.2197876,-0.105773926
1601136847644,1189,0.20629883,-0.9595337,-0.128479
1601136847644,1190,0.24047852,-1.0256958,0.017028809
1601136847645,1191,0.25634766,-0.9805298,-0.06011963
1601136847645,1192,0.15454102,-0.9368286,-0.10626221
1601136847646,1193,0.24560547,-1.2197876,-0.105773926
1601136847647,1194,0.24291992,-0.9414673,-0.06060791
1601136847661,1195,-0.04736328,-0.99835205,-0.14630127
1601136847661,1196,0.15454102,-0.9368286,-0.10626221
1601136847661,1197,0.13696289,-1.0076294,0.0028686523
1601136847661,1198,0.20629883,-0.9595337,-0.128479
1601136847661,1199,0.08227539,-0.98687744,0.035339355
1601136847661,1200,0.15454102,-0.9368286,-0.10626221
1601136847661,1201,0.24560547,-1.2197876,-0.105773926
1601136847661,1202,0.23583984,-0.96881104,-0.113098145
1601136847662,1203,-0.04736328,-0.99835205,-0.14630127
1601136847662,1204,-0.04736328,-0.99835205,-0.14630127
1601136847662,1205,0.24047852,-1.0256958,0.017028809
1601136847662,1206,0.13696289,-1.0076294,0.0028686523
1601136847662,1207,0.24291992,-0.9414673,-0.06060791
1601136847662,1208,0.13696289,-1.0076294,0.0028686523
1601136847662,1209,0.23583984,-0.96881104,-0.113098145
1601136847662,1210,0.0859375,-0.9011841,0.0065307617
1601136847662,1211,0.24560547,-1.2197876,-0.105773926
1601136847663,1212,0.08227539,-0.98687744,0.035339355
1601136847663,1213,0.24047852,-1.0256958,0.017028809
1601136847663,1214,0.23583984,-0.96881104,-0.113098145
1601136847663,1215,0.13696289,-1.0076294,0.0028686523
1601136847663,1216,0.0859375,-0.9011841,0.0065307617
1601136847663,1217,0.08227539,-0.98687744,0.035339355
1601136847663,1218,0.25634766,-0.9805298,-0.06011963
1601136847664,1219,0.25634766,-0.9805298,-0.06011963
1601136847664,1220,0.25634766,-0.9805298,-0.06011963
1601136847664,1221,0.15576172,-0.9788208,0.06512451
1601136847665,1222,-0.04736328,-0.99835205,-0.14630127
1601136847665,1223,0.24560547,-1.2197876,-0.105773926
1601136847665,1224,0.08227539,-0.98687744,0.035339355
1601136847665,1225,0.15576172,-0.9788208,0.06512451
1601136847665,1226,0.24291992,-0.9414673,-0.06060791
1601136847668,1227,0.24291992,-0.9414673,-0.06060791
1601136847668,1228,0.1928711,-0.9541626,0.07196045
1601136847675,1229,0.0859375,-0.9011841,0.0065307617
1601136847675,1230,-0.04736328,-0.99835205,-0.14630127
1601136847675,1231,0.15332031,-1.1275024,-0.24664307
1601136847676,1232,0.14282227,-1.0003052,0.08685303
1601136847676,1233,0.15576172,-0.9788208,0.06512451
1601136847676,1234,0.24291992,-0.9414673,-0.06060791
1601136847676,1235,0.13696289,-1.0076294,0.0028686523
1601136847677,1236,0.24047852,-1.0256958,0.017028809
1601136847677,1237,0.24047852,-1.0256958,0.017028809
1601136847677,1238,0.0859375,-0.9011841,0.0065307617
1601136847677,1239,0.24560547,-1.2197876,-0.105773926
1601136847677,1240,0.1928711,-0.9541626,0.07196045
1601136847677,1241,-0.04736328,-0.99835205,-0.14630127
1601136847677,1242,0.15576172,-0.9788208,0.06512451
1601136847677,1243,0.20629883,-0.9595337,-0.128479
1601136847677,1244,0.14282227,-1.0003052,0.08685303
1601136847678,1245,0.08227539,-0.98687744,0.035339355
1601136847678,1246,0.24560547,-1.2197876,-0.105773926
1601136847686,1247,0.24047852,-1.0256958,0.017028809
1601136847686,1248,0.13696289,-1.0076294,0.0028686523
1601136847687,1249,0.13696289,-1.0076294,0.0028686523
1601136847687,1250,0.08227539,-0.98687744,0.035339355
1601136847687,1251,0.08227539,-0.98687744,0.035339355
1601136847687,1252,0.17333984,-0.94195557,0.1005249
1601136847687,1253,0.15454102,-0.9368286,-0.10626221
1601136847687,1254,0.0859375,-0.9011841,0.0065307617
1601136847687,1255,-0.04736328,-0.99835205,-0.14630127
1601136847687,1256,0.0859375,-0.9011841,0.0065307617
1601136847688,1257,0.23583984,-0.96881104,-0.113098145
1601136847688,1258,0.24560547,-1.2197876,-0.105773926
1601136847688,1259,0.25634766,-0.9805298,-0.06011963
1601136847688,1260,0.0859375,-0.9011841,0.0065307617
1601136847688,1261,0.24291992,-0.9414673,-0.06060791
1601136847688,1262,0.1928711,-0.9541626,0.07196045
1601136847688,1263,0.19921875,-1.3067017,-0.051330566
1601136847689,1264,0.15576172,-0.9788208,0.06512451
1601136847695,1265,0.15576172,-0.9788208,0.06512451
1601136847696,1266,0.1928711,-0.9541626,0.07196045
1601136847696,1267,0.1928711,-0.9541626,0.07196045
1601136847696,1268,0.17333984,-0.94195557,0.1005249
1601136847696,1269,0.14282227,-1.0003052,0.08685303
1601136847696,1270,0.24047852,-1.0256958,0.017028809
1601136847696,1271,0.14282227,-1.0003052,0.08685303
1601136847696,1272,0.2331543,-1.0327759,-0.13067627
1601136847697,1273,0.13696289,-1.0076294,0.0028686523
1601136847697,1274,-0.04736328,-0.99835205,-0.14630127
1601136847703,1275,0.15576172,-0.9788208,0.06512451
1601136847703,1276,0.14282227,-1.0003052,0.08685303
1601136847703,1277,0.1928711,-0.9541626,0.07196045
1601136847703,1278,0.19921875,-1.3067017,-0.051330566
1601136847703,1279,0.24560547,-1.2197876,-0.105773926
1601136847703,1280,0.17333984,-0.94195557,0.1005249
1601136847703,1281,0.12817383,-0.9036255,-0.18048096
1601136847704,1282,-0.04736328,-0.99835205,-0.14630127
1601136847704,1283,0.2331543,-1.0327759,-0.13067627
1601136847704,1284,0.28344727,-1.107727,-0.014465332
1601136847704,1285,0.17333984,-0.94195557,0.1005249
1601136847720,1286,0.08227539,-0.98687744,0.035339355
1601136847720,1287,0.17333984,-0.94195557,0.1005249
1601136847720,1288,0.19921875,-1.3067017,-0.051330566
1601136847720,1289,0.0859375,-0.9011841,0.0065307617
1601136847720,1290,0.19921875,-1.3067017,-0.051330566
1601136847723,1291,0.22998047,-0.81256104,-0.1716919
1601136847723,1292,0.15576172,-0.9788208,0.06512451
1601136847723,1293,0.12817383,-0.9036255,-0.18048096
1601136847723,1294,0.1928711,-0.9541626,0.07196045
1601136847723,1295,0.2775879,-1.0237427,-0.0115356445
1601136847723,1296,0.14282227,-1.0003052,0.08685303
1601136847724,1297,0.13696289,-1.0076294,0.0028686523
1601136847724,1298,0.19921875,-1.3067017,-0.051330566
1601136847724,1299,0.17333984,-0.94195557,0.1005249
1601136847724,1300,0.2331543,-1.0327759,-0.13067627
1601136847724,1301,0.1928711,-0.9541626,0.07196045
1601136847724,1302,0.13696289,-1.0076294,0.0028686523
1601136847724,1303,0.19921875,-1.3067017,-0.051330566
1601136847724,1304,0.2409668,-0.975647,-0.045959473
1601136847724,1305,0.14282227,-1.0003052,0.08685303
1601136847724,1306,0.2331543,-1.0327759,-0.13067627
1601136847724,1307,0.28344727,-1.107727,-0.014465332
1601136847725,1308,0.17333984,-0.94195557,0.1005249
1601136847725,1309,0.2331543,-1.0327759,-0.13067627
1601136847725,1310,0.22998047,-0.81256104,-0.1716919
1601136847725,1311,0.12817383,-0.9036255,-0.18048096
1601136847732,1312,0.14282227,-1.0003052,0.08685303
1601136847732,1313,0.2331543,-1.0327759,-0.13067627
1601136847732,1314,0.17333984,-0.94195557,0.1005249
1601136847732,1315,0.32373047,-0.95977783,-0.033996582
1601136847732,1316,0.19921875,-1.3067017,-0.051330566
1601136847733,1317,0.12817383,-0.9036255,-0.18048096
1601136847733,1318,0.12817383,-0.9036255,-0.18048096
1601136847733,1319,0.2775879,-1.0237427,-0.0115356445
1601136847733,1320,0.08227539,-0.98687744,0.035339355
1601136847733,1321,0.28344727,-1.107727,-0.014465332
1601136847733,1322,0.08227539,-0.98687744,0.035339355
1601136847734,1323,0.12817383,-0.9036255,-0.18048096
1601136847758,1324,0.2331543,-1.0327759,-0.13067627
1601136847758,1325,0.19921875,-1.3067017,-0.051330566
1601136847759,1326,0.0859375,-0.9011841,0.0065307617
1601136847759,1327,0.28344727,-1.107727,-0.014465332
1601136847761,1328,0.28344727,-1.107727,-0.014465332
1601136847761,1329,0.28344727,-1.107727,-0.014465332
1601136847761,1330,0.2331543,-1.0327759,-0.13067627
1601136847762,1331,0.29345703,-1.0066528,0.047546387
1601136847767,1332,0.2409668,-0.975647,-0.045959473
1601136847767,1333,0.0859375,-0.9011841,0.0065307617
1601136847768,1334,0.32373047,-0.95977783,-0.033996582
1601136847768,1335,0.22998047,-0.81256104,-0.1716919
1601136847769,1336,0.12817383,-0.9036255,-0.18048096
1601136847769,1337,0.22998047,-0.81256104,-0.1716919
1601136847769,1338,0.22998047,-0.81256104,-0.1716919
1601136847769,1339,0.15576172,-0.9788208,0.06512451
1601136847769,1340,0.22998047,-0.81256104,-0.1716919
1601136847769,1341,0.28808594,-1.0818481,-0.045715332
1601136847769,1342,0.1928711,-0.9541626,0.07196045
1601136847770,1343,0.29345703,-1.0066528,0.047546387
1601136847770,1344,0.2775879,-1.0237427,-0.0115356445
1601136847770,1345,0.2775879,-1.0237427,-0.0115356445
1601136847771,1346,0.12817383,-0.9036255,-0.18048096
1601136847771,1347,0.15576172,-0.9788208,0.06512451
1601136847771,1348,0.28344727,-1.107727,-0.014465332
1601136847771,1349,0.28344727,-1.107727,-0.014465332
1601136847771,1350,0.2775879,-1.0237427,-0.0115356445
1601136847771,1351,0.28808594,-1.0818481,-0.045715332
1601136847771,1352,0.1928711,-0.9541626,0.07196045
1601136847771,1353,0.08569336,-1.1472778,0.015563965
1601136847771,1354,0.09667969,-0.8491821,0.043151855
1601136847771,1355,0.08569336,-1.1472778,0.015563965
1601136847771,1356,0.14282227,-1.0003052,0.08685303
1601136847771,1357,0.1628418,-1.1067505,0.09246826
1601136847772,1358,0.17333984,-0.94195557,0.1005249
1601136847772,1359,0.19921875,-1.3067017,-0.051330566
1601136847772,1360,0.09667969,-0.8491821,0.043151855
1601136847772,1361,0.2331543,-1.0327759,-0.13067627
1601136847772,1362,0.14282227,-1.0003052,0.08685303
1601136847772,1363,0.2409668,-0.975647,-0.045959473
1601136847772,1364,0.1628418,-1.1067505,0.09246826
1601136847772,1365,0.17333984,-0.94195557,0.1005249
1601136847773,1366,0.12817383,-0.9036255,-0.18048096
1601136847773,1367,0.19921875,-1.3067017,-0.051330566
1601136847773,1368,0.2409668,-0.975647,-0.045959473
1601136847775,1369,0.32373047,-0.95977783,-0.033996582
1601136847776,1370,0.2775879,-1.0237427,-0.0115356445
1601136847776,1371,0.22998047,-0.81256104,-0.1716919
1601136847776,1372,0.2409668,-0.975647,-0.045959473
1601136847776,1373,0.22998047,-0.81256104,-0.1716919
1601136847776,1374,0.2331543,-1.0327759,-0.13067627
1601136847776,1375,0.32373047,-0.95977783,-0.033996582
1601136847776,1376,0.12817383,-0.9036255,-0.18048096
1601136847776,1377,0.2775879,-1.0237427,-0.0115356445
1601136847777,1378,0.29345703,-1.0066528,0.047546387
1601136847777,1379,0.2409668,-0.975647,-0.045959473
1601136847777,1380,0.32373047,-0.95977783,-0.033996582
1601136847777,1381,0.32373047,-0.95977783,-0.033996582
1601136847778,1382,0.28344727,-1.107727,-0.014465332
1601136847778,1383,0.2409668,-0.975647,-0.045959473
1601136847778,1384,0.28344727,-1.107727,-0.014465332
1601136847778,1385,0.32373047,-0.95977783,-0.033996582
1601136847778,1386,0.2775879,-1.0237427,-0.0115356445
1601136847778,1387,0.28808594,-1.0818481,-0.045715332
1601136847778,1388,0.29345703,-1.0066528,0.047546387
1601136847778,1389,0.29345703,-1.0066528,0.047546387
1601136847779,1390,0.29345703,-1.0066528,0.047546387
1601136847780,1391,0.28808594,-1.0818481,-0.045715332
1601136847780,1392,0.28808594,-1.0818481,-0.045715332
1601136847780,1393,0.29345703,-1.0066528,0.047546387
1601136847780,1394,0.2409668,-0.975647,-0.045959473
1601136847780,1395,0.22998047,-0.81256104,-0.1716919
1601136847782,1396,0.28808594,-1.0818481,-0.045715332
1601136847789,1397,0.08569336,-1.1472778,0.015563965
1601136847789,1398,0.08569336,-1.1472778,0.015563965
1601136847789,1399,0.28808594,-1.0818481,-0.045715332
1601136847789,1400,0.22998047,-0.81256104,-0.1716919
1601136847790,1401,0.08569336,-1.1472778,0.015563965
1601136847790,1402,0.2775879,-1.0237427,-0.0115356445
1601136847791,1403,0.09667969,-0.8491821,0.043151855
1601136847791,1404,0.08569336,-1.1472778,0.015563965
1601136847791,1405,0.08569336,-1.1472778,0.015563965
1601136847793,1406,0.09667969,-0.8491821,0.043151855
1601136847793,1407,0.09667969,-0.8491821,0.043151855
1601136847793,1408,0.09667969,-0.8491821,0.043151855
1601136847794,1409,0.2775879,-1.0237427,-0.0115356445
1601136847794,1410,0.2409668,-0.975647,-0.045959473
1601136847794,1411,0.1628418,-1.1067505,0.09246826
1601136847794,1412,0.09667969,-0.8491821,0.043151855
1601136847795,1413,0.32373047,-0.95977783,-0.033996582
1601136847795,1414,0.2409668,-0.975647,-0.045959473
1601136847795,1415,0.32373047,-0.95977783,-0.033996582
1601136847795,1416,0.32373047,-0.95977783,-0.033996582
1601136847795,1417,0.1628418,-1.1067505,0.09246826
1601136847796,1418,0.1628418,-1.1067505,0.09246826
1601136847796,1419,0.1628418,-1.1067505,0.09246826
1601136847796,1420,0.29345703,-1.0066528,0.047546387
1601136847797,1421,0.1628418,-1.1067505,0.09246826
1601136847797,1422,0.29345703,-1.0066528,0.047546387
1601136847810,1423,0.28808594,-1.0818481,-0.045715332
1601136847810,1424,0.29345703,-1.0066528,0.047546387
1601136847810,1425,0.28808594,-1.0818481,-0.045715332
1601136847811,1426,0.08569336,-1.1472778,0.015563965
1601136847811,1427,0.08569336,-1.1472778,0.015563965
1601136847811,1428,0.28808594,-1.0818481,-0.045715332
1601136847811,1429,0.09667969,-0.8491821,0.043151855
1601136847811,1430,0.09667969,-0.8491821,0.043151855
1601136847811,1431,0.1628418,-1.1067505,0.09246826
1601136847811,1432,0.08569336,-1.1472778,0.015563965
1601136847811,1433,0.1628418,-1.1067505,0.09246826
1601136847812,1434,0.09667969,-0.8491821,0.043151855
1601136847812,1435,0.1628418,-1.1067505,0.09246826
1601136850169,1436,0.0703125,-0.88165283,0.062194824
1601136850169,1437,0.0703125,-0.88165283,0.062194824
1601136850169,1438,0.0703125,-0.88165283,0.062194824
1601136850169,1439,0.0703125,-0.88165283,0.062194824
1601136850169,1440,0.0703125,-0.88165283,0.062194824
1601136850169,1441,0.0703125,-0.88165283,0.062194824
1601136850169,1442,0.11303711,-0.9180298,0.15496826
1601136850169,1443,0.0703125,-0.88165283,0.062194824
1601136850172,1444,0.0703125,-0.88165283,0.062194824
1601136850172,1445,0.0703125,-0.88165283,0.062194824
1601136850173,1446,0.11303711,-0.9180298,0.15496826
1601136850173,1447,0.11303711,-0.9180298,0.15496826
1601136850176,1448,0.0703125,-0.88165283,0.062194824
1601136850177,1449,0.11303711,-0.9180298,0.15496826
1601136850178,1450,0.11303711,-0.9180298,0.15496826
1601136850180,1451,0.11303711,-0.9180298,0.15496826
1601136850192,1452,0.16137695,-0.9507446,0.16619873
1601136850193,1453,0.16137695,-0.9507446,0.16619873
1601136850193,1454,0.16137695,-0.9507446,0.16619873
1601136850193,1455,0.16137695,-0.9507446,0.16619873
1601136850193,1456,0.16137695,-0.9507446,0.16619873
1601136850193,1457,0.11303711,-0.9180298,0.15496826
1601136850194,1458,0.11303711,-0.9180298,0.15496826
1601136850194,1459,0.16137695,-0.9507446,0.16619873
1601136850194,1460,0.11303711,-0.9180298,0.15496826
1601136850237,1461,0.16137695,-0.9507446,0.16619873
1601136850237,1462,0.20166016,-0.956604,0.17816162
1601136850237,1463,0.20166016,-0.956604,0.17816162
1601136850237,1464,0.087402344,-0.95806885,0.19403076
1601136850237,1465,0.20166016,-0.956604,0.17816162
1601136850238,1466,0.20166016,-0.956604,0.17816162
1601136850238,1467,0.20166016,-0.956604,0.17816162
1601136850238,1468,0.087402344,-0.95806885,0.19403076
1601136850238,1469,0.11303711,-0.9180298,0.15496826
1601136850238,1470,0.31445312,-1.1138306,0.22503662
1601136850238,1471,0.087402344,-0.95806885,0.19403076
1601136850240,1472,0.20166016,-0.956604,0.17816162
1601136850240,1473,0.20166016,-0.956604,0.17816162
1601136850240,1474,0.31445312,-1.1138306,0.22503662
1601136850240,1475,0.087402344,-0.95806885,0.19403076
1601136850241,1476,0.15307617,-1.3665161,-0.19708252
1601136850241,1477,0.16137695,-0.9507446,0.16619873
1601136850241,1478,0.18408203,-0.73223877,0.0021362305
1601136850241,1479,0.31445312,-1.1138306,0.22503662
1601136850241,1480,0.20166016,-0.956604,0.17816162
1601136850241,1481,0.15307617,-1.3665161,-0.19708252
1601136850241,1482,0.16137695,-0.9507446,0.16619873
1601136850242,1483,0.087402344,-0.95806885,0.19403076
1601136850243,1484,0.20996094,-1.1016235,-0.18682861
1601136850243,1485,0.16137695,-0.9507446,0.16619873
1601136850247,1486,0.20166016,-0.956604,0.17816162
1601136850247,1487,0.15307617,-1.3665161,-0.19708252
1601136850247,1488,0.31445312,-1.1138306,0.22503662
1601136850247,1489,0.15307617,-1.3665161,-0.19708252
1601136850247,1490,0.087402344,-0.95806885,0.19403076
1601136850247,1491,0.18408203,-0.73223877,0.0021362305
1601136850247,1492,0.18408203,-0.73223877,0.0021362305
1601136850248,1493,0.31445312,-1.1138306,0.22503662
1601136850248,1494,0.31445312,-1.1138306,0.22503662
1601136850248,1495,0.087402344,-0.95806885,0.19403076
1601136850248,1496,0.15307617,-1.3665161,-0.19708252
1601136850248,1497,0.087402344,-0.95806885,0.19403076
1601136850248,1498,0.20996094,-1.1016235,-0.18682861
1601136850248,1499,0.087402344,-0.95806885,0.19403076
1601136850249,1500,0.15307617,-1.3665161,-0.19708252
1601136850250,1501,0.33032227,-0.90045166,-0.008361816
1601136850250,1502,0.33032227,-0.90045166,-0.008361816
1601136850250,1503,0.20166016,-0.956604,0.17816162
1601136850250,1504,0.18408203,-0.73223877,0.0021362305
1601136850251,1505,0.1665039,-0.9866333,-0.03692627
1601136850251,1506,0.31445312,-1.1138306,0.22503662
1601136850251,1507,0.20996094,-1.1016235,-0.18682861
1601136850251,1508,0.18408203,-0.73223877,0.0021362305
1601136850251,1509,0.15307617,-1.3665161,-0.19708252
1601136850251,1510,0.33032227,-0.90045166,-0.008361816
1601136850251,1511,0.20996094,-1.1016235,-0.18682861
1601136850251,1512,0.1665039,-0.9866333,-0.03692627
1601136850252,1513,0.087402344,-0.95806885,0.19403076
1601136850252,1514,0.1665039,-0.9866333,-0.03692627
1601136850252,1515,0.33032227,-0.90045166,-0.008361816
1601136850252,1516,0.3017578,-0.9636841,-0.016906738
1601136850252,1517,0.31445312,-1.1138306,0.22503662
1601136850252,1518,0.1665039,-0.9866333,-0.03692627
1601136850252,1519,0.15307617,-1.3665161,-0.19708252
1601136850252,1520,0.3017578,-0.9636841,-0.016906738
1601136850252,1521,0.18408203,-0.73223877,0.0021362305
1601136850252,1522,0.2788086,-0.9741821,0.008483887
1601136850252,1523,0.31445312,-1.1138306,0.22503662
1601136850253,1524,0.20996094,-1.1016235,-0.18682861
1601136850253,1525,0.265625,-0.9927368,-0.012512207
1601136850253,1526,0.3017578,-0.9636841,-0.016906738
1601136850253,1527,0.18408203,-0.73223877,0.0021362305
1601136850253,1528,0.20996094,-1.1016235,-0.18682861
1601136850257,1529,0.2788086,-0.9741821,0.008483887
1601136850257,1530,0.3017578,-0.9636841,-0.016906738
1601136850257,1531,0.18408203,-0.73223877,0.0021362305
1601136850257,1532,0.15307617,-1.3665161,-0.19708252
1601136850258,1533,0.33032227,-0.90045166,-0.008361816
1601136850258,1534,0.2734375,-1.0847778,0.06976318
1601136850258,1535,0.2788086,-0.9741821,0.008483887
1601136850258,1536,0.20996094,-1.1016235,-0.18682861
1601136850258,1537,0.23852539,-1.1819458,-0.07208252
1601136850259,1538,0.33032227,-0.90045166,-0.008361816
1601136850259,1539,0.265625,-0.9927368,-0.012512207
1601136850265,1540,0.1665039,-0.9866333,-0.03692627
1601136850265,1541,0.18408203,-0.73223877,0.0021362305
1601136850265,1542,0.265625,-0.9927368,-0.012512207
1601136850265,1543,0.20996094,-1.1016235,-0.18682861
1601136850267,1544,0.2788086,-0.9741821,0.008483887
1601136850267,1545,0.0053710938,-0.8753052,-0.051818848
1601136850267,1546,0.33032227,-0.90045166,-0.008361816
1601136850268,1547,0.1665039,-0.9866333,-0.03692627
1601136850269,1548,0.2734375,-1.0847778,0.06976318
1601136850269,1549,0.31445312,-1.1138306,0.22503662
1601136850269,1550,0.23852539,-1.1819458,-0.07208252
1601136850269,1551,0.3017578,-0.9636841,-0.016906738
1601136850269,1552,0.2734375,-1.0847778,0.06976318
1601136850269,1553,0.33032227,-0.90045166,-0.008361816
1601136850282,1554,0.1665039,-0.9866333,-0.03692627
1601136850282,1555,0.3017578,-0.9636841,-0.016906738
1601136850282,1556,0.3017578,-0.9636841,-0.016906738
1601136850282,1557,0.2788086,-0.9741821,0.008483887
1601136850282,1558,0.265625,-0.9927368,-0.012512207
1601136850282,1559,0.16772461,-1.0845337,0.04437256
1601136850282,1560,0.20996094,-1.1016235,-0.18682861
1601136850283,1561,0.0053710938,-0.8753052,-0.051818848
1601136850283,1562,0.2788086,-0.9741821,0.008483887
1601136850283,1563,0.23852539,-1.1819458,-0.07208252
1601136850283,1564,0.1665039,-0.9866333,-0.03692627
1601136850283,1565,0.15307617,-1.3665161,-0.19708252
1601136850283,1566,0.0053710938,-0.8753052,-0.051818848
1601136850283,1567,0.2734375,-1.0847778,0.06976318
1601136850283,1568,0.18408203,-0.73223877,0.0021362305
1601136850283,1569,0.20996094,-1.1016235,-0.18682861
1601136850283,1570,0.23852539,-1.1819458,-0.07208252
1601136850283,1571,0.3017578,-0.9636841,-0.016906738
1601136850283,1572,0.265625,-0.9927368,-0.012512207
1601136850284,1573,0.057128906,-1.0039673,0.062927246
1601136850284,1574,0.2788086,-0.9741821,0.008483887
1601136850284,1575,0.265625,-0.9927368,-0.012512207
1601136850284,1576,0.16772461,-1.0845337,0.04437256
1601136850291,1577,0.33032227,-0.90045166,-0.008361816
1601136850291,1578,0.16772461,-1.0845337,0.04437256
1601136850291,1579,0.33032227,-0.90045166,-0.008361816
1601136850291,1580,0.057128906,-1.0039673,0.062927246
1601136850291,1581,0.1665039,-0.9866333,-0.03692627
1601136850292,1582,0.265625,-0.9927368,-0.012512207
1601136850296,1583,0.2734375,-1.0847778,0.06976318
1601136850296,1584,0.2734375,-1.0847778,0.06976318
1601136850296,1585,0.3017578,-0.9636841,-0.016906738
1601136850296,1586,0.057128906,-1.0039673,0.062927246
1601136850296,1587,0.0053710938,-0.8753052,-0.051818848
1601136850304,1588,0.06347656,-0.833313,0.062194824
1601136850304,1589,0.06347656,-0.833313,0.062194824
1601136850304,1590,0.2788086,-0.9741821,0.008483887
1601136850304,1591,0.23852539,-1.1819458,-0.07208252
1601136850305,1592,0.265625,-0.9927368,-0.012512207
1601136850305,1593,0.16772461,-1.0845337,0.04437256
1601136850305,1594,0.2734375,-1.0847778,0.06976318
1601136850305,1595,0.06347656,-0.833313,0.062194824
1601136850305,1596,0.23852539,-1.1819458,-0.07208252
1601136850305,1597,0.2734375,-1.0847778,0.06976318
1601136850305,1598,0.0053710938,-0.8753052,-0.051818848
1601136850305,1599,0.1665039,-0.9866333,-0.03692627
1601136850305,1600,0.16796875,-0.95562744,0.12738037
1601136850305,1601,0.16772461,-1.0845337,0.04437256
1601136850306,1602,0.2788086,-0.9741821,0.008483887
1601136850306,1603,0.17797852,-0.95440674,0.15594482
1601136850306,1604,0.057128906,-1.0039673,0.062927246
1601136850306,1605,0.0053710938,-0.8753052,-0.051818848
1601136850312,1606,0.23852539,-1.1819458,-0.07208252
1601136850313,1607,0.3017578,-0.9636841,-0.016906738
1601136850313,1608,0.16796875,-0.95562744,0.12738037
1601136850313,1609,0.057128906,-1.0039673,0.062927246
1601136850313,1610,0.23852539,-1.1819458,-0.07208252
1601136850313,1611,0.06347656,-0.833313,0.062194824
1601136850313,1612,0.13549805,-0.96539307,0.12591553
1601136850313,1613,0.0053710938,-0.8753052,-0.051818848
1601136850313,1614,0.16796875,-0.95562744,0.12738037
1601136850313,1615,0.06347656,-0.833313,0.062194824
1601136850313,1616,0.12231445,-1.0462036,0.2333374
1601136850313,1617,0.17797852,-0.95440674,0.15594482
1601136850314,1618,0.0053710938,-0.8753052,-0.051818848
1601136850314,1619,0.17797852,-0.95440674,0.15594482
1601136850314,1620,0.265625,-0.9927368,-0.012512207
1601136850315,1621,0.13549805,-0.96539307,0.12591553
1601136850315,1622,0.16772461,-1.0845337,0.04437256
1601136850316,1623,0.2788086,-0.9741821,0.008483887
1601136850328,1624,0.22192383,-1.123352,0.07318115
1601136850329,1625,0.12231445,-1.0462036,0.2333374
1601136850329,1626,0.16796875,-0.95562744,0.12738037
1601136850329,1627,0.16772461,-1.0845337,0.04437256
1601136850329,1628,0.2734375,-1.0847778,0.06976318
1601136850329,1629,0.17797852,-0.95440674,0.15594482
1601136850329,1630,0.16772461,-1.0845337,0.04437256
1601136850329,1631,0.23852539,-1.1819458,-0.07208252
1601136850329,1632,0.265625,-0.9927368,-0.012512207
1601136850329,1633,0.057128906,-1.0039673,0.062927246
1601136850329,1634,0.0053710938,-0.8753052,-0.051818848
1601136850329,1635,0.2331543,-1.1829224,-0.14752197
1601136850329,1636,0.2734375,-1.0847778,0.06976318
1601136850329,1637,0.057128906,-1.0039673,0.062927246
1601136850330,1638,0.23852539,-1.1819458,-0.07208252
1601136850330,1639,0.06347656,-0.833313,0.062194824
1601136850330,1640,0.22192383,-1.123352,0.07318115
1601136850330,1641,0.13549805,-0.96539307,0.12591553
1601136850330,1642,0.16772461,-1.0845337,0.04437256
1601136850330,1643,0.2331543,-1.1829224,-0.14752197
1601136850330,1644,0.16796875,-0.95562744,0.12738037
1601136850330,1645,0.17553711,-0.8272095,-0.06329346
1601136850330,1646,0.057128906,-1.0039673,0.062927246
1601136850330,1647,0.17797852,-0.95440674,0.15594482
1601136850330,1648,0.06347656,-0.833313,0.062194824
1601136850330,1649,0.13549805,-0.96539307,0.12591553
1601136850330,1650,0.0053710938,-0.8753052,-0.051818848
1601136850330,1651,0.16796875,-0.95562744,0.12738037
1601136850330,1652,0.057128906,-1.0039673,0.062927246
1601136850330,1653,0.28442383,-1.0811157,-0.07940674
1601136850333,1654,0.13549805,-0.96539307,0.12591553
1601136850333,1655,0.16796875,-0.95562744,0.12738037
1601136850333,1656,0.17797852,-0.95440674,0.15594482
1601136850338,1657,0.13549805,-0.96539307,0.12591553
1601136850338,1658,0.16772461,-1.0845337,0.04437256
1601136850338,1659,0.17797852,-0.95440674,0.15594482
1601136850338,1660,0.057128906,-1.0039673,0.062927246
1601136850338,1661,0.25073242,-0.9092407,-0.06304932
1601136850338,1662,0.13549805,-0.96539307,0.12591553
1601136850339,1663,0.17553711,-0.8272095,-0.06329346
1601136850339,1664,0.06347656,-0.833313,0.062194824
1601136850339,1665,0.3383789,-0.96221924,-0.0064086914
1601136850339,1666,0.12231445,-1.0462036,0.2333374
1601136850339,1667,0.24829102,-0.9417114,-0.026428223
1601136850340,1668,0.28442383,-1.0811157,-0.07940674
1601136850340,1669,0.06347656,-0.833313,0.062194824
1601136850340,1670,0.12231445,-1.0462036,0.2333374
1601136850354,1671,0.12231445,-1.0462036,0.2333374
1601136850354,1672,0.22192383,-1.123352,0.07318115
1601136850354,1673,0.31713867,-0.9495239,0.029724121
1601136850354,1674,0.06347656,-0.833313,0.062194824
1601136850354,1675,0.25073242,-0.9092407,-0.06304932
1601136850354,1676,0.12231445,-1.0462036,0.2333374
1601136850355,1677,0.3383789,-0.96221924,-0.0064086914
1601136850355,1678,0.22192383,-1.123352,0.07318115
1601136850355,1679,0.12231445,-1.0462036,0.2333374
1601136850355,1680,0.24829102,-0.9417114,-0.026428223
1601136850355,1681,0.22192383,-1.123352,0.07318115
1601136850355,1682,0.31713867,-0.9495239,0.029724121
1601136850355,1683,0.22192383,-1.123352,0.07318115
1601136850355,1684,0.2331543,-1.1829224,-0.14752197
1601136850355,1685,0.17553711,-0.8272095,-0.06329346
1601136850356,1686,0.28442383,-1.0811157,-0.07940674
1601136850356,1687,0.2331543,-1.1829224,-0.14752197
1601136850358,1688,0.2331543,-1.1829224,-0.14752197
1601136850360,1689,0.2331543,-1.1829224,-0.14752197
1601136850361,1690,0.16796875,-0.95562744,0.12738037
1601136850362,1691,0.25073242,-0.9092407,-0.06304932
1601136850363,1692,0.22192383,-1.123352,0.07318115
1601136850365,1693,0.3383789,-0.96221924,-0.0064086914
1601136850366,1694,0.17553711,-0.8272095,-0.06329346
1601136850373,1695,0.17797852,-0.95440674,0.15594482
1601136850373,1696,0.28442383,-1.0811157,-0.07940674
1601136850374,1697,0.17553711,-0.8272095,-0.06329346
1601136850374,1698,0.2331543,-1.1829224,-0.14752197
1601136850375,1699,0.16796875,-0.95562744,0.12738037
1601136850375,1700,0.28442383,-1.0811157,-0.07940674
1601136850375,1701,0.24829102,-0.9417114,-0.026428223
1601136850376,1702,0.16796875,-0.95562744,0.12738037
1601136850409,1703,0.17553711,-0.8272095,-0.06329346
1601136850409,1704,0.13549805,-0.96539307,0.12591553
1601136850409,1705,0.17553711,-0.8272095,-0.06329346
1601136850409,1706,0.17797852,-0.95440674,0.15594482
1601136850409,1707,0.12231445,-1.0462036,0.2333374
1601136850409,1708,0.25073242,-0.9092407,-0.06304932
1601136850409,1709,0.31713867,-0.9495239,0.029724121
1601136850410,1710,0.17797852,-0.95440674,0.15594482
1601136850411,1711,0.3383789,-0.96221924,-0.0064086914
1601136850411,1712,0.25073242,-0.9092407,-0.06304932
1601136850411,1713,0.22192383,-1.123352,0.07318115
1601136850411,1714,0.13549805,-0.96539307,0.12591553
1601136850411,1715,0.28442383,-1.0811157,-0.07940674
1601136850411,1716,0.13549805,-0.96539307,0.12591553
1601136850413,1717,0.25073242,-0.9092407,-0.06304932
1601136850413,1718,0.28442383,-1.0811157,-0.07940674
1601136850413,1719,0.24829102,-0.9417114,-0.026428223
1601136850413,1720,0.12231445,-1.0462036,0.2333374
1601136850413,1721,0.3383789,-0.96221924,-0.0064086914
1601136850413,1722,0.22192383,-1.123352,0.07318115
1601136850413,1723,0.12231445,-1.0462036,0.2333374
1601136850413,1724,0.2331543,-1.1829224,-0.14752197
1601136850413,1725,0.25073242,-0.9092407,-0.06304932
1601136850414,1726,0.31713867,-0.9495239,0.029724121
1601136850414,1727,0.22192383,-1.123352,0.07318115
1601136850414,1728,0.24829102,-0.9417114,-0.026428223
1601136850415,1729,0.3383789,-0.96221924,-0.0064086914
1601136850416,1730,0.17553711,-0.8272095,-0.06329346
1601136850416,1731,0.3383789,-0.96221924,-0.0064086914
1601136850416,1732,0.24829102,-0.9417114,-0.026428223
1601136850416,1733,0.2331543,-1.1829224,-0.14752197
1601136850416,1734,0.31713867,-0.9495239,0.029724121
1601136850416,1735,0.2331543,-1.1829224,-0.14752197
1601136850416,1736,0.24829102,-0.9417114,-0.026428223
1601136850416,1737,0.17553711,-0.8272095,-0.06329346
1601136850417,1738,0.31713867,-0.9495239,0.029724121
1601136850417,1739,0.17553711,-0.8272095,-0.06329346
1601136850417,1740,0.28442383,-1.0811157,-0.07940674
1601136850417,1741,0.31713867,-0.9495239,0.029724121
1601136850417,1742,0.25073242,-0.9092407,-0.06304932
1601136850419,1743,0.3383789,-0.96221924,-0.0064086914
1601136850419,1744,0.28442383,-1.0811157,-0.07940674
1601136850419,1745,0.28442383,-1.0811157,-0.07940674
1601136850423,1746,0.24829102,-0.9417114,-0.026428223
1601136850423,1747,0.25073242,-0.9092407,-0.06304932
1601136850423,1748,0.25073242,-0.9092407,-0.06304932
1601136850424,1749,0.31713867,-0.9495239,0.029724121
1601136850424,1750,0.3383789,-0.96221924,-0.0064086914
1601136850426,1751,0.3383789,-0.96221924,-0.0064086914
1601136850431,1752,0.24829102,-0.9417114,-0.026428223
1601136850432,1753,0.24829102,-0.9417114,-0.026428223
1601136850432,1754,0.31713867,-0.9495239,0.029724121
1601136850432,1755,0.31713867,-0.9495239,0.029724121
1601136852704,1756,0.34326172,-1.0081177,0.010681152
1601136852704,1757,0.34326172,-1.0081177,0.010681152
1601136852708,1758,0.34326172,-1.0081177,0.010681152
1601136852709,1759,0.34326172,-1.0081177,0.010681152
1601136852709,1760,0.34326172,-1.0081177,0.010681152
1601136852709,1761,0.34326172,-1.0081177,0.010681152
1601136852710,1762,0.29541016,-0.9859009,0.07928467
1601136852710,1763,0.34326172,-1.0081177,0.010681152
1601136852710,1764,0.34326172,-1.0081177,0.010681152
1601136852710,1765,0.34326172,-1.0081177,0.010681152
1601136852710,1766,0.29541016,-0.9859009,0.07928467
1601136852710,1767,0.29541016,-0.9859009,0.07928467
1601136852710,1768,0.29541016,-0.9859009,0.07928467
1601136852711,1769,0.29541016,-0.9859009,0.07928467
1601136852711,1770,0.34887695,-1.1526489,0.0033569336
1601136852711,1771,0.34326172,-1.0081177,0.010681152
1601136852719,1772,0.29541016,-0.9859009,0.07928467
1601136852719,1773,0.29541016,-0.9859009,0.07928467
1601136852719,1774,0.34887695,-1.1526489,0.0033569336
1601136852719,1775,0.34887695,-1.1526489,0.0033569336
1601136852719,1776,0.34887695,-1.1526489,0.0033569336
1601136852720,1777,0.29541016,-0.9859009,0.07928467
1601136852720,1778,0.05126953,-0.98931885,0.018005371
1601136852720,1779,0.34887695,-1.1526489,0.0033569336
1601136852720,1780,0.34887695,-1.1526489,0.0033569336
1601136852720,1781,0.29541016,-0.9859009,0.07928467
1601136852720,1782,0.34887695,-1.1526489,0.0033569336
1601136852720,1783,0.05126953,-0.98931885,0.018005371
1601136852720,1784,0.05126953,-0.98931885,0.018005371
1601136852720,1785,0.05126953,-0.98931885,0.018005371
1601136852752,1786,0.06225586,-0.895813,0.00579834
1601136852752,1787,0.05126953,-0.98931885,0.018005371
1601136852752,1788,0.29541016,-0.9859009,0.07928467
1601136852752,1789,0.14794922,-1.1873169,0.17694092
1601136852752,1790,0.34887695,-1.1526489,0.0033569336
1601136852752,1791,0.06225586,-0.895813,0.00579834
1601136852752,1792,0.05126953,-0.98931885,0.018005371
1601136852753,1793,0.34887695,-1.1526489,0.0033569336
1601136852753,1794,-0.09887695,-0.8272095,0.10760498
1601136852753,1795,0.06225586,-0.895813,0.00579834
1601136852753,1796,0.06225586,-0.895813,0.00579834
1601136852753,1797,0.2956543,-0.96221924,0.152771
1601136852753,1798,0.34887695,-1.1526489,0.0033569336
1601136852753,1799,0.05126953,-0.98931885,0.018005371
1601136852753,1800,0.14794922,-1.1873169,0.17694092
1601136852753,1801,0.05126953,-0.98931885,0.018005371
1601136852753,1802,0.06225586,-0.895813,0.00579834
1601136852754,1803,0.16430664,-0.9109497,0.16937256
1601136852754,1804,0.14794922,-1.1873169,0.17694092
1601136852754,1805,0.05126953,-0.98931885,0.018005371
1601136852754,1806,0.14794922,-1.1873169,0.17694092
1601136852754,1807,0.06225586,-0.895813,0.00579834
1601136852754,1808,0.06225586,-0.895813,0.00579834
1601136852754,1809,0.06225586,-0.895813,0.00579834
1601136852754,1810,0.14794922,-1.1873169,0.17694092
1601136852754,1811,0.14794922,-1.1873169,0.17694092
1601136852754,1812,-0.09887695,-0.8272095,0.10760498
1601136852755,1813,-0.09887695,-0.8272095,0.10760498
1601136852755,1814,0.1665039,-0.91607666,0.19012451
1601136852755,1815,-0.09887695,-0.8272095,0.10760498
1601136852755,1816,0.14794922,-1.1873169,0.17694092
1601136852755,1817,0.2956543,-0.96221924,0.152771
1601136852755,1818,0.1784668,-1.031311,0.24407959
1601136852756,1819,0.2956543,-0.96221924,0.152771
1601136852756,1820,0.06225586,-0.895813,0.00579834
1601136852756,1821,0.2241211,-1.2190552,0.06463623
1601136852757,1822,0.05126953,-0.98931885,0.018005371
1601136852757,1823,0.14794922,-1.1873169,0.17694092
1601136852757,1824,-0.09887695,-0.8272095,0.10760498
1601136852757,1825,-0.09887695,-0.8272095,0.10760498
1601136852766,1826,0.16430664,-0.9109497,0.16937256
1601136852766,1827,-0.09887695,-0.8272095,0.10760498
1601136852766,1828,0.16430664,-0.9109497,0.16937256
1601136852767,1829,0.29663086,-1.1016235,-0.044006348
1601136852767,1830,0.14794922,-1.1873169,0.17694092
1601136852767,1831,0.1772461,-0.84259033,-0.054504395
1601136852767,1832,0.2956543,-0.96221924,0.152771
1601136852767,1833,0.35009766,-1.0872192,0.05706787
1601136852768,1834,0.2956543,-0.96221924,0.152771
1601136852768,1835,0.2956543,-0.96221924,0.152771
1601136852769,1836,0.1665039,-0.91607666,0.19012451
1601136852771,1837,0.1665039,-0.91607666,0.19012451
1601136852778,1838,-0.09887695,-0.8272095,0.10760498
1601136852778,1839,0.06225586,-0.895813,0.00579834
1601136852778,1840,0.2409668,-0.8040161,-0.05328369
1601136852778,1841,0.1784668,-1.031311,0.24407959
1601136852778,1842,0.16430664,-0.9109497,0.16937256
1601136852778,1843,0.16430664,-0.9109497,0.16937256
1601136852778,1844,0.2956543,-0.96221924,0.152771
1601136852778,1845,0.1784668,-1.031311,0.24407959
1601136852779,1846,-0.09887695,-0.8272095,0.10760498
1601136852789,1847,0.2956543,-0.96221924,0.152771
1601136852789,1848,0.1665039,-0.91607666,0.19012451
1601136852789,1849,0.2241211,-1.2190552,0.06463623
1601136852790,1850,0.29760742,-0.9834595,-0.04425049
1601136852790,1851,0.2956543,-0.96221924,0.152771
1601136852790,1852,0.14794922,-1.1873169,0.17694092
1601136852790,1853,0.1665039,-0.91607666,0.19012451
1601136852790,1854,0.2241211,-1.2190552,0.06463623
1601136852790,1855,-0.09887695,-0.8272095,0.10760498
1601136852790,1856,0.16430664,-0.9109497,0.16937256
1601136852790,1857,0.2956543,-0.96221924,0.152771
1601136852790,1858,0.1784668,-1.031311,0.24407959
1601136852790,1859,0.1665039,-0.91607666,0.19012451
1601136852790,1860,0.2241211,-1.2190552,0.06463623
1601136852790,1861,0.4255371,-0.8965454,0.13641357
1601136852790,1862,0.29663086,-1.1016235,-0.044006348
1601136852791,1863,0.1784668,-1.031311,0.24407959
1601136852791,1864,0.16430664,-0.9109497,0.16937256
1601136852791,1865,0.36132812,-0.92437744,0.018005371
1601136852792,1866,0.29663086,-1.1016235,-0.044006348
1601136852797,1867,0.16430664,-0.9109497,0.16937256
1601136852798,1868,0.16430664,-0.9109497,0.16937256
1601136852798,1869,0.1665039,-0.91607666,0.19012451
1601136852798,1870,0.1772461,-0.84259033,-0.054504395
1601136852798,1871,0.29663086,-1.1016235,-0.044006348
1601136852798,1872,0.35009766,-1.0872192,0.05706787
1601136852798,1873,0.1665039,-0.91607666,0.19012451
1601136852798,1874,0.2409668,-0.8040161,-0.05328369
1601136852798,1875,0.16430664,-0.9109497,0.16937256
1601136852798,1876,0.1772461,-0.84259033,-0.054504395
1601136852799,1877,0.1784668,-1.031311,0.24407959
1601136852799,1878,0.1784668,-1.031311,0.24407959
1601136852807,1879,0.1665039,-0.91607666,0.19012451
1601136852807,1880,0.1772461,-0.84259033,-0.054504395
1601136852808,1881,0.29760742,-0.9834595,-0.04425049
1601136852808,1882,0.1665039,-0.91607666,0.19012451
1601136852808,1883,0.1784668,-1.031311,0.24407959
1601136852808,1884,0.35009766,-1.0872192,0.05706787
1601136852808,1885,0.2241211,-1.2190552,0.06463623
1601136852808,1886,0.36401367,-1.0747681,0.058776855
1601136852808,1887,0.2241211,-1.2190552,0.06463623
1601136852808,1888,0.2241211,-1.2190552,0.06463623
1601136852808,1889,0.27734375,-1.1575317,0.034362793
1601136852808,1890,0.29663086,-1.1016235,-0.044006348
1601136852808,1891,0.35009766,-1.0872192,0.05706787
1601136852808,1892,0.4255371,-0.8965454,0.13641357
1601136852808,1893,0.1784668,-1.031311,0.24407959
1601136852808,1894,0.2241211,-1.2190552,0.06463623
1601136852808,1895,0.36132812,-0.92437744,0.018005371
1601136852808,1896,0.2409668,-0.8040161,-0.05328369
1601136852816,1897,0.1262207,-0.9517212,-0.12896729
1601136852816,1898,0.1772461,-0.84259033,-0.054504395
1601136852816,1899,0.29663086,-1.1016235,-0.044006348
1601136852816,1900,0.1784668,-1.031311,0.24407959
1601136852817,1901,0.35009766,-1.0872192,0.05706787
1601136852817,1902,0.1772461,-0.84259033,-0.054504395
1601136852817,1903,0.29663086,-1.1016235,-0.044006348
1601136852817,1904,0.35009766,-1.0872192,0.05706787
1601136852817,1905,0.2241211,-1.2190552,0.06463623
1601136852817,1906,0.29760742,-0.9834595,-0.04425049
1601136852817,1907,0.1772461,-0.84259033,-0.054504395
1601136852817,1908,-0.028320312,-0.98321533,-0.0020141602
1601136852817,1909,0.29663086,-1.1016235,-0.044006348
1601136852817,1910,0.059814453,-1.0901489,0.022888184
1601136852818,1911,0.2409668,-0.8040161,-0.05328369
1601136852818,1912,0.0769043,-0.8711548,0.027770996
1601136852818,1913,0.2241211,-1.2190552,0.06463623
1601136852818,1914,0.2409668,-0.8040161,-0.05328369
1601136852818,1915,0.29663086,-1.1016235,-0.044006348
1601136852819,1916,0.4255371,-0.8965454,0.13641357
1601136852820,1917,0.35009766,-1.0872192,0.05706787
1601136852821,1918,0.29760742,-0.9834595,-0.04425049
1601136852822,1919,0.29663086,-1.1016235,-0.044006348
1601136852826,1920,0.4255371,-0.8965454,0.13641357
1601136852826,1921,0.1772461,-0.84259033,-0.054504395
1601136852826,1922,0.1772461,-0.84259033,-0.054504395
1601136852826,1923,0.35009766,-1.0872192,0.05706787
1601136852826,1924,0.36401367,-1.0747681,0.058776855
1601136852827,1925,0.36132812,-0.92437744,0.018005371
1601136852827,1926,0.13549805,-0.9651489,0.097839355
1601136852827,1927,0.29760742,-0.9834595,-0.04425049
1601136852827,1928,0.2409668,-0.8040161,-0.05328369
1601136852837,1929,0.1772461,-0.84259033,-0.054504395
1601136852837,1930,0.36132812,-0.92437744,0.018005371
1601136852837,1931,0.2409668,-0.8040161,-0.05328369
1601136852838,1932,0.2409668,-0.8040161,-0.05328369
1601136852838,1933,0.35009766,-1.0872192,0.05706787
1601136852838,1934,0.29760742,-0.9834595,-0.04425049
1601136852838,1935,0.36401367,-1.0747681,0.058776855
1601136852838,1936,0.16674805,-0.92681885,0.1293335
1601136852838,1937,0.4255371,-0.8965454,0.13641357
1601136852838,1938,0.29760742,-0.9834595,-0.04425049
1601136852838,1939,0.36132812,-0.92437744,0.018005371
1601136852838,1940,0.35009766,-1.0872192,0.05706787
1601136852838,1941,0.36401367,-1.0747681,0.058776855
1601136852838,1942,0.27734375,-1.1575317,0.034362793
1601136852838,1943,0.29760742,-0.9834595,-0.04425049
1601136852838,1944,0.2409668,-0.8040161,-0.05328369
1601136852838,1945,0.1262207,-0.9517212,-0.12896729
1601136852838,1946,0.27734375,-1.1575317,0.034362793
1601136852838,1947,0.29760742,-0.9834595,-0.04425049
1601136852839,1948,0.4255371,-0.8965454,0.13641357
1601136852839,1949,0.27734375,-1.1575317,0.034362793
1601136852844,1950,0.2409668,-0.8040161,-0.05328369
1601136852845,1951,0.4255371,-0.8965454,0.13641357
1601136852845,1952,0.16259766,-0.98687744,0.1239624
1601136852845,1953,-0.028320312,-0.98321533,-0.0020141602
1601136852845,1954,0.12792969,-1.0061646,0.08074951
1601136852845,1955,0.1262207,-0.9517212,-0.12896729
1601136852845,1956,0.36401367,-1.0747681,0.058776855
1601136852845,1957,0.36132812,-0.92437744,0.018005371
1601136852845,1958,0.27734375,-1.1575317,0.034362793
1601136852845,1959,0.4255371,-0.8965454,0.13641357
1601136852845,1960,0.1262207,-0.9517212,-0.12896729
1601136852845,1961,0.36132812,-0.92437744,0.018005371
1601136852846,1962,0.36401367,-1.0747681,0.058776855
1601136852847,1963,0.27734375,-1.1575317,0.034362793
1601136852851,1964,0.1262207,-0.9517212,-0.12896729
1601136852851,1965,0.1262207,-0.9517212,-0.12896729
1601136852851,1966,-0.028320312,-0.98321533,-0.0020141602
1601136852851,1967,0.36132812,-0.92437744,0.018005371
1601136852851,1968,0.4255371,-0.8965454,0.13641357
1601136852851,1969,0.36401367,-1.0747681,0.058776855
1601136852851,1970,0.1315918,-1.1323853,0.112976074
1601136852851,1971,0.36132812,-0.92437744,0.018005371
1601136852851,1972,0.27734375,-1.1575317,0.034362793
1601136852851,1973,0.36401367,-1.0747681,0.058776855
1601136852852,1974,0.1262207,-0.9517212,-0.12896729
1601136852858,1975,0.059814453,-1.0901489,0.022888184
1601136852858,1976,0.059814453,-1.0901489,0.022888184
1601136852858,1977,-0.028320312,-0.98321533,-0.0020141602
1601136852858,1978,0.36401367,-1.0747681,0.058776855
1601136852858,1979,0.20092773,-1.2481079,-0.16802979
1601136852858,1980,0.29760742,-0.9834595,-0.04425049
1601136852858,1981,0.30493164,-0.85162354,-0.07525635
1601136852858,1982,0.27734375,-1.1575317,0.034362793
1601136852859,1983,0.4255371,-0.8965454,0.13641357
1601136852859,1984,-0.028320312,-0.98321533,-0.0020141602
1601136852859,1985,0.36132812,-0.92437744,0.018005371
1601136852864,1986,0.0769043,-0.8711548,0.027770996
1601136852864,1987,0.059814453,-1.0901489,0.022888184
1601136852864,1988,0.27734375,-1.1575317,0.034362793
1601136852864,1989,0.13549805,-0.9651489,0.097839355
1601136852864,1990,0.1262207,-0.9517212,-0.12896729
1601136852864,1991,-0.028320312,-0.98321533,-0.0020141602
1601136852864,1992,0.1262207,-0.9517212,-0.12896729
1601136852865,1993,0.059814453,-1.0901489,0.022888184
1601136852865,1994,0.059814453,-1.0901489,0.022888184
1601136852865,1995,0.36401367,-1.0747681,0.058776855
1601136852871,1996,-0.028320312,-0.98321533,-0.0020141602
1601136852872,1997,0.0769043,-0.8711548,0.027770996
1601136852872,1998,0.16674805,-0.92681885,0.1293335
1601136852872,1999,-0.028320312,-0.98321533,-0.0020141602
1601136852872,2000,0.0769043,-0.8711548,0.027770996
1601136852872,2001,0.059814453,-1.0901489,0.022888184
1601136852872,2002,-0.028320312,-0.98321533,-0.0020141602
1601136852873,2003,0.0769043,-0.8711548,0.027770996
1601136852873,2004,0.27734375,-1.1575317,0.034362793
1601136852899,2005,0.13549805,-0.9651489,0.097839355
1601136852899,2006,0.059814453,-1.0901489,0.022888184
1601136852899,2007,0.16259766,-0.98687744,0.1239624
1601136852899,2008,0.0769043,-0.8711548,0.027770996
1601136852899,2009,0.13549805,-0.9651489,0.097839355
1601136852899,2010,0.0769043,-0.8711548,0.027770996
1601136852899,2011,0.059814453,-1.0901489,0.022888184
1601136852899,2012,0.1262207,-0.9517212,-0.12896729
1601136852899,2013,0.13549805,-0.9651489,0.097839355
1601136852899,2014,0.16674805,-0.92681885,0.1293335
1601136852899,2015,0.0769043,-0.8711548,0.027770996
1601136852899,2016,0.12792969,-1.0061646,0.08074951
1601136852899,2017,0.13549805,-0.9651489,0.097839355
1601136852900,2018,0.1315918,-1.1323853,0.112976074
1601136852900,2019,0.13549805,-0.9651489,0.097839355
1601136852900,2020,0.16674805,-0.92681885,0.1293335
1601136852900,2021,0.16674805,-0.92681885,0.1293335
1601136852900,2022,-0.028320312,-0.98321533,-0.0020141602
1601136852900,2023,0.13549805,-0.9651489,0.097839355
1601136852900,2024,0.16259766,-0.98687744,0.1239624
1601136852900,2025,0.16259766,-0.98687744,0.1239624
1601136852900,2026,0.16674805,-0.92681885,0.1293335
1601136852900,2027,0.16674805,-0.92681885,0.1293335
1601136852900,2028,0.0769043,-0.8711548,0.027770996
1601136852900,2029,0.16259766,-0.98687744,0.1239624
1601136852900,2030,0.13549805,-0.9651489,0.097839355
1601136852901,2031,0.16674805,-0.92681885,0.1293335
1601136852901,2032,0.059814453,-1.0901489,0.022888184
1601136852901,2033,0.20092773,-1.2481079,-0.16802979
1601136852901,2034,0.16674805,-0.92681885,0.1293335
1601136852901,2035,0.12792969,-1.0061646,0.08074951
1601136852901,2036,0.16259766,-0.98687744,0.1239624
1601136852901,2037,0.12792969,-1.0061646,0.08074951
1601136852901,2038,0.1315918,-1.1323853,0.112976074
1601136852901,2039,0.16259766,-0.98687744,0.1239624
1601136852901,2040,0.1315918,-1.1323853,0.112976074
1601136852901,2041,0.0769043,-0.8711548,0.027770996
1601136852901,2042,0.16259766,-0.98687744,0.1239624
1601136852902,2043,0.30493164,-0.85162354,-0.07525635
1601136852902,2044,0.20092773,-1.2481079,-0.16802979
1601136852902,2045,0.12792969,-1.0061646,0.08074951
1601136852902,2046,0.20092773,-1.2481079,-0.16802979
1601136852902,2047,0.13549805,-0.9651489,0.097839355
1601136852902,2048,0.30493164,-0.85162354,-0.07525635
1601136852902,2049,0.16259766,-0.98687744,0.1239624
1601136852902,2050,0.16674805,-0.92681885,0.1293335
1601136852902,2051,0.12792969,-1.0061646,0.08074951
1601136852902,2052,0.30493164,-0.85162354,-0.07525635
1601136852902,2053,0.12792969,-1.0061646,0.08074951
1601136852902,2054,0.1315918,-1.1323853,0.112976074
1601136852902,2055,0.20092773,-1.2481079,-0.16802979
1601136852902,2056,0.16259766,-0.98687744,0.1239624
1601136852902,2057,0.12792969,-1.0061646,0.08074951
1601136852902,2058,0.1315918,-1.1323853,0.112976074
1601136852902,2059,0.1315918,-1.1323853,0.112976074
1601136852902,2060,0.12792969,-1.0061646,0.08074951
1601136852903,2061,0.12792969,-1.0061646,0.08074951
1601136852903,2062,0.1315918,-1.1323853,0.112976074
1601136852903,2063,0.1315918,-1.1323853,0.112976074
1601136852903,2064,0.30493164,-0.85162354,-0.07525635
1601136852903,2065,0.20092773,-1.2481079,-0.16802979
1601136852905,2066,0.1315918,-1.1323853,0.112976074
1601136852905,2067,0.30493164,-0.85162354,-0.07525635
1601136852905,2068,0.20092773,-1.2481079,-0.16802979
1601136852905,2069,0.20092773,-1.2481079,-0.16802979
1601136852905,2070,0.20092773,-1.2481079,-0.16802979
1601136852907,2071,0.30493164,-0.85162354,-0.07525635
1601136852907,2072,0.30493164,-0.85162354,-0.07525635
1601136852907,2073,0.20092773,-1.2481079,-0.16802979
1601136852907,2074,0.30493164,-0.85162354,-0.07525635
1601136852910,2075,0.30493164,-0.85162354,-0.07525635
1601136855193,2076,0.25756836,-1.0896606,-0.14361572
1601136855193,2077,0.25756836,-1.0896606,-0.14361572
1601136855193,2078,0.25756836,-1.0896606,-0.14361572
1601136855193,2079,0.25756836,-1.0896606,-0.14361572
1601136855199,2080,0.34448242,-0.9817505,-0.085510254
1601136855199,2081,0.25756836,-1.0896606,-0.14361572
1601136855199,2082,0.25756836,-1.0896606,-0.14361572
1601136855199,2083,0.25756836,-1.0896606,-0.14361572
1601136855199,2084,0.19238281,-0.8081665,-0.089660645
1601136855199,2085,0.34448242,-0.9817505,-0.085510254
1601136855200,2086,0.25756836,-1.0896606,-0.14361572
1601136855200,2087,0.34448242,-0.9817505,-0.085510254
1601136855202,2088,0.34448242,-0.9817505,-0.085510254
1601136855221,2089,0.34448242,-0.9817505,-0.085510254
1601136855221,2090,0.24853516,-0.8870239,-0.21759033
1601136855222,2091,0.42773438,-1.0430298,0.120788574
1601136855222,2092,0.2866211,-0.9595337,-0.0803833
1601136855222,2093,0.34448242,-0.9817505,-0.085510254
1601136855222,2094,0.36035156,-1.0491333,0.17230225
1601136855223,2095,0.19238281,-0.8081665,-0.089660645
1601136855228,2096,0.19238281,-0.8081665,-0.089660645
1601136855228,2097,0.34448242,-0.9817505,-0.085510254
1601136855228,2098,0.19238281,-0.8081665,-0.089660645
1601136855229,2099,0.24853516,-0.8870239,-0.21759033
1601136855229,2100,0.19238281,-0.8081665,-0.089660645
1601136855229,2101,0.34448242,-0.9817505,-0.085510254
1601136855229,2102,0.25756836,-1.0896606,-0.14361572
1601136855229,2103,0.19238281,-0.8081665,-0.089660645
1601136855229,2104,0.25756836,-1.0896606,-0.14361572
1601136855229,2105,0.24853516,-0.8870239,-0.21759033
1601136855229,2106,0.3557129,-1.0413208,-0.09674072
1601136855229,2107,0.19238281,-0.8081665,-0.089660645
1601136855234,2108,0.42773438,-1.0430298,0.120788574
1601136855234,2109,0.24853516,-0.8870239,-0.21759033
1601136855234,2110,0.19238281,-0.8081665,-0.089660645
1601136855234,2111,0.24853516,-0.8870239,-0.21759033
1601136855234,2112,0.42773438,-1.0430298,0.120788574
1601136855235,2113,0.34448242,-0.9817505,-0.085510254
1601136855235,2114,0.34448242,-0.9817505,-0.085510254
1601136855235,2115,0.19238281,-0.8081665,-0.089660645
1601136855235,2116,0.42773438,-1.0430298,0.120788574
1601136855235,2117,0.24853516,-0.8870239,-0.21759033
1601136855235,2118,0.2866211,-0.9595337,-0.0803833
1601136855236,2119,0.2866211,-0.9595337,-0.0803833
1601136855236,2120,0.42773438,-1.0430298,0.120788574
1601136855236,2121,0.13745117,-1.1331177,0.008239746
1601136855236,2122,0.2866211,-0.9595337,-0.0803833
1601136855236,2123,0.24853516,-0.8870239,-0.21759033
1601136855238,2124,0.19238281,-0.8081665,-0.089660645
1601136855240,2125,0.36035156,-1.0491333,0.17230225
1601136855240,2126,0.36035156,-1.0491333,0.17230225
1601136855242,2127,0.36035156,-1.0491333,0.17230225
1601136855255,2128,0.24853516,-0.8870239,-0.21759033
1601136855256,2129,0.42773438,-1.0430298,0.120788574
1601136855256,2130,0.42773438,-1.0430298,0.120788574
1601136855256,2131,0.24853516,-0.8870239,-0.21759033
1601136855256,2132,0.2866211,-0.9595337,-0.0803833
1601136855256,2133,-0.06225586,-0.86383057,-0.0256958
1601136855256,2134,0.36035156,-1.0491333,0.17230225
1601136855256,2135,0.2866211,-0.9595337,-0.0803833
1601136855256,2136,0.3557129,-1.0413208,-0.09674072
1601136855256,2137,0.3557129,-1.0413208,-0.09674072
1601136855256,2138,0.13745117,-1.1331177,0.008239746
1601136855256,2139,0.42773438,-1.0430298,0.120788574
1601136855257,2140,0.24853516,-0.8870239,-0.21759033
1601136855257,2141,-0.06225586,-0.86383057,-0.0256958
1601136855257,2142,0.42773438,-1.0430298,0.120788574
1601136855257,2143,0.3557129,-1.0413208,-0.09674072
1601136855257,2144,0.2866211,-0.9595337,-0.0803833
1601136855257,2145,0.3557129,-1.0413208,-0.09674072
1601136855257,2146,0.36035156,-1.0491333,0.17230225
1601136855257,2147,0.13745117,-1.1331177,0.008239746
1601136855258,2148,0.2866211,-0.9595337,-0.0803833
1601136855259,2149,0.3557129,-1.0413208,-0.09674072
1601136855259,2150,0.019042969,-1.1001587,0.06829834
1601136855259,2151,0.019042969,-1.1001587,0.06829834
1601136855259,2152,0.05419922,-0.97198486,0.06561279
1601136855259,2153,0.13745117,-1.1331177,0.008239746
1601136855259,2154,0.05419922,-0.97198486,0.06561279
1601136855259,2155,0.36035156,-1.0491333,0.17230225
1601136855259,2156,0.080322266,-0.91485596,0.08392334
1601136855259,2157,-0.06225586,-0.86383057,-0.0256958
1601136855259,2158,0.13745117,-1.1331177,0.008239746
1601136855261,2159,0.2866211,-0.9595337,-0.0803833
1601136855266,2160,0.42773438,-1.0430298,0.120788574
1601136855266,2161,0.36035156,-1.0491333,0.17230225
1601136855266,2162,0.3557129,-1.0413208,-0.09674072
1601136855267,2163,0.11425781,-0.9570923,0.105407715
1601136855267,2164,0.13745117,-1.1331177,0.008239746
1601136855270,2165,0.019042969,-1.1001587,0.06829834
1601136855270,2166,-0.06225586,-0.86383057,-0.0256958
1601136855272,2167,0.13745117,-1.1331177,0.008239746
1601136855272,2168,-0.06225586,-0.86383057,-0.0256958
1601136855272,2169,0.080322266,-0.91485596,0.08392334
1601136855273,2170,0.2866211,-0.9595337,-0.0803833
1601136855275,2171,0.36035156,-1.0491333,0.17230225
1601136855276,2172,-0.06225586,-0.86383057,-0.0256958
1601136855276,2173,0.05419922,-0.97198486,0.06561279
1601136855276,2174,0.019042969,-1.1001587,0.06829834
1601136855276,2175,0.019042969,-1.1001587,0.06829834
1601136855276,2176,0.080322266,-0.91485596,0.08392334
1601136855276,2177,0.3557129,-1.0413208,-0.09674072
1601136855276,2178,-0.06225586,-0.86383057,-0.0256958
1601136855277,2179,0.36035156,-1.0491333,0.17230225
1601136855277,2180,0.019042969,-1.1001587,0.06829834
1601136855277,2181,0.3557129,-1.0413208,-0.09674072
1601136855278,2182,0.3557129,-1.0413208,-0.09674072
1601136855278,2183,0.13745117,-1.1331177,0.008239746
1601136855278,2184,0.05419922,-0.97198486,0.06561279
1601136855278,2185,0.13745117,-1.1331177,0.008239746
1601136855278,2186,0.05419922,-0.97198486,0.06561279
1601136855279,2187,0.05419922,-0.97198486,0.06561279
1601136855279,2188,0.13745117,-1.1331177,0.008239746
1601136855279,2189,0.13647461,-1.0188599,0.12908936
1601136855279,2190,0.019042969,-1.1001587,0.06829834
1601136855293,2191,0.11425781,-0.9570923,0.105407715
1601136855293,2192,-0.06225586,-0.86383057,-0.0256958
1601136855293,2193,-0.06225586,-0.86383057,-0.0256958
1601136855294,2194,0.080322266,-0.91485596,0.08392334
1601136855294,2195,0.080322266,-0.91485596,0.08392334
1601136855294,2196,-0.06225586,-0.86383057,-0.0256958
1601136855294,2197,0.080322266,-0.91485596,0.08392334
1601136855294,2198,0.122802734,-0.9380493,0.11248779
1601136855294,2199,0.11425781,-0.9570923,0.105407715
1601136855294,2200,0.11425781,-0.9570923,0.105407715
1601136855294,2201,0.13647461,-1.0188599,0.12908936
1601136855294,2202,0.13647461,-1.0188599,0.12908936
1601136855294,2203,0.019042969,-1.1001587,0.06829834
1601136855294,2204,0.019042969,-1.1001587,0.06829834
1601136855296,2205,0.11425781,-0.9570923,0.105407715
1601136855296,2206,0.019042969,-1.1001587,0.06829834
1601136855297,2207,0.05419922,-0.97198486,0.06561279
1601136855297,2208,0.05419922,-0.97198486,0.06561279
1601136855297,2209,0.13647461,-1.0188599,0.12908936
1601136855297,2210,0.14746094,-1.0484009,0.18060303
1601136855297,2211,0.122802734,-0.9380493,0.11248779
1601136855297,2212,0.122802734,-0.9380493,0.11248779
1601136855302,2213,0.05419922,-0.97198486,0.06561279
1601136855303,2214,0.05419922,-0.97198486,0.06561279
1601136855303,2215,0.11425781,-0.9570923,0.105407715
1601136855303,2216,0.13647461,-1.0188599,0.12908936
1601136855303,2217,0.13647461,-1.0188599,0.12908936
1601136855303,2218,0.122802734,-0.9380493,0.11248779
1601136855303,2219,0.080322266,-0.91485596,0.08392334
1601136855303,2220,0.14746094,-1.0484009,0.18060303
1601136855303,2221,0.14746094,-1.0484009,0.18060303
1601136855303,2222,0.11425781,-0.9570923,0.105407715
1601136855303,2223,0.080322266,-0.91485596,0.08392334
1601136855309,2224,0.13647461,-1.0188599,0.12908936
1601136855309,2225,0.080322266,-0.91485596,0.08392334
1601136855309,2226,0.122802734,-0.9380493,0.11248779
1601136855309,2227,0.11425781,-0.9570923,0.105407715
1601136855309,2228,0.122802734,-0.9380493,0.11248779
1601136855310,2229,0.14746094,-1.0484009,0.18060303
1601136855310,2230,0.2434082,-0.97247314,0.19818115
1601136855310,2231,0.14746094,-1.0484009,0.18060303
1601136855310,2232,0.11425781,-0.9570923,0.105407715
1601136855310,2233,0.080322266,-0.91485596,0.08392334
1601136855310,2234,0.122802734,-0.9380493,0.11248779
1601136855310,2235,0.13647461,-1.0188599,0.12908936
1601136855310,2236,0.2434082,-0.97247314,0.19818115
1601136855311,2237,0.13647461,-1.0188599,0.12908936
1601136855315,2238,0.2434082,-0.97247314,0.19818115
1601136855315,2239,0.2434082,-0.97247314,0.19818115
1601136855315,2240,0.16015625,-1.3538208,-0.11529541
1601136855316,2241,0.14746094,-1.0484009,0.18060303
1601136855316,2242,0.16015625,-1.3538208,-0.11529541
1601136855316,2243,0.14746094,-1.0484009,0.18060303
1601136855316,2244,0.22973633,-0.89801025,0.03338623
1601136855316,2245,0.22973633,-0.89801025,0.03338623
1601136855316,2246,0.2434082,-0.97247314,0.19818115
1601136855316,2247,0.122802734,-0.9380493,0.11248779
1601136855316,2248,0.16015625,-1.3538208,-0.11529541
1601136855328,2249,0.16015625,-1.3538208,-0.11529541
1601136855329,2250,0.122802734,-0.9380493,0.11248779
1601136855329,2251,0.2434082,-0.97247314,0.19818115
1601136855329,2252,0.2434082,-0.97247314,0.19818115
1601136855329,2253,0.16015625,-1.3538208,-0.11529541
1601136855329,2254,0.17797852,-0.90411377,-0.25421143
1601136855329,2255,0.14746094,-1.0484009,0.18060303
1601136855329,2256,0.22973633,-0.89801025,0.03338623
1601136855329,2257,0.11425781,-0.9570923,0.105407715
1601136855330,2258,0.22973633,-0.89801025,0.03338623
1601136855330,2259,0.22973633,-0.89801025,0.03338623
1601136855330,2260,0.14746094,-1.0484009,0.18060303
1601136855342,2261,0.17797852,-0.90411377,-0.25421143
1601136855343,2262,0.16015625,-1.3538208,-0.11529541
1601136855343,2263,0.2758789,-1.1109009,0.016296387
1601136855343,2264,0.2434082,-0.97247314,0.19818115
1601136855345,2265,0.17797852,-0.90411377,-0.25421143
1601136855345,2266,0.13647461,-1.0188599,0.12908936
1601136855345,2267,0.17797852,-0.90411377,-0.25421143
1601136855345,2268,0.17797852,-0.90411377,-0.25421143
1601136855347,2269,0.16015625,-1.3538208,-0.11529541
1601136855347,2270,0.2434082,-0.97247314,0.19818115
1601136855347,2271,0.2758789,-1.1109009,0.016296387
1601136855347,2272,0.2758789,-1.1109009,0.016296387
1601136855347,2273,0.22973633,-0.89801025,0.03338623
1601136855347,2274,0.2824707,-0.82354736,-0.13287354
1601136855347,2275,0.2758789,-1.1109009,0.016296387
1601136855347,2276,0.16015625,-1.3538208,-0.11529541
1601136855347,2277,0.122802734,-0.9380493,0.11248779
1601136855347,2278,0.2824707,-0.82354736,-0.13287354
1601136855347,2279,0.14746094,-1.0484009,0.18060303
1601136855347,2280,0.2758789,-1.1109009,0.016296387
1601136855356,2281,0.2824707,-0.82354736,-0.13287354
1601136855356,2282,0.17797852,-0.90411377,-0.25421143
1601136855356,2283,0.37646484,-0.97491455,0.018981934
1601136855357,2284,0.2824707,-0.82354736,-0.13287354
