# Sensor position: Wrist
# Sensor side: Left
# Activity type: Lying down right
# Activity code: 6
# Subject id: s1735229
timestamp,seq,accel_x,accel_y,accel_z
1601134040793,0,0.5876465,-0.0960083,0.71307373
1601134040802,1,0.5876465,-0.0960083,0.71307373
1601134040802,2,0.5876465,-0.0960083,0.71307373
1601134040803,3,0.5876465,-0.0960083,0.71307373
1601134040803,4,0.5876465,-0.0960083,0.71307373
1601134040803,5,0.5876465,-0.0960083,0.71307373
1601134040804,6,0.5876465,-0.0960083,0.71307373
1601134040804,7,0.5876465,-0.0960083,0.71307373
1601134040804,8,0.5595703,-0.14459229,0.6911011
1601134040804,9,0.5595703,-0.14459229,0.6911011
1601134040804,10,0.5876465,-0.0960083,0.71307373
1601134040808,11,0.5595703,-0.14459229,0.6911011
1601134040808,12,0.5595703,-0.14459229,0.6911011
1601134040808,13,0.5595703,-0.14459229,0.6911011
1601134040808,14,0.5595703,-0.14459229,0.6911011
1601134040809,15,0.5366211,-0.16485596,0.70111084
1601134040809,16,0.5366211,-0.16485596,0.70111084
1601134040809,17,0.5366211,-0.16485596,0.70111084
1601134040809,18,0.5876465,-0.0960083,0.71307373
1601134040809,19,0.5595703,-0.14459229,0.6911011
1601134040810,20,0.5366211,-0.16485596,0.70111084
1601134040815,21,0.5366211,-0.16485596,0.70111084
1601134040815,22,0.5366211,-0.16485596,0.70111084
1601134040815,23,0.5595703,-0.14459229,0.6911011
1601134040815,24,0.51904297,-0.18487549,0.72698975
1601134040815,25,0.51904297,-0.18487549,0.72698975
1601134040815,26,0.51904297,-0.18487549,0.72698975
1601134040815,27,0.5595703,-0.14459229,0.6911011
1601134040815,28,0.5595703,-0.14459229,0.6911011
1601134040815,29,0.5366211,-0.16485596,0.70111084
1601134040816,30,0.5366211,-0.16485596,0.70111084
1601134040828,31,0.5366211,-0.16485596,0.70111084
1601134040829,32,0.51904297,-0.18487549,0.72698975
1601134040829,33,0.50561523,-0.20074463,0.75335693
1601134040829,34,0.51904297,-0.18487549,0.72698975
1601134040829,35,0.50561523,-0.20074463,0.75335693
1601134040829,36,0.5187988,-0.20831299,0.7711792
1601134040830,37,0.51904297,-0.18487549,0.72698975
1601134040830,38,0.5187988,-0.20831299,0.7711792
1601134040830,39,0.5366211,-0.16485596,0.70111084
1601134040830,40,0.5283203,-0.22247314,0.7640991
1601134040830,41,0.51904297,-0.18487549,0.72698975
1601134040830,42,0.51904297,-0.18487549,0.72698975
1601134040830,43,0.50561523,-0.20074463,0.75335693
1601134040831,44,0.50561523,-0.20074463,0.75335693
1601134040831,45,0.50561523,-0.20074463,0.75335693
1601134040831,46,0.51904297,-0.18487549,0.72698975
1601134040831,47,0.51904297,-0.18487549,0.72698975
1601134040831,48,0.50561523,-0.20074463,0.75335693
1601134040831,49,0.50561523,-0.20074463,0.75335693
1601134040831,50,0.53808594,-0.24151611,0.7453003
1601134040831,51,0.50561523,-0.20074463,0.75335693
1601134040832,52,0.5283203,-0.22247314,0.7640991
1601134040832,53,0.5187988,-0.20831299,0.7711792
1601134040832,54,0.50561523,-0.20074463,0.75335693
1601134040832,55,0.53808594,-0.24151611,0.7453003
1601134040832,56,0.5187988,-0.20831299,0.7711792
1601134040833,57,0.50561523,-0.20074463,0.75335693
1601134040838,58,0.5187988,-0.20831299,0.7711792
1601134040838,59,0.54541016,-0.24737549,0.7472534
1601134040839,60,0.5187988,-0.20831299,0.7711792
1601134040839,61,0.5187988,-0.20831299,0.7711792
1601134040839,62,0.5283203,-0.22247314,0.7640991
1601134040839,63,0.5187988,-0.20831299,0.7711792
1601134040839,64,0.54541016,-0.24737549,0.7472534
1601134040839,65,0.5402832,-0.2732544,0.7387085
1601134040839,66,0.53808594,-0.24151611,0.7453003
1601134040840,67,0.5283203,-0.22247314,0.7640991
1601134040840,68,0.5283203,-0.22247314,0.7640991
1601134040842,69,0.5283203,-0.22247314,0.7640991
1601134040849,70,0.5283203,-0.22247314,0.7640991
1601134040849,71,0.5083008,-0.255188,0.76605225
1601134040850,72,0.53808594,-0.24151611,0.7453003
1601134040850,73,0.5187988,-0.20831299,0.7711792
1601134040857,74,0.53808594,-0.24151611,0.7453003
1601134040858,75,0.5187988,-0.20831299,0.7711792
1601134040858,76,0.53808594,-0.24151611,0.7453003
1601134040858,77,0.5402832,-0.2732544,0.7387085
1601134040858,78,0.53808594,-0.24151611,0.7453003
1601134040858,79,0.5283203,-0.22247314,0.7640991
1601134040858,80,0.5283203,-0.22247314,0.7640991
1601134040858,81,0.5083008,-0.255188,0.76605225
1601134040859,82,0.53808594,-0.24151611,0.7453003
1601134040859,83,0.31762695,-0.2498169,0.8143921
1601134040859,84,0.5283203,-0.22247314,0.7640991
1601134040859,85,0.54541016,-0.24737549,0.7472534
1601134040859,86,0.53808594,-0.24151611,0.7453003
1601134040859,87,0.31762695,-0.2498169,0.8143921
1601134040859,88,0.54541016,-0.24737549,0.7472534
1601134040859,89,0.54541016,-0.24737549,0.7472534
1601134040860,90,0.17578125,-0.32769775,0.91448975
1601134040860,91,0.5402832,-0.2732544,0.7387085
1601134040860,92,0.17578125,-0.32769775,0.91448975
1601134040860,93,0.5402832,-0.2732544,0.7387085
1601134040860,94,0.057861328,-0.3394165,0.871521
1601134040860,95,0.54541016,-0.24737549,0.7472534
1601134040860,96,0.54541016,-0.24737549,0.7472534
1601134040860,97,0.54541016,-0.24737549,0.7472534
1601134040860,98,0.5402832,-0.2732544,0.7387085
1601134040860,99,0.5083008,-0.255188,0.76605225
1601134040865,100,0.5083008,-0.255188,0.76605225
1601134040865,101,0.057861328,-0.3394165,0.871521
1601134040865,102,0.53808594,-0.24151611,0.7453003
1601134040865,103,0.050048828,-0.31451416,0.857605
1601134040865,104,0.5402832,-0.2732544,0.7387085
1601134040866,105,0.5083008,-0.255188,0.76605225
1601134040866,106,0.050048828,-0.31451416,0.857605
1601134040866,107,0.5402832,-0.2732544,0.7387085
1601134040866,108,0.54541016,-0.24737549,0.7472534
1601134040866,109,0.31762695,-0.2498169,0.8143921
1601134040866,110,0.31762695,-0.2498169,0.8143921
1601134040866,111,0.31762695,-0.2498169,0.8143921
1601134040866,112,0.010253906,-0.31671143,0.89593506
1601134040866,113,0.5402832,-0.2732544,0.7387085
1601134040866,114,0.17578125,-0.32769775,0.91448975
1601134040866,115,0.5083008,-0.255188,0.76605225
1601134040867,116,0.5083008,-0.255188,0.76605225
1601134040868,117,0.17578125,-0.32769775,0.91448975
1601134040868,118,0.5402832,-0.2732544,0.7387085
1601134040873,119,0.010253906,-0.31671143,0.89593506
1601134040873,120,-0.025390625,-0.3538208,0.91864014
1601134040873,121,0.057861328,-0.3394165,0.871521
1601134040874,122,0.5083008,-0.255188,0.76605225
1601134040874,123,0.31762695,-0.2498169,0.8143921
1601134040874,124,0.31762695,-0.2498169,0.8143921
1601134040874,125,0.17578125,-0.32769775,0.91448975
1601134040874,126,0.54541016,-0.24737549,0.7472534
1601134040874,127,0.050048828,-0.31451416,0.857605
1601134040875,128,0.057861328,-0.3394165,0.871521
1601134040875,129,0.021240234,-0.3892212,0.92230225
1601134040880,130,0.050048828,-0.31451416,0.857605
1601134040880,131,0.17578125,-0.32769775,0.91448975
1601134040880,132,0.057861328,-0.3394165,0.871521
1601134040881,133,0.17578125,-0.32769775,0.91448975
1601134040881,134,0.5083008,-0.255188,0.76605225
1601134040881,135,0.5402832,-0.2732544,0.7387085
1601134040881,136,0.010253906,-0.31671143,0.89593506
1601134040881,137,0.5083008,-0.255188,0.76605225
1601134040882,138,-0.025390625,-0.3538208,0.91864014
1601134040882,139,0.07788086,-0.41607666,0.91815186
1601134040882,140,0.010253906,-0.31671143,0.89593506
1601134040882,141,0.057861328,-0.3394165,0.871521
1601134040887,142,0.31762695,-0.2498169,0.8143921
1601134040887,143,0.021240234,-0.3892212,0.92230225
1601134040888,144,0.31762695,-0.2498169,0.8143921
1601134040888,145,0.31762695,-0.2498169,0.8143921
1601134040888,146,0.17578125,-0.32769775,0.91448975
1601134040888,147,-0.025390625,-0.3538208,0.91864014
1601134040888,148,0.050048828,-0.31451416,0.857605
1601134040888,149,0.12133789,-0.394104,0.89764404
1601134040888,150,0.050048828,-0.31451416,0.857605
1601134040888,151,0.010253906,-0.31671143,0.89593506
1601134040890,152,0.057861328,-0.3394165,0.871521
1601134040893,153,0.17578125,-0.32769775,0.91448975
1601134040907,154,0.17578125,-0.32769775,0.91448975
1601134040908,155,0.057861328,-0.3394165,0.871521
1601134040908,156,-0.025390625,-0.3538208,0.91864014
1601134040908,157,0.050048828,-0.31451416,0.857605
1601134040908,158,0.010253906,-0.31671143,0.89593506
1601134040908,159,0.12939453,-0.37506104,0.8847046
1601134040908,160,0.07788086,-0.41607666,0.91815186
1601134040908,161,0.050048828,-0.31451416,0.857605
1601134040909,162,0.057861328,-0.3394165,0.871521
1601134040909,163,0.13378906,-0.3706665,0.8414917
1601134040909,164,0.021240234,-0.3892212,0.92230225
1601134040909,165,0.057861328,-0.3394165,0.871521
1601134040909,166,0.16674805,-0.39361572,0.8619995
1601134040909,167,0.010253906,-0.31671143,0.89593506
1601134040910,168,0.050048828,-0.31451416,0.857605
1601134040910,169,-0.025390625,-0.3538208,0.91864014
1601134040910,170,-0.025390625,-0.3538208,0.91864014
1601134040910,171,0.12133789,-0.394104,0.89764404
1601134040910,172,0.16503906,-0.37945557,0.85272217
1601134040910,173,0.021240234,-0.3892212,0.92230225
1601134040910,174,0.010253906,-0.31671143,0.89593506
1601134040910,175,0.07788086,-0.41607666,0.91815186
1601134040910,176,0.021240234,-0.3892212,0.92230225
1601134040910,177,-0.025390625,-0.3538208,0.91864014
1601134040910,178,0.12133789,-0.394104,0.89764404
1601134040911,179,0.050048828,-0.31451416,0.857605
1601134040911,180,-0.025390625,-0.3538208,0.91864014
1601134040911,181,0.12939453,-0.37506104,0.8847046
1601134040911,182,0.021240234,-0.3892212,0.92230225
1601134040912,183,0.12939453,-0.37506104,0.8847046
1601134040912,184,0.07788086,-0.41607666,0.91815186
1601134040912,185,0.13378906,-0.3706665,0.8414917
1601134040912,186,0.021240234,-0.3892212,0.92230225
1601134040912,187,0.06762695,-0.394104,0.84710693
1601134040912,188,0.010253906,-0.31671143,0.89593506
1601134040912,189,0.07788086,-0.41607666,0.91815186
1601134040912,190,0.010253906,-0.31671143,0.89593506
1601134040912,191,0.021240234,-0.3892212,0.92230225
1601134040912,192,0.13378906,-0.3706665,0.8414917
1601134040923,193,0.12133789,-0.394104,0.89764404
1601134040925,194,0.064697266,-0.42730713,0.854187
1601134040925,195,0.07788086,-0.41607666,0.91815186
1601134040925,196,-0.025390625,-0.3538208,0.91864014
1601134040926,197,0.10180664,-0.47442627,0.8685913
1601134040927,198,-0.025390625,-0.3538208,0.91864014
1601134040927,199,0.07788086,-0.41607666,0.91815186
1601134040927,200,0.12133789,-0.394104,0.89764404
1601134040927,201,0.021240234,-0.3892212,0.92230225
1601134040927,202,0.16674805,-0.39361572,0.8619995
1601134040927,203,0.12939453,-0.37506104,0.8847046
1601134040927,204,0.12133789,-0.394104,0.89764404
1601134040927,205,0.12133789,-0.394104,0.89764404
1601134040928,206,0.13378906,-0.3706665,0.8414917
1601134040928,207,0.16674805,-0.39361572,0.8619995
1601134040928,208,0.16674805,-0.39361572,0.8619995
1601134040928,209,0.12939453,-0.37506104,0.8847046
1601134040928,210,0.12939453,-0.37506104,0.8847046
1601134040928,211,0.16503906,-0.37945557,0.85272217
1601134040928,212,0.07788086,-0.41607666,0.91815186
1601134040929,213,0.14135742,-0.47418213,0.8534546
1601134040929,214,0.06762695,-0.394104,0.84710693
1601134040929,215,0.13378906,-0.3706665,0.8414917
1601134040929,216,0.16503906,-0.37945557,0.85272217
1601134040929,217,0.12939453,-0.37506104,0.8847046
1601134040929,218,0.16674805,-0.39361572,0.8619995
1601134040929,219,0.064697266,-0.42730713,0.854187
1601134040929,220,0.021240234,-0.3892212,0.92230225
1601134040929,221,0.07788086,-0.41607666,0.91815186
1601134040929,222,0.15649414,-0.42340088,0.84490967
1601134040929,223,0.16503906,-0.37945557,0.85272217
1601134040931,224,0.13378906,-0.3706665,0.8414917
1601134040932,225,0.10180664,-0.47442627,0.8685913
1601134040932,226,0.13378906,-0.3706665,0.8414917
1601134040933,227,0.12133789,-0.394104,0.89764404
1601134040933,228,0.06762695,-0.394104,0.84710693
1601134040933,229,0.12133789,-0.394104,0.89764404
1601134040933,230,0.07788086,-0.41607666,0.91815186
1601134040935,231,0.16674805,-0.39361572,0.8619995
1601134040936,232,0.064697266,-0.42730713,0.854187
1601134040937,233,0.16674805,-0.39361572,0.8619995
1601134040937,234,0.14135742,-0.47418213,0.8534546
1601134040937,235,0.06762695,-0.394104,0.84710693
1601134040937,236,0.12963867,-0.38458252,0.8461304
1601134040937,237,0.12939453,-0.37506104,0.8847046
1601134040937,238,0.12133789,-0.394104,0.89764404
1601134040937,239,0.10424805,-0.4192505,0.83880615
1601134040937,240,0.16503906,-0.37945557,0.85272217
1601134040937,241,0.12939453,-0.37506104,0.8847046
1601134040950,242,0.10180664,-0.47442627,0.8685913
1601134040950,243,0.15649414,-0.42340088,0.84490967
1601134040950,244,0.16503906,-0.37945557,0.85272217
1601134040951,245,0.12963867,-0.38458252,0.8461304
1601134040951,246,0.16503906,-0.37945557,0.85272217
1601134040951,247,0.064697266,-0.42730713,0.854187
1601134040951,248,0.12939453,-0.37506104,0.8847046
1601134040951,249,0.06762695,-0.394104,0.84710693
1601134040951,250,0.12939453,-0.40997314,0.86346436
1601134040951,251,0.13378906,-0.3706665,0.8414917
1601134040951,252,0.10180664,-0.47442627,0.8685913
1601134040951,253,0.064697266,-0.42730713,0.854187
1601134040952,254,0.10424805,-0.4192505,0.83880615
1601134040952,255,0.06762695,-0.394104,0.84710693
1601134040952,256,0.06762695,-0.394104,0.84710693
1601134040952,257,0.13378906,-0.3706665,0.8414917
1601134040952,258,0.13378906,-0.3706665,0.8414917
1601134040952,259,0.16674805,-0.39361572,0.8619995
1601134040952,260,0.12939453,-0.40997314,0.86346436
1601134040952,261,0.064697266,-0.42730713,0.854187
1601134040952,262,0.10180664,-0.47442627,0.8685913
1601134040952,263,0.14135742,-0.47418213,0.8534546
1601134040954,264,0.14135742,-0.47418213,0.8534546
1601134040962,265,0.16503906,-0.37945557,0.85272217
1601134040962,266,0.16674805,-0.39361572,0.8619995
1601134040962,267,0.064697266,-0.42730713,0.854187
1601134040962,268,0.10180664,-0.47442627,0.8685913
1601134040962,269,0.15649414,-0.42340088,0.84490967
1601134040962,270,0.14135742,-0.47418213,0.8534546
1601134040962,271,0.16674805,-0.39361572,0.8619995
1601134040962,272,0.15649414,-0.42340088,0.84490967
1601134040962,273,0.06762695,-0.394104,0.84710693
1601134040962,274,0.16503906,-0.37945557,0.85272217
1601134040962,275,0.10180664,-0.47442627,0.8685913
1601134040963,276,0.064697266,-0.42730713,0.854187
1601134040963,277,0.12963867,-0.38458252,0.8461304
1601134040963,278,0.14135742,-0.47418213,0.8534546
1601134040963,279,0.15649414,-0.42340088,0.84490967
1601134040963,280,0.06762695,-0.394104,0.84710693
1601134040973,281,0.12963867,-0.38458252,0.8461304
1601134040973,282,0.14135742,-0.47418213,0.8534546
1601134040973,283,0.10180664,-0.47442627,0.8685913
1601134040973,284,0.15649414,-0.42340088,0.84490967
1601134040973,285,0.10424805,-0.4192505,0.83880615
1601134040973,286,0.12963867,-0.38458252,0.8461304
1601134040973,287,0.14135742,-0.47418213,0.8534546
1601134040973,288,0.16503906,-0.37945557,0.85272217
1601134040973,289,0.10424805,-0.4192505,0.83880615
1601134040974,290,0.06762695,-0.394104,0.84710693
1601134040974,291,0.15649414,-0.42340088,0.84490967
1601134040974,292,0.12963867,-0.38458252,0.8461304
1601134040974,293,0.12939453,-0.40997314,0.86346436
1601134040974,294,0.15649414,-0.42340088,0.84490967
1601134040975,295,0.10424805,-0.4192505,0.83880615
1601134040975,296,0.064697266,-0.42730713,0.854187
1601134040976,297,0.12963867,-0.38458252,0.8461304
1601134040982,298,0.064697266,-0.42730713,0.854187
1601134040982,299,0.12963867,-0.38458252,0.8461304
1601134040982,300,0.12939453,-0.40997314,0.86346436
1601134040982,301,0.10180664,-0.47442627,0.8685913
1601134040983,302,0.12939453,-0.40997314,0.86346436
1601134040983,303,0.10424805,-0.4192505,0.83880615
1601134040988,304,0.10180664,-0.47442627,0.8685913
1601134040989,305,0.10424805,-0.4192505,0.83880615
1601134040989,306,0.10424805,-0.4192505,0.83880615
1601134040989,307,0.12939453,-0.40997314,0.86346436
1601134040989,308,0.12939453,-0.40997314,0.86346436
1601134040989,309,0.14135742,-0.47418213,0.8534546
1601134040990,310,0.12939453,-0.40997314,0.86346436
1601134040990,311,0.14135742,-0.47418213,0.8534546
1601134040990,312,0.15649414,-0.42340088,0.84490967
1601134040991,313,0.15649414,-0.42340088,0.84490967
1601134040999,314,0.12963867,-0.38458252,0.8461304
1601134040999,315,0.12963867,-0.38458252,0.8461304
1601134040999,316,0.10424805,-0.4192505,0.83880615
1601134040999,317,0.10424805,-0.4192505,0.83880615
1601134040999,318,0.12939453,-0.40997314,0.86346436
1601134041005,319,0.12939453,-0.40997314,0.86346436
1601134042747,320,0.12402344,-0.41070557,0.8600464
1601134042760,321,0.12402344,-0.41070557,0.8600464
1601134042762,322,0.12402344,-0.41070557,0.8600464
1601134042762,323,0.12011719,-0.3994751,0.8595581
1601134042762,324,0.12402344,-0.41070557,0.8600464
1601134042762,325,0.12402344,-0.41070557,0.8600464
1601134042763,326,0.12011719,-0.3994751,0.8595581
1601134042763,327,0.12402344,-0.41070557,0.8600464
1601134042763,328,0.12402344,-0.41070557,0.8600464
1601134042763,329,0.122802734,-0.427063,0.8566284
1601134042763,330,0.12011719,-0.3994751,0.8595581
1601134042763,331,0.12402344,-0.41070557,0.8600464
1601134042777,332,0.12402344,-0.41070557,0.8600464
1601134042778,333,0.12011719,-0.3994751,0.8595581
1601134042778,334,0.12402344,-0.41070557,0.8600464
1601134042778,335,0.122802734,-0.427063,0.8566284
1601134042778,336,0.12011719,-0.3994751,0.8595581
1601134042778,337,0.12011719,-0.3994751,0.8595581
1601134042779,338,0.12011719,-0.3994751,0.8595581
1601134042779,339,0.122802734,-0.427063,0.8566284
1601134042779,340,0.12011719,-0.3994751,0.8595581
1601134042779,341,0.122802734,-0.427063,0.8566284
1601134042779,342,0.122802734,-0.427063,0.8566284
1601134042779,343,0.18188477,-0.40411377,0.86346436
1601134042779,344,0.18188477,-0.40411377,0.86346436
1601134042779,345,0.12011719,-0.3994751,0.8595581
1601134042779,346,0.122802734,-0.427063,0.8566284
1601134042779,347,0.18188477,-0.40411377,0.86346436
1601134042779,348,0.122802734,-0.427063,0.8566284
1601134042780,349,0.122802734,-0.427063,0.8566284
1601134042780,350,0.18188477,-0.40411377,0.86346436
1601134042780,351,0.12011719,-0.3994751,0.8595581
1601134042780,352,0.22314453,-0.3809204,0.8925171
1601134042780,353,0.22314453,-0.3809204,0.8925171
1601134042780,354,0.22314453,-0.3809204,0.8925171
1601134042786,355,0.22314453,-0.3809204,0.8925171
1601134042787,356,0.18188477,-0.40411377,0.86346436
1601134042787,357,0.17529297,-0.38287354,0.8200073
1601134042787,358,0.122802734,-0.427063,0.8566284
1601134042787,359,0.17529297,-0.38287354,0.8200073
1601134042787,360,0.18188477,-0.40411377,0.86346436
1601134042787,361,0.18188477,-0.40411377,0.86346436
1601134042788,362,0.17529297,-0.38287354,0.8200073
1601134042788,363,0.22314453,-0.3809204,0.8925171
1601134042788,364,0.18188477,-0.40411377,0.86346436
1601134042806,365,0.122802734,-0.427063,0.8566284
1601134042806,366,0.17553711,-0.37823486,0.8095093
1601134042806,367,0.22314453,-0.3809204,0.8925171
1601134042806,368,0.18188477,-0.40411377,0.86346436
1601134042806,369,0.16333008,-0.3904419,0.85736084
1601134042806,370,0.17529297,-0.38287354,0.8200073
1601134042806,371,0.22314453,-0.3809204,0.8925171
1601134042806,372,0.17529297,-0.38287354,0.8200073
1601134042806,373,0.17553711,-0.37823486,0.8095093
1601134042806,374,0.22314453,-0.3809204,0.8925171
1601134042807,375,0.17553711,-0.37823486,0.8095093
1601134042807,376,0.18188477,-0.40411377,0.86346436
1601134042807,377,0.17529297,-0.38287354,0.8200073
1601134042807,378,0.17529297,-0.38287354,0.8200073
1601134042807,379,0.22314453,-0.3809204,0.8925171
1601134042807,380,0.15332031,-0.40655518,0.8876343
1601134042807,381,0.17553711,-0.37823486,0.8095093
1601134042807,382,0.17529297,-0.38287354,0.8200073
1601134042807,383,0.16333008,-0.3904419,0.85736084
1601134042807,384,0.16333008,-0.3904419,0.85736084
1601134042807,385,0.17553711,-0.37823486,0.8095093
1601134042807,386,0.22314453,-0.3809204,0.8925171
1601134042807,387,0.16333008,-0.3904419,0.85736084
1601134042807,388,0.17529297,-0.38287354,0.8200073
1601134042808,389,0.17529297,-0.38287354,0.8200073
1601134042808,390,0.16333008,-0.3904419,0.85736084
1601134042808,391,0.16699219,-0.39068604,0.8812866
1601134042808,392,0.17553711,-0.37823486,0.8095093
1601134042809,393,0.17553711,-0.37823486,0.8095093
1601134042809,394,0.15332031,-0.40655518,0.8876343
1601134042809,395,0.17553711,-0.37823486,0.8095093
1601134042810,396,0.15332031,-0.40655518,0.8876343
1601134042810,397,0.17553711,-0.37823486,0.8095093
1601134042810,398,0.16333008,-0.3904419,0.85736084
1601134042811,399,0.15332031,-0.40655518,0.8876343
1601134042811,400,0.16699219,-0.39068604,0.8812866
1601134042811,401,0.18603516,-0.3665161,0.85614014
1601134042811,402,0.16333008,-0.3904419,0.85736084
1601134042811,403,0.16699219,-0.39068604,0.8812866
1601134042811,404,0.17553711,-0.37823486,0.8095093
1601134042811,405,0.15332031,-0.40655518,0.8876343
1601134042811,406,0.18603516,-0.3665161,0.85614014
1601134042811,407,0.16333008,-0.3904419,0.85736084
1601134042811,408,0.16333008,-0.3904419,0.85736084
1601134042813,409,0.15332031,-0.40655518,0.8876343
1601134042820,410,0.16699219,-0.39068604,0.8812866
1601134042820,411,0.16699219,-0.39068604,0.8812866
1601134042820,412,0.16699219,-0.39068604,0.8812866
1601134042820,413,0.15332031,-0.40655518,0.8876343
1601134042821,414,0.15332031,-0.40655518,0.8876343
1601134042821,415,0.18603516,-0.3665161,0.85614014
1601134042822,416,0.1977539,-0.37945557,0.8300171
1601134042822,417,0.18603516,-0.3665161,0.85614014
1601134042822,418,0.16699219,-0.39068604,0.8812866
1601134042822,419,0.18603516,-0.3665161,0.85614014
1601134042822,420,0.15332031,-0.40655518,0.8876343
1601134042822,421,0.16699219,-0.39068604,0.8812866
1601134042832,422,0.16699219,-0.39068604,0.8812866
1601134042832,423,0.18603516,-0.3665161,0.85614014
1601134042832,424,0.16333008,-0.3904419,0.85736084
1601134042832,425,0.16455078,-0.37628174,0.8407593
1601134042833,426,0.1977539,-0.37945557,0.8300171
1601134042833,427,0.1977539,-0.37945557,0.8300171
1601134042833,428,0.1977539,-0.37945557,0.8300171
1601134042833,429,0.19970703,-0.39190674,0.86102295
1601134042834,430,0.16455078,-0.37628174,0.8407593
1601134042834,431,0.1977539,-0.37945557,0.8300171
1601134042834,432,0.2487793,-0.38775635,0.85321045
1601134042834,433,0.19970703,-0.39190674,0.86102295
1601134042834,434,0.25219727,-0.38848877,0.8082886
1601134042834,435,0.18603516,-0.3665161,0.85614014
1601134042834,436,0.23022461,-0.41583252,0.7435913
1601134042834,437,0.16455078,-0.37628174,0.8407593
1601134042834,438,0.18603516,-0.3665161,0.85614014
1601134042834,439,0.19970703,-0.39190674,0.86102295
1601134042834,440,0.1977539,-0.37945557,0.8300171
1601134042834,441,0.16455078,-0.37628174,0.8407593
1601134042835,442,0.15332031,-0.40655518,0.8876343
1601134042835,443,0.19970703,-0.39190674,0.86102295
1601134042835,444,0.16455078,-0.37628174,0.8407593
1601134042835,445,0.2487793,-0.38775635,0.85321045
1601134042835,446,0.22998047,-0.31451416,0.84954834
1601134042835,447,0.1977539,-0.37945557,0.8300171
1601134042835,448,0.2487793,-0.38775635,0.85321045
1601134042844,449,0.16455078,-0.37628174,0.8407593
1601134042844,450,0.1977539,-0.37945557,0.8300171
1601134042844,451,0.16455078,-0.37628174,0.8407593
1601134042844,452,0.16699219,-0.39068604,0.8812866
1601134042844,453,0.19970703,-0.39190674,0.86102295
1601134042844,454,0.16455078,-0.37628174,0.8407593
1601134042844,455,0.19970703,-0.39190674,0.86102295
1601134042844,456,0.2487793,-0.38775635,0.85321045
1601134042845,457,0.19970703,-0.39190674,0.86102295
1601134042845,458,0.2487793,-0.38775635,0.85321045
1601134042845,459,0.25219727,-0.38848877,0.8082886
1601134042845,460,0.25219727,-0.38848877,0.8082886
1601134042845,461,0.23022461,-0.41583252,0.7435913
1601134042845,462,0.2487793,-0.38775635,0.85321045
1601134042845,463,0.19970703,-0.39190674,0.86102295
1601134042845,464,0.18603516,-0.3665161,0.85614014
1601134042845,465,0.18603516,-0.3665161,0.85614014
1601134042845,466,0.25219727,-0.38848877,0.8082886
1601134042845,467,0.25219727,-0.38848877,0.8082886
1601134042845,468,0.067871094,-0.33892822,0.8588257
1601134042846,469,0.22998047,-0.31451416,0.84954834
1601134042847,470,0.25219727,-0.38848877,0.8082886
1601134042852,471,0.2487793,-0.38775635,0.85321045
1601134042852,472,0.1977539,-0.37945557,0.8300171
1601134042852,473,0.23022461,-0.41583252,0.7435913
1601134042852,474,0.23022461,-0.41583252,0.7435913
1601134042852,475,0.23022461,-0.41583252,0.7435913
1601134042852,476,-0.15161133,-0.2288208,0.9706421
1601134042852,477,0.2487793,-0.38775635,0.85321045
1601134042852,478,0.1977539,-0.37945557,0.8300171
1601134042852,479,0.067871094,-0.33892822,0.8588257
1601134042853,480,0.23022461,-0.41583252,0.7435913
1601134042853,481,0.16455078,-0.37628174,0.8407593
1601134042860,482,0.25219727,-0.38848877,0.8082886
1601134042860,483,0.22998047,-0.31451416,0.84954834
1601134042860,484,0.22998047,-0.31451416,0.84954834
1601134042861,485,0.22998047,-0.31451416,0.84954834
1601134042861,486,0.25219727,-0.38848877,0.8082886
1601134042861,487,-0.15112305,-0.31085205,1.064148
1601134042861,488,0.067871094,-0.33892822,0.8588257
1601134042861,489,0.16455078,-0.37628174,0.8407593
1601134042862,490,0.22998047,-0.31451416,0.84954834
1601134042862,491,0.19970703,-0.39190674,0.86102295
1601134042862,492,0.067871094,-0.33892822,0.8588257
1601134042862,493,0.23022461,-0.41583252,0.7435913
1601134042862,494,0.23022461,-0.41583252,0.7435913
1601134042862,495,0.067871094,-0.33892822,0.8588257
1601134042862,496,-0.15161133,-0.2288208,0.9706421
1601134042862,497,0.22998047,-0.31451416,0.84954834
1601134042863,498,-0.15112305,-0.31085205,1.064148
1601134042885,499,0.19970703,-0.39190674,0.86102295
1601134042886,500,0.2487793,-0.38775635,0.85321045
1601134042886,501,-0.15161133,-0.2288208,0.9706421
1601134042886,502,0.22998047,-0.31451416,0.84954834
1601134042886,503,0.067871094,-0.33892822,0.8588257
1601134042886,504,-0.15161133,-0.2288208,0.9706421
1601134042888,505,-0.07519531,-0.2649536,1.0614624
1601134042888,506,-0.15161133,-0.2288208,0.9706421
1601134042888,507,-0.07519531,-0.2649536,1.0614624
1601134042888,508,0.067871094,-0.33892822,0.8588257
1601134042888,509,-0.15112305,-0.31085205,1.064148
1601134042888,510,-0.15161133,-0.2288208,0.9706421
1601134042888,511,0.25219727,-0.38848877,0.8082886
1601134042888,512,0.2487793,-0.38775635,0.85321045
1601134042888,513,0.23022461,-0.41583252,0.7435913
1601134042888,514,0.067871094,-0.33892822,0.8588257
1601134042888,515,0.22998047,-0.31451416,0.84954834
1601134042888,516,-0.041503906,-0.06695557,0.96673584
1601134042889,517,-0.041503906,-0.06695557,0.96673584
1601134042889,518,0.067871094,-0.33892822,0.8588257
1601134042889,519,-0.15112305,-0.31085205,1.064148
1601134042889,520,-0.15161133,-0.2288208,0.9706421
1601134042889,521,0.038085938,0.120788574,0.9015503
1601134042889,522,-0.15112305,-0.31085205,1.064148
1601134042889,523,0.038085938,0.120788574,0.9015503
1601134042889,524,-0.07519531,-0.2649536,1.0614624
1601134042889,525,-0.15112305,-0.31085205,1.064148
1601134042889,526,0.0925293,0.31829834,0.78582764
1601134042889,527,-0.15161133,-0.2288208,0.9706421
1601134042889,528,-0.07519531,-0.2649536,1.0614624
1601134042889,529,0.0925293,0.31829834,0.78582764
1601134042889,530,-0.15112305,-0.31085205,1.064148
1601134042889,531,0.19067383,0.46429443,0.7994995
1601134042889,532,-0.041503906,-0.06695557,0.96673584
1601134042890,533,-0.07519531,-0.2649536,1.0614624
1601134042890,534,0.19067383,0.46429443,0.7994995
1601134042890,535,0.038085938,0.120788574,0.9015503
1601134042890,536,-0.07519531,-0.2649536,1.0614624
1601134042890,537,0.29907227,0.48236084,0.67230225
1601134042890,538,-0.041503906,-0.06695557,0.96673584
1601134042890,539,-0.041503906,-0.06695557,0.96673584
1601134042890,540,-0.15112305,-0.31085205,1.064148
1601134042890,541,0.038085938,0.120788574,0.9015503
1601134042890,542,-0.07519531,-0.2649536,1.0614624
1601134042890,543,0.29907227,0.48236084,0.67230225
1601134042890,544,-0.041503906,-0.06695557,0.96673584
1601134042890,545,0.22924805,0.44940186,0.69989014
1601134042905,546,-0.15161133,-0.2288208,0.9706421
1601134042905,547,0.25219727,-0.38848877,0.8082886
1601134042905,548,0.038085938,0.120788574,0.9015503
1601134042906,549,-0.15112305,-0.31085205,1.064148
1601134042906,550,-0.07519531,-0.2649536,1.0614624
1601134042906,551,-0.041503906,-0.06695557,0.96673584
1601134042906,552,0.16503906,0.58709717,0.79681396
1601134042906,553,0.038085938,0.120788574,0.9015503
1601134042906,554,0.0925293,0.31829834,0.78582764
1601134042907,555,0.1315918,0.48895264,0.82025146
1601134042907,556,0.038085938,0.120788574,0.9015503
1601134042907,557,0.22924805,0.44940186,0.69989014
1601134042907,558,0.19067383,0.46429443,0.7994995
1601134042907,559,0.23022461,-0.41583252,0.7435913
1601134042907,560,0.18823242,0.46844482,0.80926514
1601134042907,561,0.0925293,0.31829834,0.78582764
1601134042907,562,0.22998047,-0.31451416,0.84954834
1601134042907,563,0.29907227,0.48236084,0.67230225
1601134042907,564,0.0925293,0.31829834,0.78582764
1601134042907,565,0.18041992,0.43328857,0.78948975
1601134042907,566,0.16503906,0.58709717,0.79681396
1601134042916,567,0.19067383,0.46429443,0.7994995
1601134042916,568,0.1315918,0.48895264,0.82025146
1601134042917,569,-0.041503906,-0.06695557,0.96673584
1601134042917,570,0.067871094,-0.33892822,0.8588257
1601134042917,571,0.22924805,0.44940186,0.69989014
1601134042917,572,0.19067383,0.46429443,0.7994995
1601134042917,573,0.038085938,0.120788574,0.9015503
1601134042917,574,0.0925293,0.31829834,0.78582764
1601134042917,575,0.0925293,0.31829834,0.78582764
1601134042917,576,0.29907227,0.48236084,0.67230225
1601134042917,577,0.18823242,0.46844482,0.80926514
1601134042917,578,0.19067383,0.46429443,0.7994995
1601134042917,579,0.29907227,0.48236084,0.67230225
1601134042917,580,-0.07519531,-0.2649536,1.0614624
1601134042917,581,0.16503906,0.58709717,0.79681396
1601134042918,582,0.0925293,0.31829834,0.78582764
1601134042918,583,0.1315918,0.48895264,0.82025146
1601134042922,584,-0.15161133,-0.2288208,0.9706421
1601134042922,585,0.18041992,0.43328857,0.78948975
1601134042922,586,0.29907227,0.48236084,0.67230225
1601134042922,587,0.22924805,0.44940186,0.69989014
1601134042922,588,-0.041503906,-0.06695557,0.96673584
1601134042922,589,0.19067383,0.46429443,0.7994995
1601134042922,590,0.22924805,0.44940186,0.69989014
1601134042922,591,0.16503906,0.58709717,0.79681396
1601134042922,592,0.19067383,0.46429443,0.7994995
1601134042922,593,0.1315918,0.48895264,0.82025146
1601134042922,594,-0.15112305,-0.31085205,1.064148
1601134042923,595,0.29907227,0.48236084,0.67230225
1601134042928,596,0.18823242,0.46844482,0.80926514
1601134042928,597,0.038085938,0.120788574,0.9015503
1601134042928,598,0.18041992,0.43328857,0.78948975
1601134042928,599,0.22924805,0.44940186,0.69989014
1601134042929,600,0.18823242,0.46844482,0.80926514
1601134042929,601,-0.07519531,-0.2649536,1.0614624
1601134042929,602,0.22924805,0.44940186,0.69989014
1601134042929,603,0.29907227,0.48236084,0.67230225
1601134042930,604,0.22924805,0.44940186,0.69989014
1601134042940,605,-0.041503906,-0.06695557,0.96673584
1601134042940,606,0.18041992,0.43328857,0.78948975
1601134042941,607,0.16503906,0.58709717,0.79681396
1601134042941,608,0.0925293,0.31829834,0.78582764
1601134042941,609,0.16503906,0.58709717,0.79681396
1601134042941,610,0.16503906,0.58709717,0.79681396
1601134042941,611,0.16503906,0.58709717,0.79681396
1601134042941,612,0.1315918,0.48895264,0.82025146
1601134042941,613,0.038085938,0.120788574,0.9015503
1601134042941,614,0.1315918,0.48895264,0.82025146
1601134042941,615,0.19067383,0.46429443,0.7994995
1601134042941,616,0.18823242,0.46844482,0.80926514
1601134042941,617,0.29907227,0.48236084,0.67230225
1601134042941,618,0.1315918,0.48895264,0.82025146
1601134042941,619,0.22924805,0.44940186,0.69989014
1601134042942,620,0.0925293,0.31829834,0.78582764
1601134042942,621,0.16503906,0.58709717,0.79681396
1601134042942,622,0.19067383,0.46429443,0.7994995
1601134042942,623,0.18041992,0.43328857,0.78948975
1601134042942,624,0.29907227,0.48236084,0.67230225
1601134042942,625,0.18823242,0.46844482,0.80926514
1601134042951,626,0.18823242,0.46844482,0.80926514
1601134042951,627,0.22924805,0.44940186,0.69989014
1601134042951,628,0.1315918,0.48895264,0.82025146
1601134042951,629,0.18041992,0.43328857,0.78948975
1601134042951,630,0.1315918,0.48895264,0.82025146
1601134042951,631,0.18041992,0.43328857,0.78948975
1601134042951,632,0.16503906,0.58709717,0.79681396
1601134042951,633,0.18823242,0.46844482,0.80926514
1601134042951,634,0.18823242,0.46844482,0.80926514
1601134042951,635,0.18041992,0.43328857,0.78948975
1601134042953,636,0.1315918,0.48895264,0.82025146
1601134042954,637,0.18041992,0.43328857,0.78948975
1601134042954,638,0.18823242,0.46844482,0.80926514
1601134042955,639,0.18041992,0.43328857,0.78948975
1601134045292,640,0.19360352,0.43621826,0.77948
1601134045294,641,0.19360352,0.43621826,0.77948
1601134045298,642,0.19360352,0.43621826,0.77948
1601134045298,643,0.19360352,0.43621826,0.77948
1601134045298,644,0.19360352,0.43621826,0.77948
1601134045299,645,0.19360352,0.43621826,0.77948
1601134045299,646,0.19360352,0.43621826,0.77948
1601134045299,647,0.18920898,0.52264404,0.7560425
1601134045299,648,0.18920898,0.52264404,0.7560425
1601134045299,649,0.19360352,0.43621826,0.77948
1601134045301,650,0.19360352,0.43621826,0.77948
1601134045308,651,0.16992188,0.44085693,0.8278198
1601134045308,652,0.18920898,0.52264404,0.7560425
1601134045308,653,0.18920898,0.52264404,0.7560425
1601134045309,654,0.18920898,0.52264404,0.7560425
1601134045309,655,0.18920898,0.52264404,0.7560425
1601134045309,656,0.18920898,0.52264404,0.7560425
1601134045310,657,0.16992188,0.44085693,0.8278198
1601134045310,658,0.18920898,0.52264404,0.7560425
1601134045310,659,0.19360352,0.43621826,0.77948
1601134045314,660,0.25024414,0.37469482,0.80804443
1601134045314,661,0.18920898,0.52264404,0.7560425
1601134045315,662,0.16992188,0.44085693,0.8278198
1601134045315,663,0.16992188,0.44085693,0.8278198
1601134045315,664,0.16992188,0.44085693,0.8278198
1601134045315,665,0.16992188,0.44085693,0.8278198
1601134045315,666,0.16992188,0.44085693,0.8278198
1601134045315,667,0.25024414,0.37469482,0.80804443
1601134045316,668,0.25024414,0.37469482,0.80804443
1601134045316,669,0.25024414,0.37469482,0.80804443
1601134045330,670,0.29882812,0.45794678,0.75946045
1601134045331,671,0.16992188,0.44085693,0.8278198
1601134045331,672,0.25024414,0.37469482,0.80804443
1601134045331,673,0.25024414,0.37469482,0.80804443
1601134045331,674,0.18920898,0.52264404,0.7560425
1601134045331,675,0.25024414,0.37469482,0.80804443
1601134045331,676,0.29882812,0.45794678,0.75946045
1601134045332,677,0.16992188,0.44085693,0.8278198
1601134045332,678,0.29882812,0.45794678,0.75946045
1601134045332,679,0.29882812,0.45794678,0.75946045
1601134045332,680,0.32739258,0.48284912,0.70892334
1601134045332,681,0.25024414,0.37469482,0.80804443
1601134045332,682,0.32739258,0.48284912,0.70892334
1601134045332,683,0.29882812,0.45794678,0.75946045
1601134045332,684,0.16992188,0.44085693,0.8278198
1601134045332,685,0.29882812,0.45794678,0.75946045
1601134045332,686,0.29882812,0.45794678,0.75946045
1601134045332,687,0.29882812,0.45794678,0.75946045
1601134045332,688,0.32739258,0.48284912,0.70892334
1601134045333,689,0.25024414,0.37469482,0.80804443
1601134045333,690,0.34301758,0.4899292,0.6937866
1601134045333,691,0.34301758,0.4899292,0.6937866
1601134045333,692,0.32739258,0.48284912,0.70892334
1601134045333,693,0.25024414,0.37469482,0.80804443
1601134045333,694,0.28955078,0.50701904,0.7094116
1601134045333,695,0.32739258,0.48284912,0.70892334
1601134045340,696,0.32739258,0.48284912,0.70892334
1601134045340,697,0.29882812,0.45794678,0.75946045
1601134045340,698,0.34301758,0.4899292,0.6937866
1601134045341,699,0.32739258,0.48284912,0.70892334
1601134045341,700,0.29882812,0.45794678,0.75946045
1601134045342,701,0.34301758,0.4899292,0.6937866
1601134045342,702,0.34301758,0.4899292,0.6937866
1601134045342,703,0.32739258,0.48284912,0.70892334
1601134045342,704,0.32739258,0.48284912,0.70892334
1601134045342,705,0.34301758,0.4899292,0.6937866
1601134045342,706,0.34301758,0.4899292,0.6937866
1601134045342,707,0.28955078,0.50701904,0.7094116
1601134045342,708,0.2241211,0.48602295,0.7821655
1601134045357,709,0.28955078,0.50701904,0.7094116
1601134045357,710,0.28955078,0.50701904,0.7094116
1601134045357,711,0.28955078,0.50701904,0.7094116
1601134045357,712,0.34301758,0.4899292,0.6937866
1601134045358,713,0.32739258,0.48284912,0.70892334
1601134045359,714,0.28955078,0.50701904,0.7094116
1601134045359,715,0.2241211,0.48602295,0.7821655
1601134045359,716,0.28955078,0.50701904,0.7094116
1601134045359,717,0.34301758,0.4899292,0.6937866
1601134045359,718,0.30395508,0.43011475,0.76971436
1601134045359,719,0.30395508,0.43011475,0.76971436
1601134045359,720,0.2241211,0.48602295,0.7821655
1601134045359,721,0.28735352,0.5060425,0.7457886
1601134045359,722,0.2241211,0.48602295,0.7821655
1601134045359,723,0.16845703,0.47381592,0.7357788
1601134045360,724,0.28955078,0.50701904,0.7094116
1601134045360,725,0.34301758,0.4899292,0.6937866
1601134045360,726,0.2241211,0.48602295,0.7821655
1601134045360,727,0.28735352,0.5060425,0.7457886
1601134045360,728,0.2241211,0.48602295,0.7821655
1601134045362,729,0.30395508,0.43011475,0.76971436
1601134045362,730,0.28955078,0.50701904,0.7094116
1601134045362,731,0.30395508,0.43011475,0.76971436
1601134045362,732,0.2241211,0.48602295,0.7821655
1601134045362,733,0.28955078,0.50701904,0.7094116
1601134045362,734,0.30395508,0.43011475,0.76971436
1601134045362,735,0.30395508,0.43011475,0.76971436
1601134045362,736,-0.0036621094,0.50164795,0.7243042
1601134045362,737,0.28735352,0.5060425,0.7457886
1601134045363,738,0.2241211,0.48602295,0.7821655
1601134045363,739,0.30395508,0.43011475,0.76971436
1601134045363,740,0.28735352,0.5060425,0.7457886
1601134045363,741,0.16845703,0.47381592,0.7357788
1601134045363,742,0.2241211,0.48602295,0.7821655
1601134045363,743,0.17211914,0.44110107,0.8222046
1601134045363,744,0.28735352,0.5060425,0.7457886
1601134045363,745,0.30395508,0.43011475,0.76971436
1601134045363,746,0.16845703,0.47381592,0.7357788
1601134045373,747,0.30395508,0.43011475,0.76971436
1601134045373,748,0.2241211,0.48602295,0.7821655
1601134045373,749,0.28735352,0.5060425,0.7457886
1601134045373,750,-0.0036621094,0.50164795,0.7243042
1601134045373,751,0.41870117,0.49993896,0.887146
1601134045373,752,0.30395508,0.43011475,0.76971436
1601134045373,753,0.16845703,0.47381592,0.7357788
1601134045373,754,0.28735352,0.5060425,0.7457886
1601134045374,755,0.28735352,0.5060425,0.7457886
1601134045374,756,-0.0036621094,0.50164795,0.7243042
1601134045374,757,0.16845703,0.47381592,0.7357788
1601134045374,758,-0.0036621094,0.50164795,0.7243042
1601134045374,759,0.17211914,0.44110107,0.8222046
1601134045375,760,0.28735352,0.5060425,0.7457886
1601134045375,761,0.16845703,0.47381592,0.7357788
1601134045375,762,0.24243164,0.27947998,0.82366943
1601134045375,763,0.16845703,0.47381592,0.7357788
1601134045375,764,0.15161133,0.13201904,0.8432007
1601134045375,765,0.28735352,0.5060425,0.7457886
1601134045375,766,0.17211914,0.44110107,0.8222046
1601134045375,767,0.16845703,0.47381592,0.7357788
1601134045375,768,-0.0036621094,0.50164795,0.7243042
1601134045382,769,-0.0036621094,0.50164795,0.7243042
1601134045382,770,-0.0036621094,0.50164795,0.7243042
1601134045383,771,0.17211914,0.44110107,0.8222046
1601134045383,772,0.076416016,0.101989746,0.8764038
1601134045383,773,0.41870117,0.49993896,0.887146
1601134045383,774,0.17211914,0.44110107,0.8222046
1601134045383,775,0.16845703,0.47381592,0.7357788
1601134045383,776,0.41870117,0.49993896,0.887146
1601134045383,777,0.41870117,0.49993896,0.887146
1601134045383,778,0.41870117,0.49993896,0.887146
1601134045383,779,0.24243164,0.27947998,0.82366943
1601134045383,780,-0.0036621094,0.50164795,0.7243042
1601134045383,781,0.17211914,0.44110107,0.8222046
1601134045383,782,0.17211914,0.44110107,0.8222046
1601134045383,783,-0.0036621094,0.50164795,0.7243042
1601134045384,784,0.41870117,0.49993896,0.887146
1601134045392,785,0.17211914,0.44110107,0.8222046
1601134045393,786,0.16845703,0.47381592,0.7357788
1601134045393,787,0.24243164,0.27947998,0.82366943
1601134045393,788,0.15161133,0.13201904,0.8432007
1601134045393,789,0.41870117,0.49993896,0.887146
1601134045393,790,-0.031982422,-7.9345703E-4,0.8036499
1601134045393,791,0.41870117,0.49993896,0.887146
1601134045393,792,0.24243164,0.27947998,0.82366943
1601134045393,793,0.24243164,0.27947998,0.82366943
1601134045394,794,0.015380859,0.1564331,1.0621948
1601134045394,795,0.17211914,0.44110107,0.8222046
1601134045395,796,0.24243164,0.27947998,0.82366943
1601134045395,797,-0.0036621094,0.50164795,0.7243042
1601134045395,798,0.15161133,0.13201904,0.8432007
1601134045395,799,0.24243164,0.27947998,0.82366943
1601134045395,800,0.076416016,0.101989746,0.8764038
1601134045395,801,0.24243164,0.27947998,0.82366943
1601134045395,802,0.15161133,0.13201904,0.8432007
1601134045401,803,0.076416016,0.101989746,0.8764038
1601134045401,804,0.41870117,0.49993896,0.887146
1601134045402,805,0.15161133,0.13201904,0.8432007
1601134045402,806,0.17211914,0.44110107,0.8222046
1601134045402,807,0.076416016,0.101989746,0.8764038
1601134045402,808,0.15161133,0.13201904,0.8432007
1601134045402,809,0.076416016,0.101989746,0.8764038
1601134045402,810,0.15161133,0.13201904,0.8432007
1601134045403,811,0.15161133,0.13201904,0.8432007
1601134045403,812,-0.15698242,-0.09039307,1.0372925
1601134045403,813,-0.031982422,-7.9345703E-4,0.8036499
1601134045403,814,-0.031982422,-7.9345703E-4,0.8036499
1601134045410,815,0.41870117,0.49993896,0.887146
1601134045411,816,-0.031982422,-7.9345703E-4,0.8036499
1601134045412,817,-0.031982422,-7.9345703E-4,0.8036499
1601134045412,818,0.076416016,0.101989746,0.8764038
1601134045412,819,0.076416016,0.101989746,0.8764038
1601134045412,820,0.24243164,0.27947998,0.82366943
1601134045417,821,0.015380859,0.1564331,1.0621948
1601134045417,822,-0.11450195,-0.051818848,0.86761475
1601134045417,823,-0.15698242,-0.09039307,1.0372925
1601134045417,824,0.015380859,0.1564331,1.0621948
1601134045420,825,0.24243164,0.27947998,0.82366943
1601134045420,826,0.015380859,0.1564331,1.0621948
1601134045421,827,-0.031982422,-7.9345703E-4,0.8036499
1601134045421,828,0.015380859,0.1564331,1.0621948
1601134045421,829,0.076416016,0.101989746,0.8764038
1601134045421,830,-0.031982422,-7.9345703E-4,0.8036499
1601134045421,831,-0.016845703,-0.029846191,0.72576904
1601134045421,832,-0.15698242,-0.09039307,1.0372925
1601134045421,833,0.15161133,0.13201904,0.8432007
1601134045421,834,-0.15698242,-0.09039307,1.0372925
1601134045422,835,0.15161133,0.13201904,0.8432007
1601134045422,836,-0.23803711,0.40863037,0.9879761
1601134045422,837,-0.11450195,-0.051818848,0.86761475
1601134045422,838,-0.11450195,-0.051818848,0.86761475
1601134045422,839,-0.11450195,-0.051818848,0.86761475
1601134045422,840,0.015380859,0.1564331,1.0621948
1601134045423,841,0.015380859,0.1564331,1.0621948
1601134045423,842,-0.031982422,-7.9345703E-4,0.8036499
1601134045423,843,-0.15698242,-0.09039307,1.0372925
1601134045423,844,-0.016845703,-0.029846191,0.72576904
1601134045423,845,0.076416016,0.101989746,0.8764038
1601134045440,846,-0.49609375,0.23699951,1.1012573
1601134045441,847,-0.016845703,-0.029846191,0.72576904
1601134045441,848,-0.016845703,-0.029846191,0.72576904
1601134045441,849,-0.23803711,0.40863037,0.9879761
1601134045441,850,-0.15698242,-0.09039307,1.0372925
1601134045441,851,0.076416016,0.101989746,0.8764038
1601134045441,852,-0.15698242,-0.09039307,1.0372925
1601134045441,853,-0.031982422,-7.9345703E-4,0.8036499
1601134045441,854,-0.11450195,-0.051818848,0.86761475
1601134045441,855,-0.11450195,-0.051818848,0.86761475
1601134045441,856,-0.4555664,0.11566162,0.9540405
1601134045441,857,-0.23803711,0.40863037,0.9879761
1601134045441,858,0.015380859,0.1564331,1.0621948
1601134045441,859,-0.49609375,0.23699951,1.1012573
1601134045442,860,-0.49609375,0.23699951,1.1012573
1601134045442,861,-0.23803711,0.40863037,0.9879761
1601134045442,862,-0.031982422,-7.9345703E-4,0.8036499
1601134045442,863,-0.49609375,0.23699951,1.1012573
1601134045442,864,-0.4555664,0.11566162,0.9540405
1601134045442,865,-0.016845703,-0.029846191,0.72576904
1601134045442,866,-0.3005371,0.059265137,0.8607788
1601134045442,867,-0.016845703,-0.029846191,0.72576904
1601134045442,868,-0.15698242,-0.09039307,1.0372925
1601134045442,869,-0.26245117,0.08074951,0.89471436
1601134045442,870,-0.4555664,0.11566162,0.9540405
1601134045442,871,0.015380859,0.1564331,1.0621948
1601134045442,872,-0.4555664,0.11566162,0.9540405
1601134045442,873,0.015380859,0.1564331,1.0621948
1601134045443,874,-0.11450195,-0.051818848,0.86761475
1601134045450,875,-0.23803711,0.40863037,0.9879761
1601134045451,876,-0.016845703,-0.029846191,0.72576904
1601134045451,877,-0.28442383,0.2230835,0.9291382
1601134045451,878,-0.49609375,0.23699951,1.1012573
1601134045451,879,-0.3005371,0.059265137,0.8607788
1601134045451,880,-0.15698242,-0.09039307,1.0372925
1601134045451,881,-0.15698242,-0.09039307,1.0372925
1601134045451,882,-0.3005371,0.059265137,0.8607788
1601134045451,883,-0.11450195,-0.051818848,0.86761475
1601134045451,884,-0.3005371,0.059265137,0.8607788
1601134045468,885,-0.23803711,0.40863037,0.9879761
1601134045468,886,-0.25878906,0.13250732,0.9154663
1601134045469,887,-0.26245117,0.08074951,0.89471436
1601134045469,888,-0.26245117,0.08074951,0.89471436
1601134045469,889,-0.26245117,0.08074951,0.89471436
1601134045469,890,-0.4555664,0.11566162,0.9540405
1601134045469,891,-0.23803711,0.40863037,0.9879761
1601134045469,892,-0.28442383,0.2230835,0.9291382
1601134045469,893,-0.11450195,-0.051818848,0.86761475
1601134045469,894,-0.28442383,0.2230835,0.9291382
1601134045470,895,-0.49609375,0.23699951,1.1012573
1601134045470,896,-0.016845703,-0.029846191,0.72576904
1601134045470,897,-0.49609375,0.23699951,1.1012573
1601134045470,898,-0.4555664,0.11566162,0.9540405
1601134045470,899,-0.016845703,-0.029846191,0.72576904
1601134045470,900,-0.4555664,0.11566162,0.9540405
1601134045471,901,-0.11450195,-0.051818848,0.86761475
1601134045471,902,-0.25878906,0.13250732,0.9154663
1601134045471,903,-0.3005371,0.059265137,0.8607788
1601134045471,904,-0.27319336,0.11395264,0.9244995
1601134045471,905,-0.016845703,-0.029846191,0.72576904
1601134045471,906,-0.25878906,0.13250732,0.9154663
1601134045471,907,-0.23803711,0.40863037,0.9879761
1601134045472,908,-0.27319336,0.11395264,0.9244995
1601134045472,909,-0.23803711,0.40863037,0.9879761
1601134045472,910,-0.49609375,0.23699951,1.1012573
1601134045472,911,-0.3005371,0.059265137,0.8607788
1601134045472,912,-0.4555664,0.11566162,0.9540405
1601134045473,913,-0.26245117,0.08074951,0.89471436
1601134045473,914,-0.3005371,0.059265137,0.8607788
1601134045473,915,-0.23803711,0.40863037,0.9879761
1601134045473,916,-0.3005371,0.059265137,0.8607788
1601134045473,917,-0.27319336,0.11395264,0.9244995
1601134045473,918,-0.28442383,0.2230835,0.9291382
1601134045474,919,-0.28442383,0.2230835,0.9291382
1601134045474,920,-0.49609375,0.23699951,1.1012573
1601134045474,921,-0.26245117,0.08074951,0.89471436
1601134045474,922,-0.27270508,0.04852295,0.9196167
1601134045481,923,-0.27270508,0.04852295,0.9196167
1601134045482,924,-0.49609375,0.23699951,1.1012573
1601134045482,925,-0.27270508,0.04852295,0.9196167
1601134045482,926,-0.25878906,0.13250732,0.9154663
1601134045482,927,-0.4555664,0.11566162,0.9540405
1601134045482,928,-0.4555664,0.11566162,0.9540405
1601134045482,929,-0.27319336,0.11395264,0.9244995
1601134045482,930,-0.26245117,0.08074951,0.89471436
1601134045482,931,-0.25878906,0.13250732,0.9154663
1601134045483,932,-0.28442383,0.2230835,0.9291382
1601134045483,933,-0.27319336,0.11395264,0.9244995
1601134045483,934,-0.26245117,0.08074951,0.89471436
1601134045483,935,-0.27270508,0.04852295,0.9196167
1601134045483,936,-0.27270508,0.04852295,0.9196167
1601134045487,937,-0.28442383,0.2230835,0.9291382
1601134045487,938,-0.28442383,0.2230835,0.9291382
1601134045487,939,-0.3005371,0.059265137,0.8607788
1601134045488,940,-0.25878906,0.13250732,0.9154663
1601134045488,941,-0.25878906,0.13250732,0.9154663
1601134045493,942,-0.27319336,0.11395264,0.9244995
1601134045493,943,-0.26245117,0.08074951,0.89471436
1601134045493,944,-0.3005371,0.059265137,0.8607788
1601134045493,945,-0.27319336,0.11395264,0.9244995
1601134045493,946,-0.25878906,0.13250732,0.9154663
1601134045493,947,-0.26245117,0.08074951,0.89471436
1601134045493,948,-0.27270508,0.04852295,0.9196167
1601134045493,949,-0.27319336,0.11395264,0.9244995
1601134045494,950,-0.28442383,0.2230835,0.9291382
1601134045494,951,-0.27270508,0.04852295,0.9196167
1601134045494,952,-0.27270508,0.04852295,0.9196167
1601134045494,953,-0.25878906,0.13250732,0.9154663
1601134045497,954,-0.28442383,0.2230835,0.9291382
1601134045497,955,-0.27319336,0.11395264,0.9244995
1601134045497,956,-0.25878906,0.13250732,0.9154663
1601134045497,957,-0.27319336,0.11395264,0.9244995
1601134045498,958,-0.27270508,0.04852295,0.9196167
1601134045500,959,-0.27270508,0.04852295,0.9196167
1601134047788,960,-0.26660156,0.06365967,0.92767334
1601134047793,961,-0.26660156,0.06365967,0.92767334
1601134047794,962,-0.26660156,0.06365967,0.92767334
1601134047794,963,-0.26660156,0.06365967,0.92767334
1601134047796,964,-0.28198242,0.16009521,0.9660034
1601134047796,965,-0.28198242,0.16009521,0.9660034
1601134047797,966,-0.28198242,0.16009521,0.9660034
1601134047797,967,-0.28198242,0.16009521,0.9660034
1601134047797,968,-0.26660156,0.06365967,0.92767334
1601134047798,969,-0.2553711,0.10858154,0.92645264
1601134047801,970,-0.2553711,0.10858154,0.92645264
1601134047807,971,-0.26660156,0.06365967,0.92767334
1601134047807,972,-0.28198242,0.16009521,0.9660034
1601134047807,973,-0.21411133,-0.0960083,0.8619995
1601134047807,974,-0.26660156,0.06365967,0.92767334
1601134047808,975,-0.22827148,-0.15142822,0.8722534
1601134047808,976,-0.26660156,0.06365967,0.92767334
1601134047808,977,-0.28198242,0.16009521,0.9660034
1601134047808,978,-0.2915039,-0.22589111,0.9606323
1601134047808,979,-0.2553711,0.10858154,0.92645264
1601134047808,980,-0.21411133,-0.0960083,0.8619995
1601134047808,981,-0.2553711,0.10858154,0.92645264
1601134047808,982,-0.2553711,0.10858154,0.92645264
1601134047809,983,-0.2553711,0.10858154,0.92645264
1601134047809,984,-0.28198242,0.16009521,0.9660034
1601134047809,985,-0.28198242,0.16009521,0.9660034
1601134047809,986,-0.26660156,0.06365967,0.92767334
1601134047809,987,-0.21411133,-0.0960083,0.8619995
1601134047809,988,-0.2553711,0.10858154,0.92645264
1601134047809,989,-0.22827148,-0.15142822,0.8722534
1601134047810,990,-0.21411133,-0.0960083,0.8619995
1601134047810,991,-0.28198242,0.16009521,0.9660034
1601134047810,992,-0.2915039,-0.22589111,0.9606323
1601134047826,993,-0.2553711,0.10858154,0.92645264
1601134047826,994,-0.21411133,-0.0960083,0.8619995
1601134047830,995,-0.30664062,-0.20245361,0.9779663
1601134047830,996,-0.21411133,-0.0960083,0.8619995
1601134047830,997,-0.22827148,-0.15142822,0.8722534
1601134047830,998,-0.21411133,-0.0960083,0.8619995
1601134047830,999,-0.22827148,-0.15142822,0.8722534
1601134047830,1000,-0.26660156,0.06365967,0.92767334
1601134047831,1001,-0.22827148,-0.15142822,0.8722534
1601134047831,1002,-0.2553711,0.10858154,0.92645264
1601134047831,1003,-0.22827148,-0.15142822,0.8722534
1601134047831,1004,-0.28198242,0.16009521,0.9660034
1601134047831,1005,-0.22827148,-0.15142822,0.8722534
1601134047831,1006,-0.24047852,-0.12823486,0.90789795
1601134047832,1007,-0.2915039,-0.22589111,0.9606323
1601134047832,1008,-0.2915039,-0.22589111,0.9606323
1601134047832,1009,-0.19311523,-0.14337158,0.8678589
1601134047832,1010,-0.2915039,-0.22589111,0.9606323
1601134047832,1011,-0.2915039,-0.22589111,0.9606323
1601134047832,1012,-0.21411133,-0.0960083,0.8619995
1601134047832,1013,-0.21411133,-0.0960083,0.8619995
1601134047832,1014,-0.2915039,-0.22589111,0.9606323
1601134047832,1015,-0.30664062,-0.20245361,0.9779663
1601134047832,1016,-0.2553711,0.10858154,0.92645264
1601134047844,1017,-0.20751953,-0.14190674,0.9225464
1601134047844,1018,-0.30664062,-0.20245361,0.9779663
1601134047845,1019,-0.30664062,-0.20245361,0.9779663
1601134047846,1020,-0.23217773,-0.13140869,1.0023804
1601134047846,1021,-0.24047852,-0.12823486,0.90789795
1601134047846,1022,-0.1965332,-0.16217041,0.93377686
1601134047846,1023,-0.30664062,-0.20245361,0.9779663
1601134047847,1024,-0.24047852,-0.12823486,0.90789795
1601134047847,1025,-0.22827148,-0.15142822,0.8722534
1601134047847,1026,-0.21411133,-0.0960083,0.8619995
1601134047847,1027,-0.22827148,-0.15142822,0.8722534
1601134047847,1028,-0.24047852,-0.12823486,0.90789795
1601134047847,1029,-0.22827148,-0.15142822,0.8722534
1601134047847,1030,-0.24047852,-0.12823486,0.90789795
1601134047847,1031,-0.19311523,-0.14337158,0.8678589
1601134047847,1032,-0.17797852,-0.13458252,0.8475952
1601134047847,1033,-0.19311523,-0.14337158,0.8678589
1601134047847,1034,-0.30664062,-0.20245361,0.9779663
1601134047847,1035,-0.2915039,-0.22589111,0.9606323
1601134047847,1036,-0.2915039,-0.22589111,0.9606323
1601134047847,1037,-0.24047852,-0.12823486,0.90789795
1601134047848,1038,-0.30664062,-0.20245361,0.9779663
1601134047848,1039,-0.2915039,-0.22589111,0.9606323
1601134047848,1040,-0.19311523,-0.14337158,0.8678589
1601134047848,1041,-0.20751953,-0.14190674,0.9225464
1601134047848,1042,-0.24047852,-0.12823486,0.90789795
1601134047848,1043,-0.19311523,-0.14337158,0.8678589
1601134047848,1044,-0.20751953,-0.14190674,0.9225464
1601134047848,1045,-0.20751953,-0.14190674,0.9225464
1601134047848,1046,-0.22314453,-0.022277832,0.9008179
1601134047848,1047,-0.23217773,-0.13140869,1.0023804
1601134047848,1048,-0.30664062,-0.20245361,0.9779663
1601134047848,1049,-0.20751953,-0.14190674,0.9225464
1601134047853,1050,-0.30664062,-0.20245361,0.9779663
1601134047853,1051,-0.19311523,-0.14337158,0.8678589
1601134047853,1052,-0.23217773,-0.13140869,1.0023804
1601134047853,1053,-0.30664062,-0.20245361,0.9779663
1601134047853,1054,-0.24047852,-0.12823486,0.90789795
1601134047854,1055,-0.19311523,-0.14337158,0.8678589
1601134047854,1056,-0.1965332,-0.16217041,0.93377686
1601134047854,1057,-0.20751953,-0.14190674,0.9225464
1601134047854,1058,-0.24047852,-0.12823486,0.90789795
1601134047855,1059,-0.23217773,-0.13140869,1.0023804
1601134047855,1060,-0.19311523,-0.14337158,0.8678589
1601134047860,1061,-0.20751953,-0.14190674,0.9225464
1601134047860,1062,-0.24438477,-0.012512207,0.993103
1601134047860,1063,-0.1965332,-0.16217041,0.93377686
1601134047860,1064,-0.20751953,-0.14190674,0.9225464
1601134047861,1065,-0.23217773,-0.13140869,1.0023804
1601134047861,1066,-0.19311523,-0.14337158,0.8678589
1601134047861,1067,-0.28759766,0.015563965,0.9677124
1601134047861,1068,-0.1965332,-0.16217041,0.93377686
1601134047861,1069,-0.23217773,-0.13140869,1.0023804
1601134047861,1070,-0.17797852,-0.13458252,0.8475952
1601134047865,1071,-0.23217773,-0.13140869,1.0023804
1601134047865,1072,-0.17797852,-0.13458252,0.8475952
1601134047866,1073,-0.1965332,-0.16217041,0.93377686
1601134047866,1074,-0.23217773,-0.13140869,1.0023804
1601134047866,1075,-0.24047852,-0.12823486,0.90789795
1601134047866,1076,-0.30419922,-0.02960205,0.9376831
1601134047866,1077,-0.20751953,-0.14190674,0.9225464
1601134047866,1078,-0.17797852,-0.13458252,0.8475952
1601134047866,1079,-0.1965332,-0.16217041,0.93377686
1601134047866,1080,-0.22314453,-0.022277832,0.9008179
1601134047870,1081,-0.22314453,-0.022277832,0.9008179
1601134047882,1082,-0.19311523,-0.14337158,0.8678589
1601134047882,1083,-0.1965332,-0.16217041,0.93377686
1601134047882,1084,-0.17797852,-0.13458252,0.8475952
1601134047882,1085,-0.23217773,-0.13140869,1.0023804
1601134047882,1086,-0.22314453,-0.022277832,0.9008179
1601134047882,1087,-0.1965332,-0.16217041,0.93377686
1601134047882,1088,-0.17797852,-0.13458252,0.8475952
1601134047882,1089,-0.24438477,-0.012512207,0.993103
1601134047882,1090,-0.1965332,-0.16217041,0.93377686
1601134047882,1091,-0.24438477,-0.012512207,0.993103
1601134047882,1092,-0.17797852,-0.13458252,0.8475952
1601134047882,1093,-0.20751953,-0.14190674,0.9225464
1601134047882,1094,-0.17797852,-0.13458252,0.8475952
1601134047882,1095,-0.22314453,-0.022277832,0.9008179
1601134047882,1096,-0.24438477,-0.012512207,0.993103
1601134047882,1097,-0.24438477,-0.012512207,0.993103
1601134047883,1098,-0.17797852,-0.13458252,0.8475952
1601134047883,1099,-0.22314453,-0.022277832,0.9008179
1601134047883,1100,-0.28759766,0.015563965,0.9677124
1601134047883,1101,-0.28759766,0.015563965,0.9677124
1601134047883,1102,-0.28759766,0.015563965,0.9677124
1601134047883,1103,-0.23217773,-0.13140869,1.0023804
1601134047883,1104,-0.21679688,-0.1843872,0.90448
1601134047883,1105,-0.30419922,-0.02960205,0.9376831
1601134047883,1106,-0.22314453,-0.022277832,0.9008179
1601134047883,1107,-0.28759766,0.015563965,0.9677124
1601134047883,1108,-0.24438477,-0.012512207,0.993103
1601134047883,1109,-0.28759766,0.015563965,0.9677124
1601134047890,1110,-0.30419922,-0.02960205,0.9376831
1601134047890,1111,-0.30419922,-0.02960205,0.9376831
1601134047890,1112,-0.22314453,-0.022277832,0.9008179
1601134047890,1113,-0.21679688,-0.1843872,0.90448
1601134047890,1114,-0.21679688,-0.1843872,0.90448
1601134047890,1115,-0.21313477,-0.08843994,0.9442749
1601134047890,1116,-0.30419922,-0.02960205,0.9376831
1601134047890,1117,-0.24438477,-0.012512207,0.993103
1601134047890,1118,-0.30419922,-0.02960205,0.9376831
1601134047890,1119,-0.22314453,-0.022277832,0.9008179
1601134047906,1120,-0.21679688,-0.1843872,0.90448
1601134047907,1121,-0.1965332,-0.16217041,0.93377686
1601134047907,1122,-0.24438477,-0.012512207,0.993103
1601134047907,1123,-0.17797852,-0.13458252,0.8475952
1601134047907,1124,-0.21313477,-0.08843994,0.9442749
1601134047907,1125,-0.22314453,-0.022277832,0.9008179
1601134047907,1126,-0.21313477,-0.08843994,0.9442749
1601134047907,1127,-0.24438477,-0.012512207,0.993103
1601134047908,1128,-0.28759766,0.015563965,0.9677124
1601134047908,1129,-0.22631836,-0.10040283,0.932312
1601134047908,1130,-0.28759766,0.015563965,0.9677124
1601134047908,1131,-0.21313477,-0.08843994,0.9442749
1601134047908,1132,-0.18896484,-0.08404541,0.97454834
1601134047908,1133,-0.28759766,0.015563965,0.9677124
1601134047908,1134,-0.18847656,0.04534912,0.9828491
1601134047908,1135,-0.21679688,-0.1843872,0.90448
1601134047909,1136,-0.20678711,0.012145996,0.93963623
1601134047909,1137,-0.30419922,-0.02960205,0.9376831
1601134047909,1138,-0.30419922,-0.02960205,0.9376831
1601134047909,1139,-0.21679688,-0.1843872,0.90448
1601134047909,1140,-0.16625977,-0.028625488,1.0082397
1601134047909,1141,-0.21679688,-0.1843872,0.90448
1601134047909,1142,-0.13549805,-0.18145752,0.9970093
1601134047909,1143,-0.24438477,-0.012512207,0.993103
1601134047910,1144,-0.22631836,-0.10040283,0.932312
1601134047910,1145,-0.22631836,-0.10040283,0.932312
1601134047910,1146,-0.18896484,-0.08404541,0.97454834
1601134047910,1147,-0.28759766,0.015563965,0.9677124
1601134047910,1148,-0.18896484,-0.08404541,0.97454834
1601134047910,1149,-0.30419922,-0.02960205,0.9376831
1601134047910,1150,-0.21313477,-0.08843994,0.9442749
1601134047910,1151,-0.21679688,-0.1843872,0.90448
1601134047911,1152,-0.05810547,-0.23077393,0.93621826
1601134047911,1153,-0.21313477,-0.08843994,0.9442749
1601134047911,1154,-0.22631836,-0.10040283,0.932312
1601134047911,1155,0.016357422,-0.29327393,0.91741943
1601134047911,1156,-0.18847656,0.04534912,0.9828491
1601134047913,1157,0.07446289,-0.23565674,0.9503784
1601134047913,1158,-0.18847656,0.04534912,0.9828491
1601134047913,1159,-0.18896484,-0.08404541,0.97454834
1601134047913,1160,0.056396484,-0.2588501,0.9279175
1601134047913,1161,-0.22631836,-0.10040283,0.932312
1601134047913,1162,-0.20678711,0.012145996,0.93963623
1601134047913,1163,-0.21679688,-0.1843872,0.90448
1601134047913,1164,-0.30419922,-0.02960205,0.9376831
1601134047913,1165,-0.21313477,-0.08843994,0.9442749
1601134047914,1166,-0.21679688,-0.1843872,0.90448
1601134047919,1167,-0.21313477,-0.08843994,0.9442749
1601134047919,1168,-0.22631836,-0.10040283,0.932312
1601134047919,1169,-0.16625977,-0.028625488,1.0082397
1601134047919,1170,-0.21313477,-0.08843994,0.9442749
1601134047919,1171,-0.21313477,-0.08843994,0.9442749
1601134047919,1172,-0.22631836,-0.10040283,0.932312
1601134047919,1173,-0.18847656,0.04534912,0.9828491
1601134047919,1174,-0.20678711,0.012145996,0.93963623
1601134047919,1175,0.10595703,-0.4817505,0.7719116
1601134047919,1176,-0.22631836,-0.10040283,0.932312
1601134047920,1177,-0.22631836,-0.10040283,0.932312
1601134047936,1178,-0.13549805,-0.18145752,0.9970093
1601134047936,1179,-0.22631836,-0.10040283,0.932312
1601134047936,1180,-0.18896484,-0.08404541,0.97454834
1601134047936,1181,-0.05810547,-0.23077393,0.93621826
1601134047936,1182,-0.18896484,-0.08404541,0.97454834
1601134047936,1183,0.10986328,-0.5125122,0.7665405
1601134047936,1184,-0.20678711,0.012145996,0.93963623
1601134047936,1185,-0.18896484,-0.08404541,0.97454834
1601134047936,1186,-0.18896484,-0.08404541,0.97454834
1601134047937,1187,0.13256836,-0.5274048,0.7770386
1601134047937,1188,-0.18847656,0.04534912,0.9828491
1601134047937,1189,-0.18896484,-0.08404541,0.97454834
1601134047937,1190,0.016357422,-0.29327393,0.91741943
1601134047937,1191,-0.18847656,0.04534912,0.9828491
1601134047937,1192,-0.16625977,-0.028625488,1.0082397
1601134047938,1193,-0.18847656,0.04534912,0.9828491
1601134047940,1194,-0.18847656,0.04534912,0.9828491
1601134047941,1195,-0.20678711,0.012145996,0.93963623
1601134047941,1196,-0.20678711,0.012145996,0.93963623
1601134047941,1197,-0.16625977,-0.028625488,1.0082397
1601134047941,1198,-0.18847656,0.04534912,0.9828491
1601134047941,1199,-0.16625977,-0.028625488,1.0082397
1601134047941,1200,-0.18896484,-0.08404541,0.97454834
1601134047941,1201,0.07446289,-0.23565674,0.9503784
1601134047942,1202,-0.13549805,-0.18145752,0.9970093
1601134047942,1203,-0.20678711,0.012145996,0.93963623
1601134047942,1204,-0.20678711,0.012145996,0.93963623
1601134047942,1205,-0.16625977,-0.028625488,1.0082397
1601134047942,1206,-0.18847656,0.04534912,0.9828491
1601134047942,1207,-0.13549805,-0.18145752,0.9970093
1601134047942,1208,-0.20678711,0.012145996,0.93963623
1601134047942,1209,-0.16625977,-0.028625488,1.0082397
1601134047942,1210,-0.05810547,-0.23077393,0.93621826
1601134047942,1211,-0.05810547,-0.23077393,0.93621826
1601134047942,1212,-0.20678711,0.012145996,0.93963623
1601134047944,1213,-0.16625977,-0.028625488,1.0082397
1601134047944,1214,-0.13549805,-0.18145752,0.9970093
1601134047944,1215,-0.16625977,-0.028625488,1.0082397
1601134047944,1216,-0.13549805,-0.18145752,0.9970093
1601134047945,1217,0.056396484,-0.2588501,0.9279175
1601134047945,1218,-0.13549805,-0.18145752,0.9970093
1601134047945,1219,0.016357422,-0.29327393,0.91741943
1601134047945,1220,0.016357422,-0.29327393,0.91741943
1601134047945,1221,-0.16625977,-0.028625488,1.0082397
1601134047947,1222,-0.13549805,-0.18145752,0.9970093
1601134047953,1223,-0.05810547,-0.23077393,0.93621826
1601134047953,1224,0.10595703,-0.4817505,0.7719116
1601134047953,1225,0.07446289,-0.23565674,0.9503784
1601134047953,1226,-0.13549805,-0.18145752,0.9970093
1601134047953,1227,0.07446289,-0.23565674,0.9503784
1601134047956,1228,-0.13549805,-0.18145752,0.9970093
1601134047956,1229,0.056396484,-0.2588501,0.9279175
1601134047956,1230,-0.05810547,-0.23077393,0.93621826
1601134047956,1231,0.10986328,-0.5125122,0.7665405
1601134047956,1232,0.056396484,-0.2588501,0.9279175
1601134047956,1233,0.016357422,-0.29327393,0.91741943
1601134047956,1234,0.10595703,-0.4817505,0.7719116
1601134047956,1235,-0.05810547,-0.23077393,0.93621826
1601134047964,1236,-0.05810547,-0.23077393,0.93621826
1601134047964,1237,-0.05810547,-0.23077393,0.93621826
1601134047965,1238,0.016357422,-0.29327393,0.91741943
1601134047965,1239,-0.05810547,-0.23077393,0.93621826
1601134047965,1240,0.07446289,-0.23565674,0.9503784
1601134047965,1241,0.13256836,-0.5274048,0.7770386
1601134047965,1242,0.10986328,-0.5125122,0.7665405
1601134047965,1243,0.016357422,-0.29327393,0.91741943
1601134047965,1244,0.016357422,-0.29327393,0.91741943
1601134047965,1245,0.07446289,-0.23565674,0.9503784
1601134047965,1246,0.10595703,-0.4817505,0.7719116
1601134047966,1247,0.016357422,-0.29327393,0.91741943
1601134047966,1248,0.016357422,-0.29327393,0.91741943
1601134047966,1249,0.13256836,-0.5274048,0.7770386
1601134047966,1250,0.10986328,-0.5125122,0.7665405
1601134047966,1251,0.07446289,-0.23565674,0.9503784
1601134047966,1252,0.07446289,-0.23565674,0.9503784
1601134047967,1253,0.056396484,-0.2588501,0.9279175
1601134047967,1254,0.07446289,-0.23565674,0.9503784
1601134047972,1255,0.056396484,-0.2588501,0.9279175
1601134047973,1256,0.13256836,-0.5274048,0.7770386
1601134047974,1257,0.10595703,-0.4817505,0.7719116
1601134047974,1258,0.056396484,-0.2588501,0.9279175
1601134047974,1259,0.10595703,-0.4817505,0.7719116
1601134047974,1260,0.07446289,-0.23565674,0.9503784
1601134047974,1261,0.10986328,-0.5125122,0.7665405
1601134047977,1262,0.056396484,-0.2588501,0.9279175
1601134047977,1263,0.10986328,-0.5125122,0.7665405
1601134047977,1264,0.056396484,-0.2588501,0.9279175
1601134047977,1265,0.10595703,-0.4817505,0.7719116
1601134047977,1266,0.056396484,-0.2588501,0.9279175
1601134047977,1267,0.13256836,-0.5274048,0.7770386
1601134047978,1268,0.10986328,-0.5125122,0.7665405
1601134047978,1269,0.13256836,-0.5274048,0.7770386
1601134047978,1270,0.10595703,-0.4817505,0.7719116
1601134047980,1271,0.13256836,-0.5274048,0.7770386
1601134047980,1272,0.10595703,-0.4817505,0.7719116
1601134047980,1273,0.10986328,-0.5125122,0.7665405
1601134047980,1274,0.10595703,-0.4817505,0.7719116
1601134047980,1275,0.13256836,-0.5274048,0.7770386
1601134047981,1276,0.10986328,-0.5125122,0.7665405
1601134047982,1277,0.13256836,-0.5274048,0.7770386
1601134047984,1278,0.10986328,-0.5125122,0.7665405
1601134047985,1279,0.13256836,-0.5274048,0.7770386
1601134050358,1280,0.14453125,-0.50982666,0.793396
1601134050359,1281,0.14453125,-0.50982666,0.793396
1601134050359,1282,0.14453125,-0.50982666,0.793396
1601134050360,1283,0.14453125,-0.50982666,0.793396
1601134050360,1284,0.14453125,-0.50982666,0.793396
1601134050361,1285,0.1538086,-0.5564575,0.7640991
1601134050375,1286,0.14453125,-0.50982666,0.793396
1601134050375,1287,0.14453125,-0.50982666,0.793396
1601134050376,1288,0.1538086,-0.5564575,0.7640991
1601134050376,1289,0.20703125,-0.54644775,0.74798584
1601134050376,1290,0.1538086,-0.5564575,0.7640991
1601134050376,1291,0.1538086,-0.5564575,0.7640991
1601134050376,1292,0.2290039,-0.5183716,0.7640991
1601134050376,1293,0.14453125,-0.50982666,0.793396
1601134050376,1294,0.20703125,-0.54644775,0.74798584
1601134050376,1295,0.1538086,-0.5564575,0.7640991
1601134050376,1296,0.1538086,-0.5564575,0.7640991
1601134050379,1297,0.20703125,-0.54644775,0.74798584
1601134050379,1298,0.1538086,-0.5564575,0.7640991
1601134050379,1299,0.20703125,-0.54644775,0.74798584
1601134050381,1300,0.14453125,-0.50982666,0.793396
1601134050387,1301,0.1538086,-0.5564575,0.7640991
1601134050390,1302,0.14453125,-0.50982666,0.793396
1601134050403,1303,0.2290039,-0.5183716,0.7640991
1601134050404,1304,0.2290039,-0.5183716,0.7640991
1601134050404,1305,0.20703125,-0.54644775,0.74798584
1601134050404,1306,0.22094727,-0.46051025,0.89764404
1601134050404,1307,0.2290039,-0.5183716,0.7640991
1601134050404,1308,0.2290039,-0.5183716,0.7640991
1601134050404,1309,0.22094727,-0.46051025,0.89764404
1601134050405,1310,0.22094727,-0.46051025,0.89764404
1601134050405,1311,0.22094727,-0.46051025,0.89764404
1601134050405,1312,0.20703125,-0.54644775,0.74798584
1601134050406,1313,0.22094727,-0.46051025,0.89764404
1601134050410,1314,0.1538086,-0.5564575,0.7640991
1601134050410,1315,0.23779297,-0.5977173,0.9359741
1601134050410,1316,0.20703125,-0.54644775,0.74798584
1601134050410,1317,0.30859375,-0.54351807,0.73114014
1601134050410,1318,0.20703125,-0.54644775,0.74798584
1601134050411,1319,0.23779297,-0.5977173,0.9359741
1601134050411,1320,0.23779297,-0.5977173,0.9359741
1601134050411,1321,0.2290039,-0.5183716,0.7640991
1601134050411,1322,0.2290039,-0.5183716,0.7640991
1601134050420,1323,0.23779297,-0.5977173,0.9359741
1601134050420,1324,0.23779297,-0.5977173,0.9359741
1601134050420,1325,0.1538086,-0.5564575,0.7640991
1601134050421,1326,0.3671875,-0.5491333,0.5241089
1601134050421,1327,0.20703125,-0.54644775,0.74798584
1601134050421,1328,0.30859375,-0.54351807,0.73114014
1601134050421,1329,0.2290039,-0.5183716,0.7640991
1601134050422,1330,0.22094727,-0.46051025,0.89764404
1601134050422,1331,0.30859375,-0.54351807,0.73114014
1601134050423,1332,0.22094727,-0.46051025,0.89764404
1601134050425,1333,0.41723633,-0.5779419,0.48919678
1601134050425,1334,0.30859375,-0.54351807,0.73114014
1601134050425,1335,0.23779297,-0.5977173,0.9359741
1601134050425,1336,0.20703125,-0.54644775,0.74798584
1601134050426,1337,0.2290039,-0.5183716,0.7640991
1601134050426,1338,0.22094727,-0.46051025,0.89764404
1601134050426,1339,0.3671875,-0.5491333,0.5241089
1601134050442,1340,0.3671875,-0.5491333,0.5241089
1601134050442,1341,0.4350586,-0.6157837,0.57366943
1601134050442,1342,0.30859375,-0.54351807,0.73114014
1601134050442,1343,0.23779297,-0.5977173,0.9359741
1601134050442,1344,0.30859375,-0.54351807,0.73114014
1601134050442,1345,0.22094727,-0.46051025,0.89764404
1601134050442,1346,0.3671875,-0.5491333,0.5241089
1601134050442,1347,0.2290039,-0.5183716,0.7640991
1601134050442,1348,0.22094727,-0.46051025,0.89764404
1601134050443,1349,0.41723633,-0.5779419,0.48919678
1601134050445,1350,0.23779297,-0.5977173,0.9359741
1601134050445,1351,0.41357422,-0.6201782,0.62835693
1601134050445,1352,0.4350586,-0.6157837,0.57366943
1601134050445,1353,0.41723633,-0.5779419,0.48919678
1601134050446,1354,0.41357422,-0.6201782,0.62835693
1601134050446,1355,0.3671875,-0.5491333,0.5241089
1601134050446,1356,0.41723633,-0.5779419,0.48919678
1601134050446,1357,0.30859375,-0.54351807,0.73114014
1601134050446,1358,0.23779297,-0.5977173,0.9359741
1601134050446,1359,0.36889648,-0.5811157,0.64959717
1601134050446,1360,0.3671875,-0.5491333,0.5241089
1601134050446,1361,0.3647461,-0.5928345,0.66400146
1601134050446,1362,0.4350586,-0.6157837,0.57366943
1601134050446,1363,0.3671875,-0.5491333,0.5241089
1601134050446,1364,0.36889648,-0.5811157,0.64959717
1601134050446,1365,0.41357422,-0.6201782,0.62835693
1601134050447,1366,0.23779297,-0.5977173,0.9359741
1601134050447,1367,0.41723633,-0.5779419,0.48919678
1601134050447,1368,0.4350586,-0.6157837,0.57366943
1601134050447,1369,0.30859375,-0.54351807,0.73114014
1601134050447,1370,0.36889648,-0.5811157,0.64959717
1601134050448,1371,0.41723633,-0.5779419,0.48919678
1601134050448,1372,0.3647461,-0.5928345,0.66400146
1601134050449,1373,0.30859375,-0.54351807,0.73114014
1601134050449,1374,0.4350586,-0.6157837,0.57366943
1601134050449,1375,0.37109375,-0.59503174,0.70184326
1601134050465,1376,0.4350586,-0.6157837,0.57366943
1601134050465,1377,0.3647461,-0.5928345,0.66400146
1601134050465,1378,0.3671875,-0.5491333,0.5241089
1601134050465,1379,0.41357422,-0.6201782,0.62835693
1601134050465,1380,0.41723633,-0.5779419,0.48919678
1601134050465,1381,0.30859375,-0.54351807,0.73114014
1601134050465,1382,0.3671875,-0.5491333,0.5241089
1601134050465,1383,0.4350586,-0.6157837,0.57366943
1601134050465,1384,0.41723633,-0.5779419,0.48919678
1601134050465,1385,0.41357422,-0.6201782,0.62835693
1601134050466,1386,0.3671875,-0.5491333,0.5241089
1601134050466,1387,0.36889648,-0.5811157,0.64959717
1601134050466,1388,0.41723633,-0.5779419,0.48919678
1601134050466,1389,0.3647461,-0.5928345,0.66400146
1601134050466,1390,0.41357422,-0.6201782,0.62835693
1601134050466,1391,0.4350586,-0.6157837,0.57366943
1601134050466,1392,0.3696289,-0.62286377,0.6415405
1601134050466,1393,0.36889648,-0.5811157,0.64959717
1601134050466,1394,0.41723633,-0.5779419,0.48919678
1601134050466,1395,0.41357422,-0.6201782,0.62835693
1601134050473,1396,0.37109375,-0.59503174,0.70184326
1601134050473,1397,0.37109375,-0.59503174,0.70184326
1601134050473,1398,0.4350586,-0.6157837,0.57366943
1601134050473,1399,0.3696289,-0.62286377,0.6415405
1601134050473,1400,0.37109375,-0.59503174,0.70184326
1601134050474,1401,0.36889648,-0.5811157,0.64959717
1601134050474,1402,0.3647461,-0.5928345,0.66400146
1601134050474,1403,0.51538086,-0.6499634,0.6005249
1601134050474,1404,0.41357422,-0.6201782,0.62835693
1601134050474,1405,0.4350586,-0.6157837,0.57366943
1601134050474,1406,0.36889648,-0.5811157,0.64959717
1601134050474,1407,0.3696289,-0.62286377,0.6415405
1601134050474,1408,0.36889648,-0.5811157,0.64959717
1601134050474,1409,0.51538086,-0.6499634,0.6005249
1601134050474,1410,0.41357422,-0.6201782,0.62835693
1601134050475,1411,0.3647461,-0.5928345,0.66400146
1601134050475,1412,0.3696289,-0.62286377,0.6415405
1601134050475,1413,0.3647461,-0.5928345,0.66400146
1601134050475,1414,0.37109375,-0.59503174,0.70184326
1601134050494,1415,0.3647461,-0.5928345,0.66400146
1601134050494,1416,0.51538086,-0.6499634,0.6005249
1601134050494,1417,0.51538086,-0.6499634,0.6005249
1601134050494,1418,0.37109375,-0.59503174,0.70184326
1601134050494,1419,0.3696289,-0.62286377,0.6415405
1601134050494,1420,0.47973633,-0.60723877,0.53900146
1601134050495,1421,0.36889648,-0.5811157,0.64959717
1601134050495,1422,0.49023438,-0.616272,0.52923584
1601134050495,1423,0.51538086,-0.6499634,0.6005249
1601134050495,1424,0.3647461,-0.5928345,0.66400146
1601134050495,1425,0.47973633,-0.60723877,0.53900146
1601134050495,1426,0.37109375,-0.59503174,0.70184326
1601134050495,1427,0.47973633,-0.60723877,0.53900146
1601134050495,1428,0.3696289,-0.62286377,0.6415405
1601134050495,1429,0.37109375,-0.59503174,0.70184326
1601134050495,1430,0.47973633,-0.60723877,0.53900146
1601134050495,1431,0.41357422,-0.6201782,0.62835693
1601134050495,1432,0.3696289,-0.62286377,0.6415405
1601134050496,1433,0.47973633,-0.60723877,0.53900146
1601134050496,1434,0.37109375,-0.59503174,0.70184326
1601134050512,1435,0.49023438,-0.616272,0.52923584
1601134050512,1436,0.51538086,-0.6499634,0.6005249
1601134050514,1437,0.36889648,-0.5811157,0.64959717
1601134050514,1438,0.49023438,-0.616272,0.52923584
1601134050514,1439,0.47973633,-0.60723877,0.53900146
1601134050514,1440,0.3696289,-0.62286377,0.6415405
1601134050514,1441,0.49023438,-0.616272,0.52923584
1601134050515,1442,0.48242188,-0.6235962,0.5199585
1601134050515,1443,0.51538086,-0.6499634,0.6005249
1601134050515,1444,0.49023438,-0.616272,0.52923584
1601134050515,1445,0.3696289,-0.62286377,0.6415405
1601134050515,1446,0.44140625,-0.5227661,0.61834717
1601134050515,1447,0.48242188,-0.6235962,0.5199585
1601134050515,1448,0.51538086,-0.6499634,0.6005249
1601134050516,1449,0.3647461,-0.5928345,0.66400146
1601134050516,1450,0.47973633,-0.60723877,0.53900146
1601134050516,1451,0.48242188,-0.6235962,0.5199585
1601134050516,1452,0.48242188,-0.6235962,0.5199585
1601134050516,1453,0.49023438,-0.616272,0.52923584
1601134050516,1454,0.51538086,-0.6499634,0.6005249
1601134050516,1455,0.44140625,-0.5227661,0.61834717
1601134050516,1456,0.48242188,-0.6235962,0.5199585
1601134050516,1457,0.47973633,-0.60723877,0.53900146
1601134050516,1458,0.49023438,-0.616272,0.52923584
1601134050516,1459,0.47973633,-0.60723877,0.53900146
1601134050516,1460,0.44140625,-0.5227661,0.61834717
1601134050516,1461,0.48242188,-0.6235962,0.5199585
1601134050516,1462,0.46533203,-0.61309814,0.572937
1601134050516,1463,0.44140625,-0.5227661,0.61834717
1601134050516,1464,0.46533203,-0.61309814,0.572937
1601134050517,1465,0.46533203,-0.61309814,0.572937
1601134050517,1466,0.37109375,-0.59503174,0.70184326
1601134050517,1467,0.49023438,-0.616272,0.52923584
1601134050517,1468,0.51171875,-0.71295166,0.62005615
1601134050517,1469,0.49023438,-0.616272,0.52923584
1601134050517,1470,0.44140625,-0.5227661,0.61834717
1601134050517,1471,0.48242188,-0.6235962,0.5199585
1601134050517,1472,0.51171875,-0.71295166,0.62005615
1601134050517,1473,0.48242188,-0.6235962,0.5199585
1601134050517,1474,0.51171875,-0.71295166,0.62005615
1601134050517,1475,0.44140625,-0.5227661,0.61834717
1601134050517,1476,0.3696289,-0.62286377,0.6415405
1601134050517,1477,0.31298828,-0.26715088,0.7225952
1601134050517,1478,0.46533203,-0.61309814,0.572937
1601134050517,1479,0.31298828,-0.26715088,0.7225952
1601134050517,1480,0.46533203,-0.61309814,0.572937
1601134050517,1481,0.44140625,-0.5227661,0.61834717
1601134050521,1482,0.31298828,-0.26715088,0.7225952
1601134050521,1483,0.46533203,-0.61309814,0.572937
1601134050521,1484,0.48242188,-0.6235962,0.5199585
1601134050521,1485,0.25976562,-0.17071533,0.93255615
1601134050521,1486,0.51538086,-0.6499634,0.6005249
1601134050521,1487,0.44140625,-0.5227661,0.61834717
1601134050521,1488,0.44140625,-0.5227661,0.61834717
1601134050522,1489,0.46533203,-0.61309814,0.572937
1601134050522,1490,0.46533203,-0.61309814,0.572937
1601134050522,1491,0.51171875,-0.71295166,0.62005615
1601134050526,1492,0.51171875,-0.71295166,0.62005615
1601134050528,1493,0.51171875,-0.71295166,0.62005615
1601134050540,1494,0.51171875,-0.71295166,0.62005615
1601134050540,1495,0.47973633,-0.60723877,0.53900146
1601134050540,1496,0.46533203,-0.61309814,0.572937
1601134050540,1497,0.37817383,-0.38970947,0.8739624
1601134050540,1498,0.31298828,-0.26715088,0.7225952
1601134050540,1499,0.51171875,-0.71295166,0.62005615
1601134050540,1500,0.31298828,-0.26715088,0.7225952
1601134050540,1501,0.51171875,-0.71295166,0.62005615
1601134050540,1502,0.31298828,-0.26715088,0.7225952
1601134050540,1503,0.31298828,-0.26715088,0.7225952
1601134050540,1504,0.31298828,-0.26715088,0.7225952
1601134050540,1505,0.25976562,-0.17071533,0.93255615
1601134050540,1506,0.25976562,-0.17071533,0.93255615
1601134050540,1507,0.19580078,-0.3081665,0.91082764
1601134050540,1508,0.37817383,-0.38970947,0.8739624
1601134050541,1509,0.25976562,-0.17071533,0.93255615
1601134050541,1510,0.19580078,-0.3081665,0.91082764
1601134050541,1511,0.49023438,-0.616272,0.52923584
1601134050541,1512,0.25976562,-0.17071533,0.93255615
1601134050541,1513,0.25976562,-0.17071533,0.93255615
1601134050541,1514,0.31298828,-0.26715088,0.7225952
1601134050542,1515,0.48242188,-0.6235962,0.5199585
1601134050542,1516,0.25976562,-0.17071533,0.93255615
1601134050542,1517,0.37817383,-0.38970947,0.8739624
1601134050542,1518,0.25976562,-0.17071533,0.93255615
1601134050542,1519,0.37817383,-0.38970947,0.8739624
1601134050542,1520,0.37817383,-0.38970947,0.8739624
1601134050542,1521,0.18408203,-0.36065674,0.9537964
1601134050542,1522,0.37817383,-0.38970947,0.8739624
1601134050542,1523,0.37817383,-0.38970947,0.8739624
1601134050542,1524,0.44140625,-0.5227661,0.61834717
1601134050542,1525,0.25976562,-0.17071533,0.93255615
1601134050542,1526,0.18408203,-0.36065674,0.9537964
1601134050542,1527,0.37817383,-0.38970947,0.8739624
1601134050550,1528,0.37817383,-0.38970947,0.8739624
1601134050551,1529,0.3935547,-0.36138916,0.8278198
1601134050551,1530,0.46533203,-0.61309814,0.572937
1601134050551,1531,0.19580078,-0.3081665,0.91082764
1601134050551,1532,0.19580078,-0.3081665,0.91082764
1601134050551,1533,0.51171875,-0.71295166,0.62005615
1601134050551,1534,0.19580078,-0.3081665,0.91082764
1601134050551,1535,0.3935547,-0.36138916,0.8278198
1601134050551,1536,0.19580078,-0.3081665,0.91082764
1601134050551,1537,0.19580078,-0.3081665,0.91082764
1601134050572,1538,0.19580078,-0.3081665,0.91082764
1601134050572,1539,0.3701172,-0.2901001,0.7670288
1601134050572,1540,0.18408203,-0.36065674,0.9537964
1601134050572,1541,0.18408203,-0.36065674,0.9537964
1601134050572,1542,0.19580078,-0.3081665,0.91082764
1601134050572,1543,0.18408203,-0.36065674,0.9537964
1601134050572,1544,0.18408203,-0.36065674,0.9537964
1601134050573,1545,0.18408203,-0.36065674,0.9537964
1601134050573,1546,0.18408203,-0.36065674,0.9537964
1601134050573,1547,0.3935547,-0.36138916,0.8278198
1601134050573,1548,0.3935547,-0.36138916,0.8278198
1601134050573,1549,0.31298828,-0.26715088,0.7225952
1601134050573,1550,0.23388672,-0.22271729,0.8656616
1601134050573,1551,0.3935547,-0.36138916,0.8278198
1601134050573,1552,0.3935547,-0.36138916,0.8278198
1601134050573,1553,0.3701172,-0.2901001,0.7670288
1601134050573,1554,0.3701172,-0.2901001,0.7670288
1601134050573,1555,0.18408203,-0.36065674,0.9537964
1601134050573,1556,0.3701172,-0.2901001,0.7670288
1601134050574,1557,0.23388672,-0.22271729,0.8656616
1601134050574,1558,0.23388672,-0.22271729,0.8656616
1601134050574,1559,0.3935547,-0.36138916,0.8278198
1601134050574,1560,0.22631836,-0.37213135,0.8703003
1601134050574,1561,0.25976562,-0.17071533,0.93255615
1601134050574,1562,0.3701172,-0.2901001,0.7670288
1601134050574,1563,0.3701172,-0.2901001,0.7670288
1601134050574,1564,0.23388672,-0.22271729,0.8656616
1601134050574,1565,0.23388672,-0.22271729,0.8656616
1601134050574,1566,0.3935547,-0.36138916,0.8278198
1601134050574,1567,0.3701172,-0.2901001,0.7670288
1601134050574,1568,0.3935547,-0.36138916,0.8278198
1601134050575,1569,0.25390625,-0.37457275,0.8324585
1601134050575,1570,0.22631836,-0.37213135,0.8703003
1601134050575,1571,0.37817383,-0.38970947,0.8739624
1601134050579,1572,0.22631836,-0.37213135,0.8703003
1601134050579,1573,0.22631836,-0.37213135,0.8703003
1601134050588,1574,0.22631836,-0.37213135,0.8703003
1601134050589,1575,0.3701172,-0.2901001,0.7670288
1601134050589,1576,0.23388672,-0.22271729,0.8656616
1601134050589,1577,0.3701172,-0.2901001,0.7670288
1601134050589,1578,0.19580078,-0.3081665,0.91082764
1601134050589,1579,0.25390625,-0.37457275,0.8324585
1601134050589,1580,0.22631836,-0.37213135,0.8703003
1601134050589,1581,0.23388672,-0.22271729,0.8656616
1601134050596,1582,0.25390625,-0.37457275,0.8324585
1601134050596,1583,0.23388672,-0.22271729,0.8656616
1601134050596,1584,0.23388672,-0.22271729,0.8656616
1601134050597,1585,0.18408203,-0.36065674,0.9537964
1601134050597,1586,0.25390625,-0.37457275,0.8324585
1601134050597,1587,0.22631836,-0.37213135,0.8703003
1601134050600,1588,0.25390625,-0.37457275,0.8324585
1601134050601,1589,0.22631836,-0.37213135,0.8703003
1601134050601,1590,0.3935547,-0.36138916,0.8278198
1601134050601,1591,0.25390625,-0.37457275,0.8324585
1601134050601,1592,0.3701172,-0.2901001,0.7670288
1601134050601,1593,0.22631836,-0.37213135,0.8703003
1601134050601,1594,0.25390625,-0.37457275,0.8324585
1601134050602,1595,0.25390625,-0.37457275,0.8324585
1601134050604,1596,0.25390625,-0.37457275,0.8324585
1601134050604,1597,0.23388672,-0.22271729,0.8656616
1601134050607,1598,0.22631836,-0.37213135,0.8703003
1601134050607,1599,0.25390625,-0.37457275,0.8324585
1601134052857,1600,0.24926758,-0.40093994,0.85614014
1601134052868,1601,0.24926758,-0.40093994,0.85614014
1601134052868,1602,0.24926758,-0.40093994,0.85614014
1601134052868,1603,0.24926758,-0.40093994,0.85614014
1601134052869,1604,0.24926758,-0.40093994,0.85614014
1601134052869,1605,0.24926758,-0.40093994,0.85614014
1601134052869,1606,0.24926758,-0.3748169,0.8847046
1601134052869,1607,0.24926758,-0.3748169,0.8847046
1601134052871,1608,0.24926758,-0.40093994,0.85614014
1601134052872,1609,0.24926758,-0.3748169,0.8847046
1601134052878,1610,0.24926758,-0.3748169,0.8847046
1601134052878,1611,0.24926758,-0.3748169,0.8847046
1601134052880,1612,0.26953125,-0.2600708,0.8287964
1601134052880,1613,0.24926758,-0.3748169,0.8847046
1601134052880,1614,0.26953125,-0.2600708,0.8287964
1601134052880,1615,0.26953125,-0.2600708,0.8287964
1601134052880,1616,0.24926758,-0.40093994,0.85614014
1601134052880,1617,0.26953125,-0.2600708,0.8287964
1601134052880,1618,0.26953125,-0.2600708,0.8287964
1601134052880,1619,0.31347656,-0.333313,0.8512573
1601134052881,1620,0.26953125,-0.2600708,0.8287964
1601134052881,1621,0.31347656,-0.333313,0.8512573
1601134052881,1622,0.24926758,-0.3748169,0.8847046
1601134052881,1623,0.31347656,-0.333313,0.8512573
1601134052881,1624,0.31347656,-0.333313,0.8512573
1601134052881,1625,0.31347656,-0.333313,0.8512573
1601134052881,1626,0.2836914,-0.28668213,0.8283081
1601134052881,1627,0.2836914,-0.28668213,0.8283081
1601134052886,1628,0.24926758,-0.40093994,0.85614014
1601134052886,1629,0.2836914,-0.28668213,0.8283081
1601134052886,1630,0.24926758,-0.40093994,0.85614014
1601134052886,1631,0.24926758,-0.3748169,0.8847046
1601134052886,1632,0.26953125,-0.2600708,0.8287964
1601134052886,1633,0.26953125,-0.2600708,0.8287964
1601134052886,1634,0.33496094,-0.21636963,0.8563843
1601134052886,1635,0.2836914,-0.28668213,0.8283081
1601134052886,1636,0.31347656,-0.333313,0.8512573
1601134052888,1637,0.2836914,-0.28668213,0.8283081
1601134052889,1638,0.24926758,-0.3748169,0.8847046
1601134052889,1639,0.33496094,-0.21636963,0.8563843
1601134052889,1640,0.33496094,-0.21636963,0.8563843
1601134052889,1641,0.31347656,-0.333313,0.8512573
1601134052889,1642,0.3322754,-0.15289307,0.8764038
1601134052889,1643,0.33496094,-0.21636963,0.8563843
1601134052889,1644,0.3322754,-0.15289307,0.8764038
1601134052889,1645,0.2836914,-0.28668213,0.8283081
1601134052890,1646,0.26953125,-0.2600708,0.8287964
1601134052891,1647,0.2836914,-0.28668213,0.8283081
1601134052891,1648,0.31347656,-0.333313,0.8512573
1601134052892,1649,0.21411133,-0.23614502,0.8981323
1601134052894,1650,0.3322754,-0.15289307,0.8764038
1601134052894,1651,0.18188477,-0.39019775,0.8942261
1601134052895,1652,0.31347656,-0.333313,0.8512573
1601134052897,1653,0.33496094,-0.21636963,0.8563843
1601134052897,1654,0.2836914,-0.28668213,0.8283081
1601134052903,1655,0.2836914,-0.28668213,0.8283081
1601134052903,1656,0.33496094,-0.21636963,0.8563843
1601134052904,1657,0.21411133,-0.23614502,0.8981323
1601134052904,1658,0.2553711,-0.4265747,0.8226929
1601134052904,1659,0.3322754,-0.15289307,0.8764038
1601134052904,1660,0.21411133,-0.23614502,0.8981323
1601134052904,1661,0.24926758,-0.3748169,0.8847046
1601134052904,1662,0.3322754,-0.15289307,0.8764038
1601134052904,1663,0.33496094,-0.21636963,0.8563843
1601134052904,1664,0.18188477,-0.39019775,0.8942261
1601134052904,1665,0.33496094,-0.21636963,0.8563843
1601134052905,1666,0.18188477,-0.39019775,0.8942261
1601134052905,1667,0.26953125,-0.2600708,0.8287964
1601134052905,1668,0.21411133,-0.23614502,0.8981323
1601134052905,1669,0.2692871,-0.519104,0.78167725
1601134052905,1670,0.3322754,-0.15289307,0.8764038
1601134052905,1671,0.21411133,-0.23614502,0.8981323
1601134052910,1672,0.33496094,-0.21636963,0.8563843
1601134052910,1673,0.2553711,-0.4265747,0.8226929
1601134052910,1674,0.3322754,-0.15289307,0.8764038
1601134052910,1675,0.2692871,-0.519104,0.78167725
1601134052910,1676,0.21606445,-0.42242432,0.79193115
1601134052910,1677,0.2553711,-0.4265747,0.8226929
1601134052911,1678,0.21606445,-0.42242432,0.79193115
1601134052911,1679,0.18188477,-0.39019775,0.8942261
1601134052911,1680,0.18188477,-0.39019775,0.8942261
1601134052911,1681,0.21411133,-0.23614502,0.8981323
1601134052912,1682,0.2553711,-0.4265747,0.8226929
1601134052912,1683,0.20458984,-0.41900635,0.8410034
1601134052912,1684,0.2692871,-0.519104,0.78167725
1601134052913,1685,0.21606445,-0.42242432,0.79193115
1601134052913,1686,0.2692871,-0.519104,0.78167725
1601134052915,1687,0.2553711,-0.4265747,0.8226929
1601134052915,1688,0.3322754,-0.15289307,0.8764038
1601134052915,1689,0.20458984,-0.41900635,0.8410034
1601134052928,1690,0.2578125,-0.4968872,0.7548218
1601134052928,1691,0.20458984,-0.41900635,0.8410034
1601134052928,1692,0.18188477,-0.39019775,0.8942261
1601134052928,1693,0.21606445,-0.42242432,0.79193115
1601134052929,1694,0.2578125,-0.4968872,0.7548218
1601134052929,1695,0.2692871,-0.519104,0.78167725
1601134052929,1696,0.3322754,-0.15289307,0.8764038
1601134052929,1697,0.2578125,-0.4968872,0.7548218
1601134052929,1698,0.2290039,-0.4265747,0.8126831
1601134052929,1699,0.31347656,-0.333313,0.8512573
1601134052929,1700,0.19262695,-0.37994385,0.8991089
1601134052929,1701,0.2290039,-0.4265747,0.8126831
1601134052929,1702,0.12402344,-0.41436768,0.8776245
1601134052929,1703,0.20458984,-0.41900635,0.8410034
1601134052929,1704,0.21411133,-0.23614502,0.8981323
1601134052929,1705,0.19458008,-0.49517822,0.77801514
1601134052930,1706,0.21606445,-0.42242432,0.79193115
1601134052930,1707,0.2578125,-0.4968872,0.7548218
1601134052930,1708,0.2836914,-0.28668213,0.8283081
1601134052930,1709,0.2290039,-0.4265747,0.8126831
1601134052930,1710,0.2290039,-0.4265747,0.8126831
1601134052930,1711,0.2553711,-0.4265747,0.8226929
1601134052930,1712,0.19262695,-0.37994385,0.8991089
1601134052930,1713,0.19262695,-0.37994385,0.8991089
1601134052932,1714,0.18188477,-0.39019775,0.8942261
1601134052932,1715,0.26831055,-0.4524536,0.8546753
1601134052932,1716,0.12402344,-0.41436768,0.8776245
1601134052932,1717,0.2553711,-0.4265747,0.8226929
1601134052933,1718,0.21411133,-0.23614502,0.8981323
1601134052934,1719,0.19262695,-0.37994385,0.8991089
1601134052934,1720,0.2692871,-0.519104,0.78167725
1601134052934,1721,0.12402344,-0.41436768,0.8776245
1601134052940,1722,0.33496094,-0.21636963,0.8563843
1601134052940,1723,0.21411133,-0.23614502,0.8981323
1601134052940,1724,0.3322754,-0.15289307,0.8764038
1601134052940,1725,0.20458984,-0.41900635,0.8410034
1601134052940,1726,0.18188477,-0.39019775,0.8942261
1601134052940,1727,0.22753906,-0.3760376,0.8690796
1601134052940,1728,0.2692871,-0.519104,0.78167725
1601134052940,1729,0.16699219,-0.36236572,0.8192749
1601134052940,1730,0.12402344,-0.41436768,0.8776245
1601134052940,1731,0.21606445,-0.42242432,0.79193115
1601134052940,1732,0.2553711,-0.4265747,0.8226929
1601134052941,1733,0.20458984,-0.41900635,0.8410034
1601134052941,1734,0.21606445,-0.42242432,0.79193115
1601134052941,1735,0.18188477,-0.39019775,0.8942261
1601134052941,1736,0.19458008,-0.49517822,0.77801514
1601134052941,1737,0.2578125,-0.4968872,0.7548218
1601134052941,1738,0.26831055,-0.4524536,0.8546753
1601134052941,1739,0.19458008,-0.49517822,0.77801514
1601134052941,1740,0.2705078,-0.36602783,0.8485718
1601134052941,1741,0.2692871,-0.519104,0.78167725
1601134052941,1742,0.19458008,-0.49517822,0.77801514
1601134052941,1743,0.21411133,-0.23614502,0.8981323
1601134052941,1744,0.2578125,-0.4968872,0.7548218
1601134052941,1745,0.20458984,-0.41900635,0.8410034
1601134052959,1746,0.2553711,-0.4265747,0.8226929
1601134052959,1747,0.22753906,-0.3760376,0.8690796
1601134052959,1748,0.2290039,-0.4265747,0.8126831
1601134052959,1749,0.26831055,-0.4524536,0.8546753
1601134052960,1750,0.2290039,-0.4265747,0.8126831
1601134052960,1751,0.2578125,-0.4968872,0.7548218
1601134052960,1752,0.30273438,-0.35772705,0.87005615
1601134052960,1753,0.26831055,-0.4524536,0.8546753
1601134052960,1754,0.18188477,-0.39019775,0.8942261
1601134052960,1755,0.19262695,-0.37994385,0.8991089
1601134052960,1756,0.2290039,-0.4265747,0.8126831
1601134052960,1757,0.12402344,-0.41436768,0.8776245
1601134052961,1758,0.16699219,-0.36236572,0.8192749
1601134052961,1759,0.19262695,-0.37994385,0.8991089
1601134052961,1760,0.22753906,-0.3760376,0.8690796
1601134052961,1761,0.21606445,-0.42242432,0.79193115
1601134052961,1762,0.22753906,-0.3760376,0.8690796
1601134052961,1763,0.25756836,-0.32769775,0.82318115
1601134052961,1764,0.20458984,-0.41900635,0.8410034
1601134052961,1765,0.2692871,-0.519104,0.78167725
1601134052961,1766,0.2553711,-0.4265747,0.8226929
1601134052962,1767,0.26391602,-0.28912354,0.83929443
1601134052962,1768,0.2705078,-0.36602783,0.8485718
1601134052962,1769,0.19262695,-0.37994385,0.8991089
1601134052962,1770,0.16699219,-0.36236572,0.8192749
1601134052962,1771,0.12402344,-0.41436768,0.8776245
1601134052962,1772,0.30273438,-0.35772705,0.87005615
1601134052963,1773,0.21606445,-0.42242432,0.79193115
1601134052963,1774,0.19458008,-0.49517822,0.77801514
1601134052964,1775,0.2578125,-0.4968872,0.7548218
1601134052964,1776,0.2692871,-0.519104,0.78167725
1601134052964,1777,0.26831055,-0.4524536,0.8546753
1601134052965,1778,0.25317383,-0.333313,0.85565186
1601134052965,1779,0.2705078,-0.36602783,0.8485718
1601134052965,1780,0.12402344,-0.41436768,0.8776245
1601134052966,1781,0.16699219,-0.36236572,0.8192749
1601134052966,1782,0.19458008,-0.49517822,0.77801514
1601134052966,1783,0.19458008,-0.49517822,0.77801514
1601134052966,1784,0.2290039,-0.4265747,0.8126831
1601134052966,1785,0.26831055,-0.4524536,0.8546753
1601134052966,1786,0.20458984,-0.41900635,0.8410034
1601134052966,1787,0.22753906,-0.3760376,0.8690796
1601134052966,1788,0.22753906,-0.3760376,0.8690796
1601134052966,1789,0.2578125,-0.4968872,0.7548218
1601134052967,1790,0.2434082,-0.32965088,0.8727417
1601134052967,1791,0.2290039,-0.4265747,0.8126831
1601134052967,1792,0.2705078,-0.36602783,0.8485718
1601134052967,1793,0.21606445,-0.42242432,0.79193115
1601134052967,1794,0.19262695,-0.37994385,0.8991089
1601134052967,1795,0.25756836,-0.32769775,0.82318115
1601134052967,1796,0.30273438,-0.35772705,0.87005615
1601134052967,1797,0.26831055,-0.4524536,0.8546753
1601134052967,1798,0.16699219,-0.36236572,0.8192749
1601134052968,1799,0.12402344,-0.41436768,0.8776245
1601134052968,1800,0.30273438,-0.35772705,0.87005615
1601134052968,1801,0.22753906,-0.3760376,0.8690796
1601134052968,1802,0.20458984,-0.41900635,0.8410034
1601134052969,1803,0.16699219,-0.36236572,0.8192749
1601134052969,1804,0.2705078,-0.36602783,0.8485718
1601134052969,1805,0.19458008,-0.49517822,0.77801514
1601134052974,1806,0.26391602,-0.28912354,0.83929443
1601134052974,1807,0.16699219,-0.36236572,0.8192749
1601134052974,1808,0.19262695,-0.37994385,0.8991089
1601134052974,1809,0.25317383,-0.333313,0.85565186
1601134052974,1810,0.2705078,-0.36602783,0.8485718
1601134052974,1811,0.24584961,-0.33380127,0.89520264
1601134052975,1812,0.2434082,-0.32965088,0.8727417
1601134052975,1813,0.2006836,-0.32208252,0.8746948
1601134052975,1814,0.30273438,-0.35772705,0.87005615
1601134052975,1815,0.24584961,-0.33380127,0.89520264
1601134052975,1816,0.26831055,-0.4524536,0.8546753
1601134052975,1817,0.1887207,-0.46368408,0.9176636
1601134052975,1818,0.25756836,-0.32769775,0.82318115
1601134052975,1819,0.2006836,-0.32208252,0.8746948
1601134052975,1820,0.25756836,-0.32769775,0.82318115
1601134052982,1821,0.12402344,-0.41436768,0.8776245
1601134052983,1822,0.25756836,-0.32769775,0.82318115
1601134052983,1823,0.2578125,-0.4968872,0.7548218
1601134052983,1824,0.19458008,-0.49517822,0.77801514
1601134052983,1825,0.2705078,-0.36602783,0.8485718
1601134052983,1826,0.26391602,-0.28912354,0.83929443
1601134052983,1827,0.26831055,-0.4524536,0.8546753
1601134052983,1828,0.1887207,-0.46368408,0.9176636
1601134052983,1829,0.22753906,-0.3760376,0.8690796
1601134052983,1830,0.26391602,-0.28912354,0.83929443
1601134052983,1831,0.16699219,-0.36236572,0.8192749
1601134052983,1832,0.25,-0.32305908,0.99261475
1601134052983,1833,0.30273438,-0.35772705,0.87005615
1601134052984,1834,0.25,-0.32305908,0.99261475
1601134052984,1835,0.22753906,-0.3760376,0.8690796
1601134052984,1836,0.2290039,-0.4265747,0.8126831
1601134052984,1837,0.30273438,-0.35772705,0.87005615
1601134052984,1838,0.25317383,-0.333313,0.85565186
1601134052984,1839,0.16699219,-0.36236572,0.8192749
1601134052984,1840,0.25317383,-0.333313,0.85565186
1601134052985,1841,0.27514648,-0.089660645,0.8348999
1601134052985,1842,0.25756836,-0.32769775,0.82318115
1601134052987,1843,0.19262695,-0.37994385,0.8991089
1601134052987,1844,0.25756836,-0.32769775,0.82318115
1601134052993,1845,0.2434082,-0.32965088,0.8727417
1601134052993,1846,0.12402344,-0.41436768,0.8776245
1601134052993,1847,0.2705078,-0.36602783,0.8485718
1601134052993,1848,0.26391602,-0.28912354,0.83929443
1601134052993,1849,0.27514648,-0.089660645,0.8348999
1601134052993,1850,0.25317383,-0.333313,0.85565186
1601134052993,1851,0.30273438,-0.35772705,0.87005615
1601134052993,1852,0.2434082,-0.32965088,0.8727417
1601134052994,1853,0.25756836,-0.32769775,0.82318115
1601134052994,1854,0.2434082,-0.32965088,0.8727417
1601134052994,1855,0.19458008,-0.49517822,0.77801514
1601134052994,1856,0.26391602,-0.28912354,0.83929443
1601134052996,1857,0.24584961,-0.33380127,0.89520264
1601134053002,1858,0.24584961,-0.33380127,0.89520264
1601134053002,1859,0.25317383,-0.333313,0.85565186
1601134053002,1860,0.2705078,-0.36602783,0.8485718
1601134053002,1861,0.2434082,-0.32965088,0.8727417
1601134053002,1862,0.26391602,-0.28912354,0.83929443
1601134053002,1863,0.26391602,-0.28912354,0.83929443
1601134053003,1864,0.24584961,-0.33380127,0.89520264
1601134053003,1865,0.2006836,-0.32208252,0.8746948
1601134053003,1866,0.24584961,-0.33380127,0.89520264
1601134053003,1867,0.2006836,-0.32208252,0.8746948
1601134053003,1868,0.1887207,-0.46368408,0.9176636
1601134053003,1869,0.30273438,-0.35772705,0.87005615
1601134053003,1870,0.25317383,-0.333313,0.85565186
1601134053003,1871,0.25317383,-0.333313,0.85565186
1601134053003,1872,0.25,-0.32305908,0.99261475
1601134053011,1873,0.27514648,-0.089660645,0.8348999
1601134053011,1874,0.26831055,-0.4524536,0.8546753
1601134053012,1875,0.2006836,-0.32208252,0.8746948
1601134053012,1876,0.2434082,-0.32965088,0.8727417
1601134053012,1877,0.22753906,-0.3760376,0.8690796
1601134053012,1878,0.25756836,-0.32769775,0.82318115
1601134053012,1879,0.2006836,-0.32208252,0.8746948
1601134053012,1880,0.1887207,-0.46368408,0.9176636
1601134053012,1881,0.24584961,-0.33380127,0.89520264
1601134053012,1882,0.16699219,-0.36236572,0.8192749
1601134053012,1883,0.1887207,-0.46368408,0.9176636
1601134053013,1884,0.2006836,-0.32208252,0.8746948
1601134053013,1885,0.1887207,-0.46368408,0.9176636
1601134053013,1886,0.26391602,-0.28912354,0.83929443
1601134053013,1887,0.2705078,-0.36602783,0.8485718
1601134053013,1888,0.25,-0.32305908,0.99261475
1601134053013,1889,0.2434082,-0.32965088,0.8727417
1601134053013,1890,0.1887207,-0.46368408,0.9176636
1601134053013,1891,0.30273438,-0.35772705,0.87005615
1601134053013,1892,0.25,-0.32305908,0.99261475
1601134053014,1893,0.25,-0.32305908,0.99261475
1601134053014,1894,0.25756836,-0.32769775,0.82318115
1601134053014,1895,0.27514648,-0.089660645,0.8348999
1601134053014,1896,0.24584961,-0.33380127,0.89520264
1601134053014,1897,0.27514648,-0.089660645,0.8348999
1601134053014,1898,0.25317383,-0.333313,0.85565186
1601134053020,1899,0.26391602,-0.28912354,0.83929443
1601134053021,1900,0.2434082,-0.32965088,0.8727417
1601134053021,1901,0.2006836,-0.32208252,0.8746948
1601134053021,1902,0.27514648,-0.089660645,0.8348999
1601134053021,1903,0.25,-0.32305908,0.99261475
1601134053021,1904,0.25317383,-0.333313,0.85565186
1601134053021,1905,0.27514648,-0.089660645,0.8348999
1601134053022,1906,0.24584961,-0.33380127,0.89520264
1601134053023,1907,0.2434082,-0.32965088,0.8727417
1601134053023,1908,0.1887207,-0.46368408,0.9176636
1601134053023,1909,0.2006836,-0.32208252,0.8746948
1601134053025,1910,0.24584961,-0.33380127,0.89520264
1601134053025,1911,0.1887207,-0.46368408,0.9176636
1601134053025,1912,0.25,-0.32305908,0.99261475
1601134053026,1913,0.2006836,-0.32208252,0.8746948
1601134053028,1914,0.27514648,-0.089660645,0.8348999
1601134053028,1915,0.25,-0.32305908,0.99261475
1601134053029,1916,0.1887207,-0.46368408,0.9176636
1601134053031,1917,0.27514648,-0.089660645,0.8348999
1601134053031,1918,0.25,-0.32305908,0.99261475
1601134053032,1919,0.27514648,-0.089660645,0.8348999
1601134055438,1920,0.2841797,-0.21466064,0.67523193
1601134055438,1921,0.2841797,-0.21466064,0.67523193
1601134055439,1922,0.2841797,-0.21466064,0.67523193
1601134055439,1923,0.2841797,-0.21466064,0.67523193
1601134055439,1924,0.328125,-0.26055908,0.7731323
1601134055439,1925,0.328125,-0.26055908,0.7731323
1601134055439,1926,0.2841797,-0.21466064,0.67523193
1601134055450,1927,0.328125,-0.26055908,0.7731323
1601134055451,1928,0.2841797,-0.21466064,0.67523193
1601134055451,1929,0.328125,-0.26055908,0.7731323
1601134055451,1930,0.2841797,-0.21466064,0.67523193
1601134055451,1931,0.2841797,-0.21466064,0.67523193
1601134055452,1932,0.3083496,-0.29400635,0.9008179
1601134055452,1933,0.328125,-0.26055908,0.7731323
1601134055461,1934,0.3083496,-0.29400635,0.9008179
1601134055462,1935,0.328125,-0.26055908,0.7731323
1601134055462,1936,0.3083496,-0.29400635,0.9008179
1601134055462,1937,0.2841797,-0.21466064,0.67523193
1601134055462,1938,0.2841797,-0.21466064,0.67523193
1601134055463,1939,0.3083496,-0.29400635,0.9008179
1601134055463,1940,0.3083496,-0.29400635,0.9008179
1601134055463,1941,0.3083496,-0.29400635,0.9008179
1601134055463,1942,0.24804688,-0.35040283,0.9730835
1601134055465,1943,0.24804688,-0.35040283,0.9730835
1601134055470,1944,0.24804688,-0.35040283,0.9730835
1601134055471,1945,0.328125,-0.26055908,0.7731323
1601134055471,1946,0.28588867,-0.6289673,0.8082886
1601134055471,1947,0.328125,-0.26055908,0.7731323
1601134055471,1948,0.328125,-0.26055908,0.7731323
1601134055471,1949,0.24804688,-0.35040283,0.9730835
1601134055471,1950,0.24804688,-0.35040283,0.9730835
1601134055472,1951,0.3083496,-0.29400635,0.9008179
1601134055472,1952,0.328125,-0.26055908,0.7731323
1601134055477,1953,0.28588867,-0.6289673,0.8082886
1601134055478,1954,0.24804688,-0.35040283,0.9730835
1601134055478,1955,0.3083496,-0.29400635,0.9008179
1601134055478,1956,0.23144531,-0.46124268,0.7567749
1601134055479,1957,0.3083496,-0.29400635,0.9008179
1601134055479,1958,0.28588867,-0.6289673,0.8082886
1601134055480,1959,0.28588867,-0.6289673,0.8082886
1601134055480,1960,0.24804688,-0.35040283,0.9730835
1601134055480,1961,0.3083496,-0.29400635,0.9008179
1601134055480,1962,0.28588867,-0.6289673,0.8082886
1601134055482,1963,0.24804688,-0.35040283,0.9730835
1601134055482,1964,0.28588867,-0.6289673,0.8082886
1601134055482,1965,0.24804688,-0.35040283,0.9730835
1601134055483,1966,0.26293945,-0.25177002,0.795105
1601134055483,1967,0.28588867,-0.6289673,0.8082886
1601134055483,1968,0.23144531,-0.46124268,0.7567749
1601134055483,1969,0.23144531,-0.46124268,0.7567749
1601134055483,1970,0.24804688,-0.35040283,0.9730835
1601134055483,1971,0.23144531,-0.46124268,0.7567749
1601134055484,1972,0.28588867,-0.6289673,0.8082886
1601134055485,1973,0.28588867,-0.6289673,0.8082886
1601134055495,1974,0.23144531,-0.46124268,0.7567749
1601134055495,1975,0.26293945,-0.25177002,0.795105
1601134055495,1976,0.27685547,-0.29058838,0.807312
1601134055495,1977,0.26293945,-0.25177002,0.795105
1601134055495,1978,0.26293945,-0.25177002,0.795105
1601134055495,1979,0.27685547,-0.29058838,0.807312
1601134055495,1980,0.23144531,-0.46124268,0.7567749
1601134055495,1981,0.23144531,-0.46124268,0.7567749
1601134055496,1982,0.23144531,-0.46124268,0.7567749
1601134055497,1983,0.23144531,-0.46124268,0.7567749
1601134055497,1984,0.26293945,-0.25177002,0.795105
1601134055497,1985,0.28588867,-0.6289673,0.8082886
1601134055498,1986,0.32080078,-0.49224854,0.7994995
1601134055500,1987,0.27685547,-0.29058838,0.807312
1601134055500,1988,0.23144531,-0.46124268,0.7567749
1601134055500,1989,0.32080078,-0.49224854,0.7994995
1601134055500,1990,0.26293945,-0.25177002,0.795105
1601134055500,1991,0.27685547,-0.29058838,0.807312
1601134055513,1992,0.26293945,-0.25177002,0.795105
1601134055513,1993,0.27685547,-0.29058838,0.807312
1601134055514,1994,0.26293945,-0.25177002,0.795105
1601134055514,1995,0.26293945,-0.15582275,0.8414917
1601134055515,1996,0.32080078,-0.49224854,0.7994995
1601134055515,1997,0.26293945,-0.25177002,0.795105
1601134055515,1998,0.26293945,-0.15582275,0.8414917
1601134055515,1999,0.26293945,-0.15582275,0.8414917
1601134055515,2000,0.19628906,-0.31573486,0.90740967
1601134055515,2001,0.32080078,-0.49224854,0.7994995
1601134055515,2002,0.19628906,-0.31573486,0.90740967
1601134055519,2003,0.27685547,-0.29058838,0.807312
1601134055519,2004,0.26293945,-0.15582275,0.8414917
1601134055519,2005,0.26708984,-0.18707275,0.92889404
1601134055519,2006,0.19628906,-0.31573486,0.90740967
1601134055519,2007,0.26293945,-0.25177002,0.795105
1601134055520,2008,0.27685547,-0.29058838,0.807312
1601134055520,2009,0.27685547,-0.29058838,0.807312
1601134055520,2010,0.32080078,-0.49224854,0.7994995
1601134055520,2011,0.27685547,-0.29058838,0.807312
1601134055520,2012,0.19628906,-0.31573486,0.90740967
1601134055520,2013,0.32080078,-0.49224854,0.7994995
1601134055520,2014,0.26708984,-0.18707275,0.92889404
1601134055520,2015,0.26293945,-0.15582275,0.8414917
1601134055520,2016,0.19628906,-0.31573486,0.90740967
1601134055520,2017,0.29296875,-0.28204346,0.84906006
1601134055520,2018,0.27685547,-0.29058838,0.807312
1601134055520,2019,0.25170898,-0.28936768,0.86517334
1601134055520,2020,0.32080078,-0.49224854,0.7994995
1601134055520,2021,0.29296875,-0.28204346,0.84906006
1601134055521,2022,0.26293945,-0.15582275,0.8414917
1601134055521,2023,0.26293945,-0.15582275,0.8414917
1601134055521,2024,0.32080078,-0.49224854,0.7994995
1601134055526,2025,0.26708984,-0.18707275,0.92889404
1601134055526,2026,0.32080078,-0.49224854,0.7994995
1601134055526,2027,0.26660156,-0.3110962,0.9032593
1601134055526,2028,0.26708984,-0.18707275,0.92889404
1601134055526,2029,0.26293945,-0.15582275,0.8414917
1601134055526,2030,0.32080078,-0.49224854,0.7994995
1601134055526,2031,0.19628906,-0.31573486,0.90740967
1601134055526,2032,0.29296875,-0.28204346,0.84906006
1601134055526,2033,0.26708984,-0.18707275,0.92889404
1601134055527,2034,0.26293945,-0.15582275,0.8414917
1601134055527,2035,0.25170898,-0.28936768,0.86517334
1601134055528,2036,0.25170898,-0.28936768,0.86517334
1601134055528,2037,0.19628906,-0.31573486,0.90740967
1601134055528,2038,0.26660156,-0.3110962,0.9032593
1601134055528,2039,0.19628906,-0.31573486,0.90740967
1601134055528,2040,0.26293945,-0.15582275,0.8414917
1601134055528,2041,0.26708984,-0.18707275,0.92889404
1601134055542,2042,0.29296875,-0.28204346,0.84906006
1601134055542,2043,0.19628906,-0.31573486,0.90740967
1601134055542,2044,0.26660156,-0.3110962,0.9032593
1601134055542,2045,0.27685547,-0.35455322,0.8656616
1601134055542,2046,0.27685547,-0.35455322,0.8656616
1601134055542,2047,0.26708984,-0.18707275,0.92889404
1601134055542,2048,0.25170898,-0.28936768,0.86517334
1601134055543,2049,0.19628906,-0.31573486,0.90740967
1601134055543,2050,0.23779297,-0.35186768,0.81658936
1601134055543,2051,0.29296875,-0.28204346,0.84906006
1601134055543,2052,0.25854492,-0.3574829,0.8143921
1601134055543,2053,0.26708984,-0.18707275,0.92889404
1601134055543,2054,0.27026367,-0.30108643,0.84906006
1601134055543,2055,0.27685547,-0.35455322,0.8656616
1601134055543,2056,0.23779297,-0.35186768,0.81658936
1601134055543,2057,0.25170898,-0.28936768,0.86517334
1601134055543,2058,0.29296875,-0.28204346,0.84906006
1601134055543,2059,0.26660156,-0.3110962,0.9032593
1601134055544,2060,0.23779297,-0.35186768,0.81658936
1601134055544,2061,0.25854492,-0.3574829,0.8143921
1601134055544,2062,0.26708984,-0.18707275,0.92889404
1601134055545,2063,0.25854492,-0.3574829,0.8143921
1601134055546,2064,0.29296875,-0.28204346,0.84906006
1601134055546,2065,0.29296875,-0.28204346,0.84906006
1601134055546,2066,0.27026367,-0.30108643,0.84906006
1601134055546,2067,0.25170898,-0.28936768,0.86517334
1601134055546,2068,0.25170898,-0.28936768,0.86517334
1601134055546,2069,0.25170898,-0.28936768,0.86517334
1601134055546,2070,0.34643555,-0.38482666,0.87957764
1601134055546,2071,0.27026367,-0.30108643,0.84906006
1601134055550,2072,0.29296875,-0.28204346,0.84906006
1601134055550,2073,0.26708984,-0.18707275,0.92889404
1601134055550,2074,0.26660156,-0.3110962,0.9032593
1601134055569,2075,0.34643555,-0.38482666,0.87957764
1601134055569,2076,0.27685547,-0.35455322,0.8656616
1601134055570,2077,0.2685547,-0.32037354,0.8500366
1601134055570,2078,0.26660156,-0.3110962,0.9032593
1601134055570,2079,0.1796875,-0.3262329,0.81707764
1601134055570,2080,0.2685547,-0.32037354,0.8500366
1601134055570,2081,0.16796875,-0.45684814,0.8324585
1601134055570,2082,0.26660156,-0.3110962,0.9032593
1601134055570,2083,0.25170898,-0.28936768,0.86517334
1601134055571,2084,0.27685547,-0.35455322,0.8656616
1601134055572,2085,0.26660156,-0.3110962,0.9032593
1601134055572,2086,0.23779297,-0.35186768,0.81658936
1601134055572,2087,0.27685547,-0.35455322,0.8656616
1601134055572,2088,0.29296875,-0.28204346,0.84906006
1601134055572,2089,0.1796875,-0.3262329,0.81707764
1601134055572,2090,0.25170898,-0.28936768,0.86517334
1601134055572,2091,0.26660156,-0.3110962,0.9032593
1601134055572,2092,0.25854492,-0.3574829,0.8143921
1601134055573,2093,0.16796875,-0.45684814,0.8324585
1601134055573,2094,0.27685547,-0.35455322,0.8656616
1601134055573,2095,0.2241211,-0.46661377,0.8019409
1601134055573,2096,0.27685547,-0.35455322,0.8656616
1601134055573,2097,0.23779297,-0.35186768,0.81658936
1601134055573,2098,0.23779297,-0.35186768,0.81658936
1601134055573,2099,0.34643555,-0.38482666,0.87957764
1601134055573,2100,0.26660156,-0.3110962,0.9032593
1601134055573,2101,0.25854492,-0.3574829,0.8143921
1601134055573,2102,0.23779297,-0.35186768,0.81658936
1601134055573,2103,0.27026367,-0.30108643,0.84906006
1601134055573,2104,0.27026367,-0.30108643,0.84906006
1601134055573,2105,0.27685547,-0.35455322,0.8656616
1601134055573,2106,0.25854492,-0.3574829,0.8143921
1601134055573,2107,0.34643555,-0.38482666,0.87957764
1601134055573,2108,0.27685547,-0.35455322,0.8656616
1601134055574,2109,0.2685547,-0.32037354,0.8500366
1601134055574,2110,0.2241211,-0.46661377,0.8019409
1601134055574,2111,0.1796875,-0.3262329,0.81707764
1601134055574,2112,0.34643555,-0.38482666,0.87957764
1601134055574,2113,0.19067383,-0.3772583,0.89056396
1601134055574,2114,0.16796875,-0.45684814,0.8324585
1601134055574,2115,0.27026367,-0.30108643,0.84906006
1601134055574,2116,0.23779297,-0.35186768,0.81658936
1601134055574,2117,0.25854492,-0.3574829,0.8143921
1601134055574,2118,0.2685547,-0.32037354,0.8500366
1601134055574,2119,0.19067383,-0.3772583,0.89056396
1601134055574,2120,0.23779297,-0.35186768,0.81658936
1601134055574,2121,0.23779297,-0.35186768,0.81658936
1601134055574,2122,0.34643555,-0.38482666,0.87957764
1601134055574,2123,0.2685547,-0.32037354,0.8500366
1601134055574,2124,0.2241211,-0.46661377,0.8019409
1601134055575,2125,0.1796875,-0.3262329,0.81707764
1601134055575,2126,0.19946289,-0.38824463,0.7579956
1601134055585,2127,0.27026367,-0.30108643,0.84906006
1601134055585,2128,0.25854492,-0.3574829,0.8143921
1601134055585,2129,0.25854492,-0.3574829,0.8143921
1601134055585,2130,0.16796875,-0.45684814,0.8324585
1601134055585,2131,0.1796875,-0.3262329,0.81707764
1601134055586,2132,0.2241211,-0.46661377,0.8019409
1601134055586,2133,0.13549805,-0.52545166,0.9384155
1601134055586,2134,0.25854492,-0.3574829,0.8143921
1601134055586,2135,0.19067383,-0.3772583,0.89056396
1601134055586,2136,0.27026367,-0.30108643,0.84906006
1601134055586,2137,0.34643555,-0.38482666,0.87957764
1601134055586,2138,0.2685547,-0.32037354,0.8500366
1601134055586,2139,0.19946289,-0.38824463,0.7579956
1601134055586,2140,0.27026367,-0.30108643,0.84906006
1601134055586,2141,0.16796875,-0.45684814,0.8324585
1601134055586,2142,0.34643555,-0.38482666,0.87957764
1601134055587,2143,0.19067383,-0.3772583,0.89056396
1601134055588,2144,0.21533203,-0.4727173,0.68084717
1601134055588,2145,0.2685547,-0.32037354,0.8500366
1601134055588,2146,0.27026367,-0.30108643,0.84906006
1601134055588,2147,0.13549805,-0.52545166,0.9384155
1601134055588,2148,0.19946289,-0.38824463,0.7579956
1601134055588,2149,0.34643555,-0.38482666,0.87957764
1601134055588,2150,0.1796875,-0.3262329,0.81707764
1601134055588,2151,0.2241211,-0.46661377,0.8019409
1601134055588,2152,0.2685547,-0.32037354,0.8500366
1601134055588,2153,0.13330078,-0.71881104,0.7658081
1601134055589,2154,0.19946289,-0.38824463,0.7579956
1601134055589,2155,0.13549805,-0.52545166,0.9384155
1601134055604,2156,0.2685547,-0.32037354,0.8500366
1601134055604,2157,0.16796875,-0.45684814,0.8324585
1601134055604,2158,0.1796875,-0.3262329,0.81707764
1601134055604,2159,0.15332031,-0.41412354,0.8473511
1601134055605,2160,0.1796875,-0.3262329,0.81707764
1601134055605,2161,0.34643555,-0.38482666,0.87957764
1601134055605,2162,0.16796875,-0.45684814,0.8324585
1601134055605,2163,0.13549805,-0.52545166,0.9384155
1601134055605,2164,0.14794922,-0.44952393,0.8617554
1601134055605,2165,0.2685547,-0.32037354,0.8500366
1601134055605,2166,0.21533203,-0.4727173,0.68084717
1601134055605,2167,0.2241211,-0.46661377,0.8019409
1601134055605,2168,0.13330078,-0.71881104,0.7658081
1601134055605,2169,0.15185547,-0.47979736,0.8275757
1601134055605,2170,0.1796875,-0.3262329,0.81707764
1601134055606,2171,0.21533203,-0.4727173,0.68084717
1601134055606,2172,0.21533203,-0.4727173,0.68084717
1601134055606,2173,0.16796875,-0.45684814,0.8324585
1601134055606,2174,0.13330078,-0.71881104,0.7658081
1601134055606,2175,0.15332031,-0.41412354,0.8473511
1601134055606,2176,0.19067383,-0.3772583,0.89056396
1601134055606,2177,0.14794922,-0.44952393,0.8617554
1601134055606,2178,0.15185547,-0.47979736,0.8275757
1601134055607,2179,0.15332031,-0.41412354,0.8473511
1601134055607,2180,0.1796875,-0.3262329,0.81707764
1601134055607,2181,0.2241211,-0.46661377,0.8019409
1601134055607,2182,0.2241211,-0.46661377,0.8019409
1601134055607,2183,0.16796875,-0.45684814,0.8324585
1601134055607,2184,0.19946289,-0.38824463,0.7579956
1601134055607,2185,0.13330078,-0.71881104,0.7658081
1601134055608,2186,0.13549805,-0.52545166,0.9384155
1601134055608,2187,0.19067383,-0.3772583,0.89056396
1601134055608,2188,0.16796875,-0.45684814,0.8324585
1601134055608,2189,0.19946289,-0.38824463,0.7579956
1601134055609,2190,0.2241211,-0.46661377,0.8019409
1601134055609,2191,0.19067383,-0.3772583,0.89056396
1601134055611,2192,0.19946289,-0.38824463,0.7579956
1601134055611,2193,0.14794922,-0.44952393,0.8617554
1601134055611,2194,0.19067383,-0.3772583,0.89056396
1601134055611,2195,0.19067383,-0.3772583,0.89056396
1601134055611,2196,0.2241211,-0.46661377,0.8019409
1601134055611,2197,0.13549805,-0.52545166,0.9384155
1601134055611,2198,0.21533203,-0.4727173,0.68084717
1601134055611,2199,0.19946289,-0.38824463,0.7579956
1601134055614,2200,0.21533203,-0.4727173,0.68084717
1601134055615,2201,0.13549805,-0.52545166,0.9384155
1601134055615,2202,0.19946289,-0.38824463,0.7579956
1601134055615,2203,0.19067383,-0.3772583,0.89056396
1601134055615,2204,0.13330078,-0.71881104,0.7658081
1601134055616,2205,0.13549805,-0.52545166,0.9384155
1601134055616,2206,0.19946289,-0.38824463,0.7579956
1601134055616,2207,0.15332031,-0.41412354,0.8473511
1601134055616,2208,0.15332031,-0.41412354,0.8473511
1601134055616,2209,0.13549805,-0.52545166,0.9384155
1601134055620,2210,0.13330078,-0.71881104,0.7658081
1601134055620,2211,0.15185547,-0.47979736,0.8275757
1601134055620,2212,0.13549805,-0.52545166,0.9384155
1601134055620,2213,0.14794922,-0.44952393,0.8617554
1601134055620,2214,0.15332031,-0.41412354,0.8473511
1601134055621,2215,0.21533203,-0.4727173,0.68084717
1601134055621,2216,0.14794922,-0.44952393,0.8617554
1601134055621,2217,0.13330078,-0.71881104,0.7658081
1601134055624,2218,0.21533203,-0.4727173,0.68084717
1601134055624,2219,0.21533203,-0.4727173,0.68084717
1601134055624,2220,0.13330078,-0.71881104,0.7658081
1601134055625,2221,0.21533203,-0.4727173,0.68084717
1601134055625,2222,0.14794922,-0.44952393,0.8617554
1601134055625,2223,0.15332031,-0.41412354,0.8473511
1601134055625,2224,0.15185547,-0.47979736,0.8275757
1601134055632,2225,0.15185547,-0.47979736,0.8275757
1601134055632,2226,0.13330078,-0.71881104,0.7658081
1601134055633,2227,0.15332031,-0.41412354,0.8473511
1601134055633,2228,0.13330078,-0.71881104,0.7658081
1601134055633,2229,0.15185547,-0.47979736,0.8275757
1601134055633,2230,0.14794922,-0.44952393,0.8617554
1601134055633,2231,0.15332031,-0.41412354,0.8473511
1601134055633,2232,0.15332031,-0.41412354,0.8473511
1601134055633,2233,0.14794922,-0.44952393,0.8617554
1601134055639,2234,0.14794922,-0.44952393,0.8617554
1601134055639,2235,0.15185547,-0.47979736,0.8275757
1601134055639,2236,0.15185547,-0.47979736,0.8275757
1601134055639,2237,0.15185547,-0.47979736,0.8275757
1601134055640,2238,0.14794922,-0.44952393,0.8617554
1601134055640,2239,0.15185547,-0.47979736,0.8275757
1601134057969,2240,0.15625,-0.43951416,0.80926514
1601134057971,2241,0.15625,-0.43951416,0.80926514
1601134057971,2242,0.15625,-0.43951416,0.80926514
1601134057971,2243,0.15625,-0.43951416,0.80926514
1601134057971,2244,0.15625,-0.43951416,0.80926514
1601134057971,2245,0.15063477,-0.46002197,0.8451538
1601134057971,2246,0.15625,-0.43951416,0.80926514
1601134057972,2247,0.15625,-0.43951416,0.80926514
1601134057972,2248,0.15063477,-0.46002197,0.8451538
1601134057972,2249,0.15625,-0.43951416,0.80926514
1601134057972,2250,0.15136719,-0.5112915,0.8517456
1601134057972,2251,0.15063477,-0.46002197,0.8451538
1601134057974,2252,0.15625,-0.43951416,0.80926514
1601134057974,2253,0.15063477,-0.46002197,0.8451538
1601134057974,2254,0.15063477,-0.46002197,0.8451538
1601134057974,2255,0.15063477,-0.46002197,0.8451538
1601134057974,2256,0.15063477,-0.46002197,0.8451538
1601134057974,2257,0.15063477,-0.46002197,0.8451538
1601134057996,2258,0.15625,-0.43951416,0.80926514
1601134057996,2259,0.15136719,-0.5112915,0.8517456
1601134057996,2260,0.15063477,-0.46002197,0.8451538
1601134057996,2261,0.15063477,-0.46002197,0.8451538
1601134057996,2262,0.16894531,-0.54107666,0.791687
1601134057996,2263,0.15136719,-0.5112915,0.8517456
1601134057996,2264,0.15136719,-0.5112915,0.8517456
1601134057996,2265,0.15136719,-0.5112915,0.8517456
1601134057997,2266,0.16894531,-0.54107666,0.791687
1601134057997,2267,0.15136719,-0.5112915,0.8517456
1601134057997,2268,0.15136719,-0.5112915,0.8517456
1601134057997,2269,0.15136719,-0.5112915,0.8517456
1601134057997,2270,0.16894531,-0.54107666,0.791687
1601134057997,2271,0.15136719,-0.5112915,0.8517456
1601134057997,2272,0.12231445,-0.43634033,0.8126831
1601134057997,2273,0.16894531,-0.54107666,0.791687
1601134057997,2274,0.16894531,-0.54107666,0.791687
1601134057998,2275,0.16894531,-0.54107666,0.791687
1601134057998,2276,0.16894531,-0.54107666,0.791687
1601134057998,2277,0.16894531,-0.54107666,0.791687
1601134057998,2278,0.12231445,-0.43634033,0.8126831
1601134057998,2279,0.15136719,-0.5112915,0.8517456
1601134057998,2280,0.12231445,-0.43634033,0.8126831
1601134057998,2281,0.12231445,-0.43634033,0.8126831
1601134057999,2282,0.16894531,-0.54107666,0.791687
1601134057999,2283,0.17138672,-0.4006958,0.8251343
1601134057999,2284,0.12231445,-0.43634033,0.8126831
1601134057999,2285,0.12231445,-0.43634033,0.8126831
1601134057999,2286,0.17138672,-0.4006958,0.8251343
1601134057999,2287,0.12231445,-0.43634033,0.8126831
1601134058000,2288,0.17138672,-0.4006958,0.8251343
1601134058000,2289,0.17138672,-0.4006958,0.8251343
1601134058000,2290,0.12231445,-0.43634033,0.8126831
1601134058020,2291,0.17138672,-0.4006958,0.8251343
1601134058020,2292,0.12231445,-0.43634033,0.8126831
1601134058020,2293,0.19067383,-0.39019775,0.87957764
1601134058020,2294,0.17138672,-0.4006958,0.8251343
1601134058020,2295,0.16894531,-0.54107666,0.791687
1601134058020,2296,0.19067383,-0.39019775,0.87957764
1601134058021,2297,0.17138672,-0.4006958,0.8251343
1601134058021,2298,0.19067383,-0.39019775,0.87957764
1601134058022,2299,0.19067383,-0.39019775,0.87957764
1601134058022,2300,0.12231445,-0.43634033,0.8126831
1601134058022,2301,0.19067383,-0.39019775,0.87957764
1601134058022,2302,0.19067383,-0.39019775,0.87957764
1601134058022,2303,0.19677734,-0.4290161,0.8878784
1601134058022,2304,0.19677734,-0.4290161,0.8878784
1601134058022,2305,0.19067383,-0.39019775,0.87957764
1601134058022,2306,0.17138672,-0.4006958,0.8251343
1601134058022,2307,0.16967773,-0.47930908,0.80267334
1601134058023,2308,0.17138672,-0.4006958,0.8251343
1601134058023,2309,0.17138672,-0.4006958,0.8251343
1601134058023,2310,0.16967773,-0.47930908,0.80267334
1601134058023,2311,0.19677734,-0.4290161,0.8878784
1601134058023,2312,0.19677734,-0.4290161,0.8878784
1601134058023,2313,0.19677734,-0.4290161,0.8878784
1601134058023,2314,0.1550293,-0.548645,0.74823
1601134058023,2315,0.16967773,-0.47930908,0.80267334
1601134058024,2316,0.19677734,-0.4290161,0.8878784
1601134058024,2317,0.1550293,-0.548645,0.74823
1601134058024,2318,0.19067383,-0.39019775,0.87957764
1601134058024,2319,0.20581055,-0.42926025,0.8463745
1601134058024,2320,0.16967773,-0.47930908,0.80267334
1601134058024,2321,0.19067383,-0.39019775,0.87957764
1601134058026,2322,0.16967773,-0.47930908,0.80267334
1601134058026,2323,0.20581055,-0.42926025,0.8463745
1601134058026,2324,0.19677734,-0.4290161,0.8878784
1601134058026,2325,0.1550293,-0.548645,0.74823
1601134058027,2326,0.19677734,-0.4290161,0.8878784
1601134058027,2327,0.16967773,-0.47930908,0.80267334
1601134058027,2328,0.16967773,-0.47930908,0.80267334
