# Sensor position: Wrist
# Sensor side: Left
# Activity type: Sitting bent backward
# Activity code: 5
# Subject id: s1735229
timestamp,seq,accel_x,accel_y,accel_z
1601135460787,0,-0.29052734,0.57928467,0.7518921
1601135460787,1,-0.29052734,0.57928467,0.7518921
1601135460788,2,-0.29052734,0.57928467,0.7518921
1601135460791,3,-0.29052734,0.57928467,0.7518921
1601135460794,4,-0.29052734,0.57928467,0.7518921
1601135460795,5,-0.29052734,0.57928467,0.7518921
1601135460795,6,-0.25268555,0.66571045,0.7255249
1601135460796,7,-0.29052734,0.57928467,0.7518921
1601135460797,8,-0.25268555,0.66571045,0.7255249
1601135460809,9,-0.29052734,0.57928467,0.7518921
1601135460811,10,-0.19262695,0.67718506,0.6132202
1601135460811,11,-0.25268555,0.66571045,0.7255249
1601135460811,12,-0.29052734,0.57928467,0.7518921
1601135460811,13,-0.25268555,0.66571045,0.7255249
1601135460811,14,-0.29052734,0.57928467,0.7518921
1601135460811,15,-0.25268555,0.66571045,0.7255249
1601135460811,16,-0.25268555,0.66571045,0.7255249
1601135460811,17,-0.25268555,0.66571045,0.7255249
1601135460811,18,-0.19262695,0.67718506,0.6132202
1601135460812,19,-0.19262695,0.67718506,0.6132202
1601135460812,20,-0.19262695,0.67718506,0.6132202
1601135460812,21,-0.07397461,0.61468506,0.5709839
1601135460812,22,-0.25268555,0.66571045,0.7255249
1601135460812,23,-0.19262695,0.67718506,0.6132202
1601135460812,24,-0.07397461,0.61468506,0.5709839
1601135460813,25,-0.19262695,0.67718506,0.6132202
1601135460813,26,-0.07397461,0.61468506,0.5709839
1601135460813,27,-0.25268555,0.66571045,0.7255249
1601135460813,28,-0.06616211,0.68084717,0.5602417
1601135460814,29,-0.19262695,0.67718506,0.6132202
1601135460814,30,-0.19262695,0.67718506,0.6132202
1601135460814,31,-0.06616211,0.68084717,0.5602417
1601135460814,32,-0.07397461,0.61468506,0.5709839
1601135460814,33,-0.07397461,0.61468506,0.5709839
1601135460817,34,-0.06616211,0.68084717,0.5602417
1601135460817,35,-0.06616211,0.68084717,0.5602417
1601135460817,36,-0.19262695,0.67718506,0.6132202
1601135460817,37,-0.07397461,0.61468506,0.5709839
1601135460818,38,0.0,0.63739014,0.5800171
1601135460818,39,-0.07397461,0.61468506,0.5709839
1601135460818,40,-0.06616211,0.68084717,0.5602417
1601135460818,41,0.13256836,0.7182007,0.5922241
1601135460818,42,0.0,0.63739014,0.5800171
1601135460818,43,0.10180664,0.5907593,0.73651123
1601135460830,44,0.0,0.63739014,0.5800171
1601135460831,45,0.0,0.63739014,0.5800171
1601135460831,46,0.13256836,0.7182007,0.5922241
1601135460832,47,-0.25268555,0.66571045,0.7255249
1601135460832,48,0.13256836,0.7182007,0.5922241
1601135460832,49,0.0,0.63739014,0.5800171
1601135460832,50,-0.06616211,0.68084717,0.5602417
1601135460832,51,0.10180664,0.5907593,0.73651123
1601135460832,52,0.0,0.63739014,0.5800171
1601135460833,53,0.13256836,0.7182007,0.5922241
1601135460833,54,0.07543945,0.5609741,0.62664795
1601135460833,55,-0.07397461,0.61468506,0.5709839
1601135460833,56,0.10180664,0.5907593,0.73651123
1601135460833,57,-0.06616211,0.68084717,0.5602417
1601135460833,58,0.10180664,0.5907593,0.73651123
1601135460834,59,-0.07397461,0.61468506,0.5709839
1601135460834,60,0.13256836,0.7182007,0.5922241
1601135460834,61,0.0,0.63739014,0.5800171
1601135460834,62,0.13256836,0.7182007,0.5922241
1601135460838,63,-0.19262695,0.67718506,0.6132202
1601135460838,64,-0.046142578,0.63494873,0.58148193
1601135460838,65,0.07543945,0.5609741,0.62664795
1601135460838,66,0.07543945,0.5609741,0.62664795
1601135460838,67,0.07543945,0.5609741,0.62664795
1601135460838,68,-0.06616211,0.68084717,0.5602417
1601135460838,69,0.10180664,0.5907593,0.73651123
1601135460838,70,-0.046142578,0.63494873,0.58148193
1601135460839,71,0.13256836,0.7182007,0.5922241
1601135460839,72,0.0,0.63739014,0.5800171
1601135460842,73,-0.052490234,0.60980225,0.58026123
1601135460843,74,-0.046142578,0.63494873,0.58148193
1601135460843,75,-0.07397461,0.61468506,0.5709839
1601135460843,76,-0.106933594,0.73968506,0.67352295
1601135460844,77,-0.046142578,0.63494873,0.58148193
1601135460844,78,-0.052490234,0.60980225,0.58026123
1601135460844,79,0.07543945,0.5609741,0.62664795
1601135460844,80,-0.06616211,0.68084717,0.5602417
1601135460844,81,0.13256836,0.7182007,0.5922241
1601135460844,82,-0.0041503906,0.7501831,0.8148804
1601135460844,83,-0.06616211,0.68084717,0.5602417
1601135460844,84,-0.052490234,0.60980225,0.58026123
1601135460857,85,0.10180664,0.5907593,0.73651123
1601135460857,86,-0.052490234,0.60980225,0.58026123
1601135460858,87,0.0,0.63739014,0.5800171
1601135460858,88,-0.106933594,0.73968506,0.67352295
1601135460858,89,0.10180664,0.5907593,0.73651123
1601135460858,90,-0.046142578,0.63494873,0.58148193
1601135460858,91,-0.0041503906,0.7501831,0.8148804
1601135460858,92,0.10180664,0.5907593,0.73651123
1601135460859,93,0.07788086,0.74798584,0.7518921
1601135460859,94,-0.106933594,0.73968506,0.67352295
1601135460859,95,0.07543945,0.5609741,0.62664795
1601135460860,96,0.0,0.63739014,0.5800171
1601135460860,97,0.13256836,0.7182007,0.5922241
1601135460860,98,-0.106933594,0.73968506,0.67352295
1601135460860,99,0.07543945,0.5609741,0.62664795
1601135460861,100,0.07788086,0.74798584,0.7518921
1601135460861,101,-0.052490234,0.60980225,0.58026123
1601135460861,102,0.12719727,0.69158936,0.6378784
1601135460861,103,0.12719727,0.69158936,0.6378784
1601135460861,104,0.1394043,0.72454834,0.5360718
1601135460861,105,0.1394043,0.72454834,0.5360718
1601135460861,106,-0.046142578,0.63494873,0.58148193
1601135460861,107,0.13256836,0.7182007,0.5922241
1601135460861,108,0.10180664,0.5907593,0.73651123
1601135460862,109,0.10180664,0.5907593,0.73651123
1601135460862,110,-0.046142578,0.63494873,0.58148193
1601135460862,111,-0.106933594,0.73968506,0.67352295
1601135460862,112,0.07543945,0.5609741,0.62664795
1601135460862,113,0.07543945,0.5609741,0.62664795
1601135460862,114,-0.0041503906,0.7501831,0.8148804
1601135460862,115,-0.08129883,0.5446167,0.6564331
1601135460862,116,-0.08129883,0.5446167,0.6564331
1601135460862,117,0.07788086,0.74798584,0.7518921
1601135460862,118,-0.17797852,0.5350952,0.64959717
1601135460862,119,0.12719727,0.69158936,0.6378784
1601135460863,120,0.07543945,0.5609741,0.62664795
1601135460872,121,-0.046142578,0.63494873,0.58148193
1601135460872,122,-0.052490234,0.60980225,0.58026123
1601135460872,123,-0.052490234,0.60980225,0.58026123
1601135460872,124,-0.0041503906,0.7501831,0.8148804
1601135460873,125,-0.20336914,0.45843506,0.5648804
1601135460873,126,-0.106933594,0.73968506,0.67352295
1601135460874,127,-0.106933594,0.73968506,0.67352295
1601135460874,128,-0.046142578,0.63494873,0.58148193
1601135460874,129,-0.17797852,0.5350952,0.64959717
1601135460874,130,-0.31689453,0.5253296,1.0062866
1601135460874,131,-0.0041503906,0.7501831,0.8148804
1601135460875,132,-0.052490234,0.60980225,0.58026123
1601135460875,133,-0.20336914,0.45843506,0.5648804
1601135460876,134,-0.087402344,0.5194702,0.8798218
1601135460876,135,0.1394043,0.72454834,0.5360718
1601135460876,136,-0.046142578,0.63494873,0.58148193
1601135460876,137,-0.052490234,0.60980225,0.58026123
1601135460876,138,-0.12011719,0.5595093,0.79852295
1601135460876,139,-0.0041503906,0.7501831,0.8148804
1601135460877,140,0.07788086,0.74798584,0.7518921
1601135460877,141,0.07788086,0.74798584,0.7518921
1601135460877,142,0.07788086,0.74798584,0.7518921
1601135460877,143,0.12719727,0.69158936,0.6378784
1601135460877,144,-0.106933594,0.73968506,0.67352295
1601135460877,145,-0.31689453,0.5253296,1.0062866
1601135460877,146,-0.106933594,0.73968506,0.67352295
1601135460877,147,-0.13916016,0.63812256,0.7028198
1601135460877,148,-0.0041503906,0.7501831,0.8148804
1601135460877,149,-0.08129883,0.5446167,0.6564331
1601135460880,150,0.1394043,0.72454834,0.5360718
1601135460880,151,-0.0041503906,0.7501831,0.8148804
1601135460880,152,-0.087402344,0.5194702,0.8798218
1601135460881,153,-0.052490234,0.60980225,0.58026123
1601135460881,154,-0.0041503906,0.7501831,0.8148804
1601135460881,155,-0.08129883,0.5446167,0.6564331
1601135460881,156,-0.106933594,0.73968506,0.67352295
1601135460881,157,0.07788086,0.74798584,0.7518921
1601135460881,158,0.12719727,0.69158936,0.6378784
1601135460881,159,-0.17797852,0.5350952,0.64959717
1601135460882,160,-0.083496094,0.7809448,0.59783936
1601135460884,161,-0.17797852,0.5350952,0.64959717
1601135460884,162,0.07788086,0.74798584,0.7518921
1601135460888,163,0.12719727,0.69158936,0.6378784
1601135460888,164,-0.0041503906,0.7501831,0.8148804
1601135460889,165,0.1394043,0.72454834,0.5360718
1601135460889,166,0.1394043,0.72454834,0.5360718
1601135460889,167,0.07788086,0.74798584,0.7518921
1601135460889,168,-0.12011719,0.5595093,0.79852295
1601135460889,169,-0.1430664,0.6334839,0.6222534
1601135460889,170,0.07788086,0.74798584,0.7518921
1601135460889,171,0.12719727,0.69158936,0.6378784
1601135460889,172,0.12719727,0.69158936,0.6378784
1601135460890,173,0.1394043,0.72454834,0.5360718
1601135460918,174,-0.08129883,0.5446167,0.6564331
1601135460918,175,-0.20336914,0.45843506,0.5648804
1601135460918,176,-0.08129883,0.5446167,0.6564331
1601135460918,177,-0.17797852,0.5350952,0.64959717
1601135460918,178,-0.13916016,0.63812256,0.7028198
1601135460918,179,-0.20336914,0.45843506,0.5648804
1601135460918,180,0.12719727,0.69158936,0.6378784
1601135460918,181,0.12719727,0.69158936,0.6378784
1601135460918,182,-0.08129883,0.5446167,0.6564331
1601135460918,183,0.1394043,0.72454834,0.5360718
1601135460918,184,0.1394043,0.72454834,0.5360718
1601135460918,185,-0.20336914,0.45843506,0.5648804
1601135460918,186,-0.08129883,0.5446167,0.6564331
1601135460918,187,-0.083496094,0.7809448,0.59783936
1601135460918,188,-0.17797852,0.5350952,0.64959717
1601135460919,189,-0.31689453,0.5253296,1.0062866
1601135460919,190,-0.17797852,0.5350952,0.64959717
1601135460919,191,-0.087402344,0.5194702,0.8798218
1601135460919,192,-0.20336914,0.45843506,0.5648804
1601135460919,193,-0.17797852,0.5350952,0.64959717
1601135460919,194,-0.20336914,0.45843506,0.5648804
1601135460919,195,-0.13671875,0.71429443,0.62420654
1601135460919,196,-0.31689453,0.5253296,1.0062866
1601135460919,197,-0.31689453,0.5253296,1.0062866
1601135460920,198,0.1394043,0.72454834,0.5360718
1601135460920,199,-0.087402344,0.5194702,0.8798218
1601135460920,200,-0.119140625,0.65789795,0.65960693
1601135460920,201,-0.12011719,0.5595093,0.79852295
1601135460920,202,-0.20336914,0.45843506,0.5648804
1601135460920,203,-0.1430664,0.6334839,0.6222534
1601135460920,204,-0.31689453,0.5253296,1.0062866
1601135460920,205,-0.08129883,0.5446167,0.6564331
1601135460920,206,-0.087402344,0.5194702,0.8798218
1601135460921,207,-0.08129883,0.5446167,0.6564331
1601135460921,208,-0.12011719,0.5595093,0.79852295
1601135460921,209,-0.087402344,0.5194702,0.8798218
1601135460921,210,-0.13916016,0.63812256,0.7028198
1601135460921,211,-0.13916016,0.63812256,0.7028198
1601135460921,212,-0.06274414,0.69451904,0.66326904
1601135460922,213,-0.13671875,0.71429443,0.62420654
1601135460922,214,-0.31689453,0.5253296,1.0062866
1601135460922,215,-0.06689453,0.65667725,0.68011475
1601135460922,216,-0.119140625,0.65789795,0.65960693
1601135460922,217,-0.12011719,0.5595093,0.79852295
1601135460922,218,-0.06274414,0.69451904,0.66326904
1601135460922,219,-0.17797852,0.5350952,0.64959717
1601135460922,220,-0.083496094,0.7809448,0.59783936
1601135460922,221,-0.13916016,0.63812256,0.7028198
1601135460922,222,-0.12011719,0.5595093,0.79852295
1601135460922,223,-0.17797852,0.5350952,0.64959717
1601135460922,224,-0.083496094,0.7809448,0.59783936
1601135460922,225,-0.10253906,0.664978,0.6491089
1601135460922,226,-0.1430664,0.6334839,0.6222534
1601135460922,227,-0.087402344,0.5194702,0.8798218
1601135460922,228,-0.20336914,0.45843506,0.5648804
1601135460923,229,-0.083496094,0.7809448,0.59783936
1601135460923,230,-0.1430664,0.6334839,0.6222534
1601135460923,231,-0.06689453,0.65667725,0.68011475
1601135460923,232,-0.31689453,0.5253296,1.0062866
1601135460932,233,-0.20336914,0.45843506,0.5648804
1601135460932,234,-0.13671875,0.71429443,0.62420654
1601135460932,235,-0.13916016,0.63812256,0.7028198
1601135460932,236,-0.31689453,0.5253296,1.0062866
1601135460932,237,-0.13671875,0.71429443,0.62420654
1601135460932,238,-0.119140625,0.65789795,0.65960693
1601135460932,239,-0.12011719,0.5595093,0.79852295
1601135460932,240,-0.119140625,0.65789795,0.65960693
1601135460932,241,-0.13916016,0.63812256,0.7028198
1601135460932,242,-0.10253906,0.664978,0.6491089
1601135460933,243,-0.06274414,0.69451904,0.66326904
1601135460933,244,-0.083496094,0.7809448,0.59783936
1601135460933,245,-0.31689453,0.5253296,1.0062866
1601135460933,246,-0.087402344,0.5194702,0.8798218
1601135460933,247,-0.059814453,0.6779175,0.65057373
1601135460933,248,-0.06689453,0.65667725,0.68011475
1601135460933,249,-0.06274414,0.69451904,0.66326904
1601135460933,250,-0.087402344,0.5194702,0.8798218
1601135460934,251,-0.059814453,0.6779175,0.65057373
1601135460934,252,-0.06689453,0.65667725,0.68011475
1601135460934,253,-0.12011719,0.5595093,0.79852295
1601135460934,254,-0.1430664,0.6334839,0.6222534
1601135460934,255,-0.087402344,0.5194702,0.8798218
1601135460934,256,-0.12011719,0.5595093,0.79852295
1601135460940,257,-0.083496094,0.7809448,0.59783936
1601135460940,258,0.006591797,0.67474365,0.65911865
1601135460940,259,-0.10253906,0.664978,0.6491089
1601135460940,260,-0.1430664,0.6334839,0.6222534
1601135460940,261,-0.13671875,0.71429443,0.62420654
1601135460940,262,-0.13916016,0.63812256,0.7028198
1601135460941,263,0.006591797,0.67474365,0.65911865
1601135460941,264,-0.083496094,0.7809448,0.59783936
1601135460941,265,-0.10253906,0.664978,0.6491089
1601135460941,266,-0.059814453,0.6779175,0.65057373
1601135460945,267,-0.12011719,0.5595093,0.79852295
1601135460945,268,-0.13916016,0.63812256,0.7028198
1601135460945,269,0.006591797,0.67474365,0.65911865
1601135460945,270,-0.1430664,0.6334839,0.6222534
1601135460945,271,-0.1430664,0.6334839,0.6222534
1601135460945,272,-0.059814453,0.6779175,0.65057373
1601135460945,273,-0.13671875,0.71429443,0.62420654
1601135460949,274,-0.13671875,0.71429443,0.62420654
1601135460950,275,-0.13916016,0.63812256,0.7028198
1601135460950,276,-0.083496094,0.7809448,0.59783936
1601135460951,277,-0.13671875,0.71429443,0.62420654
1601135460951,278,0.006591797,0.67474365,0.65911865
1601135460951,279,-0.083496094,0.7809448,0.59783936
1601135460952,280,-0.119140625,0.65789795,0.65960693
1601135460952,281,-0.1430664,0.6334839,0.6222534
1601135460952,282,-0.1430664,0.6334839,0.6222534
1601135460952,283,-0.119140625,0.65789795,0.65960693
1601135460957,284,-0.119140625,0.65789795,0.65960693
1601135460958,285,-0.119140625,0.65789795,0.65960693
1601135460958,286,-0.13671875,0.71429443,0.62420654
1601135460958,287,-0.06274414,0.69451904,0.66326904
1601135460958,288,-0.06274414,0.69451904,0.66326904
1601135460958,289,-0.13671875,0.71429443,0.62420654
1601135460958,290,-0.06689453,0.65667725,0.68011475
1601135460958,291,-0.06274414,0.69451904,0.66326904
1601135460958,292,-0.10253906,0.664978,0.6491089
1601135460958,293,-0.06689453,0.65667725,0.68011475
1601135460958,294,-0.059814453,0.6779175,0.65057373
1601135460964,295,-0.06274414,0.69451904,0.66326904
1601135460964,296,-0.119140625,0.65789795,0.65960693
1601135460964,297,-0.06689453,0.65667725,0.68011475
1601135460964,298,-0.10253906,0.664978,0.6491089
1601135460964,299,-0.119140625,0.65789795,0.65960693
1601135460964,300,0.006591797,0.67474365,0.65911865
1601135460964,301,-0.10253906,0.664978,0.6491089
1601135460965,302,-0.06274414,0.69451904,0.66326904
1601135460965,303,-0.06689453,0.65667725,0.68011475
1601135460966,304,-0.059814453,0.6779175,0.65057373
1601135460966,305,-0.06274414,0.69451904,0.66326904
1601135460969,306,-0.059814453,0.6779175,0.65057373
1601135460969,307,-0.06689453,0.65667725,0.68011475
1601135460969,308,-0.10253906,0.664978,0.6491089
1601135460969,309,0.006591797,0.67474365,0.65911865
1601135460971,310,-0.10253906,0.664978,0.6491089
1601135460972,311,-0.06689453,0.65667725,0.68011475
1601135460972,312,-0.059814453,0.6779175,0.65057373
1601135460972,313,0.006591797,0.67474365,0.65911865
1601135460975,314,-0.059814453,0.6779175,0.65057373
1601135460975,315,-0.10253906,0.664978,0.6491089
1601135460975,316,0.006591797,0.67474365,0.65911865
1601135460975,317,-0.059814453,0.6779175,0.65057373
1601135460977,318,0.006591797,0.67474365,0.65911865
1601135460978,319,0.006591797,0.67474365,0.65911865
1601135463300,320,-0.080322266,0.72332764,0.6403198
1601135463305,321,-0.080322266,0.72332764,0.6403198
1601135463305,322,-0.080322266,0.72332764,0.6403198
1601135463305,323,-0.080322266,0.72332764,0.6403198
1601135463306,324,-0.107666016,0.6781616,0.60931396
1601135463309,325,-0.080322266,0.72332764,0.6403198
1601135463311,326,-0.080322266,0.72332764,0.6403198
1601135463311,327,-0.080322266,0.72332764,0.6403198
1601135463312,328,-0.107666016,0.6781616,0.60931396
1601135463313,329,-0.107666016,0.6781616,0.60931396
1601135463313,330,-0.032958984,0.670105,0.6742554
1601135463313,331,-0.080322266,0.72332764,0.6403198
1601135463313,332,-0.107666016,0.6781616,0.60931396
1601135463314,333,-0.080322266,0.72332764,0.6403198
1601135463314,334,-0.107666016,0.6781616,0.60931396
1601135463314,335,-0.032958984,0.670105,0.6742554
1601135463314,336,-0.107666016,0.6781616,0.60931396
1601135463314,337,-0.107666016,0.6781616,0.60931396
1601135463328,338,-0.0793457,0.6312866,0.6425171
1601135463329,339,-0.080322266,0.72332764,0.6403198
1601135463330,340,-0.032958984,0.670105,0.6742554
1601135463330,341,-0.107666016,0.6781616,0.60931396
1601135463330,342,-0.032958984,0.670105,0.6742554
1601135463330,343,-0.032958984,0.670105,0.6742554
1601135463330,344,-0.0793457,0.6312866,0.6425171
1601135463330,345,-0.032958984,0.670105,0.6742554
1601135463331,346,-0.060302734,0.86053467,0.5140991
1601135463331,347,-0.107666016,0.6781616,0.60931396
1601135463331,348,-0.029785156,0.6950073,0.59490967
1601135463331,349,-0.0793457,0.6312866,0.6425171
1601135463331,350,-0.060302734,0.86053467,0.5140991
1601135463331,351,-0.060302734,0.86053467,0.5140991
1601135463331,352,-0.0793457,0.6312866,0.6425171
1601135463331,353,-0.032958984,0.670105,0.6742554
1601135463331,354,-0.060302734,0.86053467,0.5140991
1601135463331,355,-0.0793457,0.6312866,0.6425171
1601135463331,356,-0.0793457,0.6312866,0.6425171
1601135463332,357,-0.0793457,0.6312866,0.6425171
1601135463332,358,-0.107666016,0.6781616,0.60931396
1601135463332,359,-0.032958984,0.670105,0.6742554
1601135463332,360,-0.029785156,0.6950073,0.59490967
1601135463337,361,-0.029785156,0.6950073,0.59490967
1601135463337,362,-0.032958984,0.670105,0.6742554
1601135463337,363,-0.0053710938,0.70721436,0.6286011
1601135463337,364,-0.0793457,0.6312866,0.6425171
1601135463337,365,-0.032958984,0.670105,0.6742554
1601135463337,366,-0.060302734,0.86053467,0.5140991
1601135463338,367,-0.060302734,0.86053467,0.5140991
1601135463338,368,-0.029785156,0.6950073,0.59490967
1601135463338,369,-0.029785156,0.6950073,0.59490967
1601135463341,370,-0.0053710938,0.70721436,0.6286011
1601135463341,371,-0.060302734,0.86053467,0.5140991
1601135463341,372,-0.08666992,0.69573975,0.58514404
1601135463349,373,-0.0053710938,0.70721436,0.6286011
1601135463349,374,-0.08666992,0.69573975,0.58514404
1601135463349,375,-0.08666992,0.69573975,0.58514404
1601135463350,376,-0.0053710938,0.70721436,0.6286011
1601135463350,377,-0.029785156,0.6950073,0.59490967
1601135463350,378,-0.060302734,0.86053467,0.5140991
1601135463350,379,-0.0793457,0.6312866,0.6425171
1601135463350,380,-0.029785156,0.6950073,0.59490967
1601135463350,381,-0.08666992,0.69573975,0.58514404
1601135463350,382,-0.029785156,0.6950073,0.59490967
1601135463350,383,-0.0793457,0.6312866,0.6425171
1601135463361,384,-0.060302734,0.774353,0.5097046
1601135463362,385,-0.060302734,0.774353,0.5097046
1601135463362,386,-0.0053710938,0.70721436,0.6286011
1601135463362,387,-0.060302734,0.86053467,0.5140991
1601135463362,388,-0.060302734,0.774353,0.5097046
1601135463362,389,-0.0053710938,0.70721436,0.6286011
1601135463362,390,-0.0053710938,0.70721436,0.6286011
1601135463362,391,-0.060302734,0.8710327,0.4328003
1601135463363,392,-0.0053710938,0.70721436,0.6286011
1601135463364,393,0.03125,0.91156006,0.36468506
1601135463364,394,-0.060302734,0.86053467,0.5140991
1601135463364,395,-0.060302734,0.8710327,0.4328003
1601135463364,396,-0.060302734,0.8710327,0.4328003
1601135463364,397,-0.08666992,0.69573975,0.58514404
1601135463364,398,-0.029785156,0.6950073,0.59490967
1601135463365,399,-0.08666992,0.69573975,0.58514404
1601135463365,400,-0.08666992,0.69573975,0.58514404
1601135463365,401,-0.060302734,0.774353,0.5097046
1601135463365,402,-0.029296875,0.79241943,0.51239014
1601135463372,403,-0.12182617,0.8012085,0.47625732
1601135463372,404,-0.029785156,0.6950073,0.59490967
1601135463373,405,0.03125,0.91156006,0.36468506
1601135463373,406,-0.060302734,0.774353,0.5097046
1601135463373,407,-0.060302734,0.774353,0.5097046
1601135463373,408,-0.0053710938,0.70721436,0.6286011
1601135463373,409,-0.029296875,0.79241943,0.51239014
1601135463373,410,-0.060302734,0.8710327,0.4328003
1601135463373,411,-0.08666992,0.69573975,0.58514404
1601135463374,412,0.03125,0.91156006,0.36468506
1601135463374,413,-0.060302734,0.8710327,0.4328003
1601135463374,414,-0.08666992,0.69573975,0.58514404
1601135463374,415,-0.0053710938,0.70721436,0.6286011
1601135463398,416,-0.060302734,0.774353,0.5097046
1601135463398,417,-0.08618164,0.8278198,0.48260498
1601135463398,418,0.03125,0.91156006,0.36468506
1601135463399,419,-0.060302734,0.8710327,0.4328003
1601135463399,420,-0.029296875,0.79241943,0.51239014
1601135463401,421,-0.060302734,0.8710327,0.4328003
1601135463401,422,-0.060302734,0.774353,0.5097046
1601135463401,423,-0.08666992,0.69573975,0.58514404
1601135463401,424,-0.12182617,0.8012085,0.47625732
1601135463401,425,-0.060302734,0.774353,0.5097046
1601135463401,426,-0.060302734,0.774353,0.5097046
1601135463402,427,0.03125,0.91156006,0.36468506
1601135463402,428,0.03125,0.91156006,0.36468506
1601135463402,429,-0.060302734,0.8710327,0.4328003
1601135463402,430,-0.029296875,0.79241943,0.51239014
1601135463402,431,-0.12182617,0.8012085,0.47625732
1601135463402,432,-0.080078125,0.777771,0.51849365
1601135463402,433,-0.12182617,0.8012085,0.47625732
1601135463402,434,-0.060302734,0.8710327,0.4328003
1601135463403,435,0.03125,0.91156006,0.36468506
1601135463403,436,-0.08618164,0.8278198,0.48260498
1601135463403,437,-0.029296875,0.79241943,0.51239014
1601135463403,438,-0.060302734,0.8710327,0.4328003
1601135463403,439,0.03125,0.91156006,0.36468506
1601135463403,440,-0.080078125,0.777771,0.51849365
1601135463403,441,-0.029296875,0.79241943,0.51239014
1601135463403,442,-0.029296875,0.79241943,0.51239014
1601135463403,443,-0.08618164,0.8278198,0.48260498
1601135463404,444,-0.07299805,0.7687378,0.545105
1601135463404,445,0.03125,0.91156006,0.36468506
1601135463404,446,-0.12182617,0.8012085,0.47625732
1601135463404,447,-0.029296875,0.79241943,0.51239014
1601135463404,448,-0.07299805,0.7687378,0.545105
1601135463404,449,-0.12182617,0.8012085,0.47625732
1601135463404,450,-0.08618164,0.8278198,0.48260498
1601135463404,451,-0.12182617,0.8012085,0.47625732
1601135463404,452,-0.080078125,0.777771,0.51849365
1601135463404,453,-0.08618164,0.8278198,0.48260498
1601135463405,454,-0.08618164,0.8278198,0.48260498
1601135463405,455,-0.08618164,0.8278198,0.48260498
1601135463405,456,-0.068603516,0.7719116,0.5429077
1601135463405,457,-0.080078125,0.777771,0.51849365
1601135463405,458,-0.068603516,0.7719116,0.5429077
1601135463405,459,-0.07299805,0.7687378,0.545105
1601135463405,460,0.03125,0.91156006,0.36468506
1601135463405,461,-0.080078125,0.777771,0.51849365
1601135463405,462,-0.029296875,0.79241943,0.51239014
1601135463405,463,-0.029296875,0.79241943,0.51239014
1601135463406,464,-0.12182617,0.8012085,0.47625732
1601135463406,465,-0.12182617,0.8012085,0.47625732
1601135463406,466,-0.080078125,0.777771,0.51849365
1601135463407,467,-0.12646484,0.7958374,0.5692749
1601135463407,468,-0.08618164,0.8278198,0.48260498
1601135463407,469,-0.07299805,0.7687378,0.545105
1601135463407,470,-0.080078125,0.777771,0.51849365
1601135463407,471,-0.068603516,0.7719116,0.5429077
1601135463407,472,-0.12646484,0.7958374,0.5692749
1601135463407,473,-0.08618164,0.8278198,0.48260498
1601135463407,474,-0.12182617,0.8012085,0.47625732
1601135463412,475,-0.07299805,0.7687378,0.545105
1601135463412,476,-0.06689453,0.70062256,0.48602295
1601135463412,477,-0.068603516,0.7719116,0.5429077
1601135463412,478,-0.07299805,0.7687378,0.545105
1601135463412,479,-0.07299805,0.7687378,0.545105
1601135463412,480,-0.12646484,0.7958374,0.5692749
1601135463412,481,-0.068603516,0.7719116,0.5429077
1601135463412,482,-0.080078125,0.777771,0.51849365
1601135463412,483,-0.12646484,0.7958374,0.5692749
1601135463412,484,-0.06689453,0.70062256,0.48602295
1601135463412,485,-0.06689453,0.70062256,0.48602295
1601135463412,486,-0.068603516,0.7719116,0.5429077
1601135463412,487,-0.18261719,0.73553467,0.51678467
1601135463413,488,-0.080078125,0.777771,0.51849365
1601135463413,489,-0.06689453,0.70062256,0.48602295
1601135463413,490,-0.12646484,0.7958374,0.5692749
1601135463413,491,-0.08618164,0.8278198,0.48260498
1601135463413,492,-0.068603516,0.7719116,0.5429077
1601135463420,493,-0.07299805,0.7687378,0.545105
1601135463420,494,-0.18261719,0.73553467,0.51678467
1601135463420,495,-0.068603516,0.7719116,0.5429077
1601135463420,496,-0.12646484,0.7958374,0.5692749
1601135463420,497,-0.13891602,0.71087646,0.605896
1601135463420,498,-0.07299805,0.7687378,0.545105
1601135463420,499,-0.18261719,0.73553467,0.51678467
1601135463421,500,-0.080078125,0.777771,0.51849365
1601135463421,501,-0.06689453,0.70062256,0.48602295
1601135463421,502,-0.12646484,0.7958374,0.5692749
1601135463421,503,-0.13891602,0.71087646,0.605896
1601135463432,504,-0.18261719,0.73553467,0.51678467
1601135463432,505,-0.068603516,0.7719116,0.5429077
1601135463433,506,-0.07495117,0.7953491,0.5338745
1601135463433,507,-0.07299805,0.7687378,0.545105
1601135463433,508,-0.06689453,0.70062256,0.48602295
1601135463433,509,-0.13891602,0.71087646,0.605896
1601135463433,510,-0.18261719,0.73553467,0.51678467
1601135463433,511,-0.06689453,0.70062256,0.48602295
1601135463433,512,-0.18261719,0.73553467,0.51678467
1601135463434,513,-0.068603516,0.7719116,0.5429077
1601135463434,514,-0.07495117,0.7953491,0.5338745
1601135463434,515,-0.12646484,0.7958374,0.5692749
1601135463434,516,-0.13891602,0.71087646,0.605896
1601135463434,517,-0.016845703,0.9369507,0.38983154
1601135463435,518,-0.12646484,0.7958374,0.5692749
1601135463435,519,-0.07495117,0.7953491,0.5338745
1601135463435,520,-0.13891602,0.71087646,0.605896
1601135463463,521,-0.13891602,0.71087646,0.605896
1601135463463,522,-0.18261719,0.73553467,0.51678467
1601135463463,523,-0.12646484,0.7958374,0.5692749
1601135463463,524,-0.016845703,0.9369507,0.38983154
1601135463463,525,-0.06689453,0.70062256,0.48602295
1601135463463,526,-0.06689453,0.70062256,0.48602295
1601135463467,527,-0.18261719,0.73553467,0.51678467
1601135463467,528,-0.041992188,1.052185,0.18377686
1601135463467,529,-0.06689453,0.70062256,0.48602295
1601135463467,530,-0.07495117,0.7953491,0.5338745
1601135463467,531,-0.18261719,0.73553467,0.51678467
1601135463467,532,-0.07495117,0.7953491,0.5338745
1601135463467,533,-0.13891602,0.71087646,0.605896
1601135463467,534,-0.07495117,0.7953491,0.5338745
1601135463467,535,-0.041992188,1.052185,0.18377686
1601135463469,536,-0.016845703,0.9369507,0.38983154
1601135463469,537,-0.13891602,0.71087646,0.605896
1601135463469,538,-0.18261719,0.73553467,0.51678467
1601135463469,539,-0.034423828,1.0709839,0.019958496
1601135463470,540,-0.041992188,1.052185,0.18377686
1601135463470,541,-0.13891602,0.71087646,0.605896
1601135463470,542,-0.016845703,0.9369507,0.38983154
1601135463470,543,-0.07495117,0.7953491,0.5338745
1601135463470,544,-0.016845703,0.9369507,0.38983154
1601135463473,545,-0.034423828,1.0709839,0.019958496
1601135463473,546,-0.07495117,0.7953491,0.5338745
1601135463473,547,0.0637207,0.982605,0.053894043
1601135463473,548,-0.016845703,0.9369507,0.38983154
1601135463473,549,-0.07495117,0.7953491,0.5338745
1601135463473,550,-0.016845703,0.9369507,0.38983154
1601135463473,551,-0.034423828,1.0709839,0.019958496
1601135463473,552,0.0637207,0.982605,0.053894043
1601135463474,553,-0.016845703,0.9369507,0.38983154
1601135463474,554,-0.13891602,0.71087646,0.605896
1601135463474,555,-0.016845703,0.9369507,0.38983154
1601135463474,556,-0.041992188,1.052185,0.18377686
1601135463474,557,-0.041992188,1.052185,0.18377686
1601135463474,558,-0.034423828,1.0709839,0.019958496
1601135463474,559,-0.041992188,1.052185,0.18377686
1601135463474,560,-0.034423828,1.0709839,0.019958496
1601135463474,561,0.0637207,0.982605,0.053894043
1601135463475,562,-0.034423828,1.0709839,0.019958496
1601135463475,563,0.0637207,0.982605,0.053894043
1601135463477,564,-0.07495117,0.7953491,0.5338745
1601135463477,565,-0.041992188,1.052185,0.18377686
1601135463477,566,-0.041992188,1.052185,0.18377686
1601135463477,567,-0.016845703,0.9369507,0.38983154
1601135463477,568,0.0637207,0.982605,0.053894043
1601135463477,569,-0.034423828,1.0709839,0.019958496
1601135463477,570,0.125,0.9857788,0.0758667
1601135463478,571,0.125,0.9857788,0.0758667
1601135463478,572,0.0637207,0.982605,0.053894043
1601135463478,573,0.15991211,0.56903076,-0.025939941
1601135463478,574,0.15991211,0.56903076,-0.025939941
1601135463478,575,0.125,0.9857788,0.0758667
1601135463478,576,-0.041992188,1.052185,0.18377686
1601135463480,577,0.08081055,1.1193237,0.030700684
1601135463480,578,0.08081055,1.1193237,0.030700684
1601135463480,579,0.14624023,0.76312256,0.27191162
1601135463481,580,0.125,0.9857788,0.0758667
1601135463481,581,-0.041992188,1.052185,0.18377686
1601135463481,582,-0.034423828,1.0709839,0.019958496
1601135463481,583,0.0637207,0.982605,0.053894043
1601135463481,584,0.15991211,0.56903076,-0.025939941
1601135463481,585,0.0637207,0.982605,0.053894043
1601135463481,586,0.23461914,0.7975464,0.2514038
1601135463481,587,0.14624023,0.76312256,0.27191162
1601135463481,588,0.125,0.9857788,0.0758667
1601135463482,589,0.125,0.9857788,0.0758667
1601135463482,590,0.21435547,0.71136475,0.3319702
1601135463482,591,0.125,0.9857788,0.0758667
1601135463482,592,0.15991211,0.56903076,-0.025939941
1601135463482,593,0.125,0.9857788,0.0758667
1601135463482,594,0.08081055,1.1193237,0.030700684
1601135463482,595,0.08081055,1.1193237,0.030700684
1601135463482,596,0.15991211,0.56903076,-0.025939941
1601135463482,597,-0.034423828,1.0709839,0.019958496
1601135463482,598,-0.034423828,1.0709839,0.019958496
1601135463482,599,0.14624023,0.76312256,0.27191162
1601135463482,600,0.14624023,0.76312256,0.27191162
1601135463483,601,0.0637207,0.982605,0.053894043
1601135463483,602,0.15991211,0.56903076,-0.025939941
1601135463483,603,0.125,0.9857788,0.0758667
1601135463483,604,0.23461914,0.7975464,0.2514038
1601135463483,605,0.15991211,0.56903076,-0.025939941
1601135463487,606,0.15991211,0.56903076,-0.025939941
1601135463487,607,0.08081055,1.1193237,0.030700684
1601135463488,608,0.23461914,0.7975464,0.2514038
1601135463488,609,0.08081055,1.1193237,0.030700684
1601135463488,610,0.15991211,0.56903076,-0.025939941
1601135463488,611,0.08081055,1.1193237,0.030700684
1601135463488,612,0.23461914,0.7975464,0.2514038
1601135463488,613,0.08081055,1.1193237,0.030700684
1601135463488,614,0.14624023,0.76312256,0.27191162
1601135463489,615,0.0637207,0.982605,0.053894043
1601135463489,616,0.08081055,1.1193237,0.030700684
1601135463489,617,0.21435547,0.71136475,0.3319702
1601135463489,618,0.14624023,0.76312256,0.27191162
1601135463489,619,0.125,0.9857788,0.0758667
1601135463489,620,0.21435547,0.71136475,0.3319702
1601135463489,621,0.21435547,0.71136475,0.3319702
1601135463490,622,0.23461914,0.7975464,0.2514038
1601135463490,623,0.14624023,0.76312256,0.27191162
1601135463490,624,0.14624023,0.76312256,0.27191162
1601135463490,625,0.23461914,0.7975464,0.2514038
1601135463496,626,0.15991211,0.56903076,-0.025939941
1601135463496,627,0.14624023,0.76312256,0.27191162
1601135463496,628,0.23461914,0.7975464,0.2514038
1601135463496,629,0.21435547,0.71136475,0.3319702
1601135463497,630,0.23461914,0.7975464,0.2514038
1601135463497,631,0.23461914,0.7975464,0.2514038
1601135463497,632,0.21435547,0.71136475,0.3319702
1601135463497,633,0.08081055,1.1193237,0.030700684
1601135463502,634,0.21435547,0.71136475,0.3319702
1601135463504,635,0.14624023,0.76312256,0.27191162
1601135463504,636,0.21435547,0.71136475,0.3319702
1601135463504,637,0.21435547,0.71136475,0.3319702
1601135463506,638,0.23461914,0.7975464,0.2514038
1601135463507,639,0.21435547,0.71136475,0.3319702
1601135467380,640,0.053955078,0.37542725,0.37054443
1601135467381,641,-0.42163086,1.1837769,0.72528076
1601135467381,642,0.053955078,0.37542725,0.37054443
1601135467381,643,-0.3112793,0.6725464,0.7081909
1601135467384,644,0.053955078,0.37542725,0.37054443
1601135467403,645,0.053955078,0.37542725,0.37054443
1601135467404,646,0.053955078,0.37542725,0.37054443
1601135467404,647,-0.11425781,0.7194214,0.6222534
1601135467404,648,-0.42163086,1.1837769,0.72528076
1601135467404,649,0.053955078,0.37542725,0.37054443
1601135467404,650,0.053955078,0.37542725,0.37054443
1601135467404,651,0.053955078,0.37542725,0.37054443
1601135467404,652,0.053955078,0.37542725,0.37054443
1601135467404,653,0.053955078,0.37542725,0.37054443
1601135467404,654,-0.42163086,1.1837769,0.72528076
1601135467404,655,-0.42163086,1.1837769,0.72528076
1601135467405,656,-0.42163086,1.1837769,0.72528076
1601135467405,657,-0.3112793,0.6725464,0.7081909
1601135467405,658,-0.42163086,1.1837769,0.72528076
1601135467405,659,-0.3112793,0.6725464,0.7081909
1601135467405,660,-0.3112793,0.6725464,0.7081909
1601135467405,661,-0.42163086,1.1837769,0.72528076
1601135467405,662,-0.3112793,0.6725464,0.7081909
1601135467406,663,-0.42163086,1.1837769,0.72528076
1601135467406,664,-0.3112793,0.6725464,0.7081909
1601135467406,665,-0.3112793,0.6725464,0.7081909
1601135467406,666,-0.017333984,0.7536011,0.5656128
1601135467406,667,-0.42163086,1.1837769,0.72528076
1601135467406,668,-0.11425781,0.7194214,0.6222534
1601135467406,669,-0.080078125,0.7994995,0.5829468
1601135467407,670,-0.11425781,0.7194214,0.6222534
1601135467407,671,-0.11425781,0.7194214,0.6222534
1601135467407,672,-0.11425781,0.7194214,0.6222534
1601135467407,673,-0.11425781,0.7194214,0.6222534
1601135467407,674,-0.3112793,0.6725464,0.7081909
1601135467407,675,-0.11425781,0.7194214,0.6222534
1601135467407,676,-0.3112793,0.6725464,0.7081909
1601135467408,677,-0.10839844,0.8102417,0.5734253
1601135467417,678,-0.017333984,0.7536011,0.5656128
1601135467417,679,-0.11425781,0.7194214,0.6222534
1601135467417,680,-0.017333984,0.7536011,0.5656128
1601135467417,681,-0.017333984,0.7536011,0.5656128
1601135467418,682,-0.080078125,0.7994995,0.5829468
1601135467418,683,-0.10839844,0.8102417,0.5734253
1601135467418,684,-0.017333984,0.7536011,0.5656128
1601135467418,685,-0.017333984,0.7536011,0.5656128
1601135467418,686,-0.11328125,0.81292725,0.5429077
1601135467418,687,-0.080078125,0.7994995,0.5829468
1601135467418,688,-0.017333984,0.7536011,0.5656128
1601135467418,689,-0.10839844,0.8102417,0.5734253
1601135467418,690,-0.114990234,0.8353882,0.4701538
1601135467418,691,-0.42163086,1.1837769,0.72528076
1601135467418,692,-0.080078125,0.7994995,0.5829468
1601135467418,693,-0.11328125,0.81292725,0.5429077
1601135467418,694,-0.11425781,0.7194214,0.6222534
1601135467418,695,-0.114990234,0.8353882,0.4701538
1601135467419,696,-0.080078125,0.7994995,0.5829468
1601135467425,697,-0.11328125,0.81292725,0.5429077
1601135467425,698,-0.10839844,0.8102417,0.5734253
1601135467425,699,-0.3112793,0.6725464,0.7081909
1601135467425,700,-0.114990234,0.8353882,0.4701538
1601135467425,701,-0.080078125,0.7994995,0.5829468
1601135467425,702,-0.10839844,0.8102417,0.5734253
1601135467426,703,-0.017333984,0.7536011,0.5656128
1601135467426,704,-0.13623047,0.8461304,0.4491577
1601135467426,705,-0.080078125,0.7994995,0.5829468
1601135467426,706,-0.10839844,0.8102417,0.5734253
1601135467432,707,-0.13623047,0.8461304,0.4491577
1601135467432,708,-0.11425781,0.7194214,0.6222534
1601135467433,709,-0.11328125,0.81292725,0.5429077
1601135467433,710,-0.10839844,0.8102417,0.5734253
1601135467433,711,-0.11328125,0.81292725,0.5429077
1601135467433,712,-0.080078125,0.7994995,0.5829468
1601135467433,713,-0.11328125,0.81292725,0.5429077
1601135467433,714,-0.1315918,0.84588623,0.4389038
1601135467433,715,-0.13623047,0.8461304,0.4491577
1601135467433,716,-0.114990234,0.8353882,0.4701538
1601135467433,717,-0.11328125,0.81292725,0.5429077
1601135467445,718,-0.1315918,0.84588623,0.4389038
1601135467445,719,-0.017333984,0.7536011,0.5656128
1601135467445,720,-0.10229492,0.7843628,0.54608154
1601135467445,721,-0.10229492,0.7843628,0.54608154
1601135467445,722,-0.114990234,0.8353882,0.4701538
1601135467445,723,-0.114990234,0.8353882,0.4701538
1601135467445,724,-0.114990234,0.8353882,0.4701538
1601135467446,725,-0.13623047,0.8461304,0.4491577
1601135467446,726,-0.017333984,0.7536011,0.5656128
1601135467446,727,-0.1315918,0.84588623,0.4389038
1601135467446,728,-0.10839844,0.8102417,0.5734253
1601135467446,729,-0.1315918,0.84588623,0.4389038
1601135467446,730,-0.10229492,0.7843628,0.54608154
1601135467446,731,-0.080078125,0.7994995,0.5829468
1601135467446,732,-0.09008789,0.7904663,0.5321655
1601135467446,733,-0.13623047,0.8461304,0.4491577
1601135467446,734,-0.13623047,0.8461304,0.4491577
1601135467447,735,-0.13623047,0.8461304,0.4491577
1601135467447,736,-0.10839844,0.8102417,0.5734253
1601135467447,737,-0.080078125,0.7994995,0.5829468
1601135467447,738,-0.09008789,0.7904663,0.5321655
1601135467447,739,-0.1315918,0.84588623,0.4389038
1601135467447,740,-0.1315918,0.84588623,0.4389038
1601135467447,741,-0.09008789,0.7904663,0.5321655
1601135467447,742,-0.10229492,0.7843628,0.54608154
1601135467447,743,-0.10229492,0.7843628,0.54608154
1601135467461,744,-0.11328125,0.81292725,0.5429077
1601135467461,745,-0.1315918,0.84588623,0.4389038
1601135467461,746,-0.10839844,0.8102417,0.5734253
1601135467462,747,-0.114990234,0.8353882,0.4701538
1601135467462,748,-0.12011719,0.81829834,0.5014038
1601135467462,749,-0.10229492,0.7843628,0.54608154
1601135467463,750,-0.12011719,0.81829834,0.5014038
1601135467463,751,-0.10229492,0.7843628,0.54608154
1601135467463,752,-0.09008789,0.7904663,0.5321655
1601135467463,753,-0.09008789,0.7904663,0.5321655
1601135467463,754,-0.1315918,0.6893921,0.5619507
1601135467463,755,-0.11328125,0.81292725,0.5429077
1601135467464,756,-0.12011719,0.81829834,0.5014038
1601135467464,757,-0.09008789,0.7904663,0.5321655
1601135467464,758,-0.13623047,0.8461304,0.4491577
1601135467464,759,-0.1315918,0.6893921,0.5619507
1601135467464,760,-0.09008789,0.7904663,0.5321655
1601135467464,761,-0.1315918,0.84588623,0.4389038
1601135467465,762,-0.13867188,0.6647339,0.72528076
1601135467465,763,-0.114990234,0.8353882,0.4701538
1601135467466,764,-0.11328125,0.81292725,0.5429077
1601135467466,765,-0.12011719,0.81829834,0.5014038
1601135467467,766,-0.1315918,0.6893921,0.5619507
1601135467467,767,-0.12011719,0.81829834,0.5014038
1601135467469,768,-0.12011719,0.81829834,0.5014038
1601135467469,769,-0.12011719,0.81829834,0.5014038
1601135467469,770,-0.1315918,0.6893921,0.5619507
1601135467469,771,-0.13867188,0.6647339,0.72528076
1601135467482,772,-0.13623047,0.8461304,0.4491577
1601135467482,773,-0.13867188,0.6647339,0.72528076
1601135467482,774,-0.16113281,0.58636475,0.7523804
1601135467482,775,-0.10229492,0.7843628,0.54608154
1601135467482,776,-0.1315918,0.6893921,0.5619507
1601135467482,777,-0.13867188,0.6647339,0.72528076
1601135467482,778,-0.114990234,0.8353882,0.4701538
1601135467482,779,-0.1315918,0.6893921,0.5619507
1601135467482,780,-0.1315918,0.6893921,0.5619507
1601135467482,781,-0.16113281,0.58636475,0.7523804
1601135467482,782,-0.13623047,0.8461304,0.4491577
1601135467482,783,-0.13867188,0.6647339,0.72528076
1601135467482,784,-0.16113281,0.58636475,0.7523804
1601135467483,785,-0.16113281,0.58636475,0.7523804
1601135467483,786,-0.13867188,0.6647339,0.72528076
1601135467483,787,-0.31469727,0.5150757,0.68621826
1601135467483,788,-0.09008789,0.7904663,0.5321655
1601135467484,789,-0.1315918,0.84588623,0.4389038
1601135467484,790,-0.1315918,0.84588623,0.4389038
1601135467485,791,-0.16113281,0.58636475,0.7523804
1601135467485,792,-0.31469727,0.5150757,0.68621826
1601135467485,793,-0.10229492,0.7843628,0.54608154
1601135467485,794,-0.31469727,0.5150757,0.68621826
1601135467485,795,-0.31469727,0.5150757,0.68621826
1601135467485,796,-0.09008789,0.7904663,0.5321655
1601135467485,797,-0.12011719,0.81829834,0.5014038
1601135467485,798,-0.13867188,0.6647339,0.72528076
1601135467485,799,-0.31469727,0.5150757,0.68621826
1601135467485,800,-0.10229492,0.7843628,0.54608154
1601135467485,801,-0.1315918,0.6893921,0.5619507
1601135467485,802,-0.09008789,0.7904663,0.5321655
1601135467485,803,-0.13867188,0.6647339,0.72528076
1601135467485,804,-0.51220703,0.41571045,0.6071167
1601135467485,805,-0.16113281,0.58636475,0.7523804
1601135467485,806,-0.12011719,0.81829834,0.5014038
1601135467485,807,-0.12011719,0.81829834,0.5014038
1601135467485,808,-0.16113281,0.58636475,0.7523804
1601135467485,809,-0.1315918,0.6893921,0.5619507
1601135467493,810,-0.51220703,0.41571045,0.6071167
1601135467493,811,-0.16113281,0.58636475,0.7523804
1601135467493,812,-0.51220703,0.41571045,0.6071167
1601135467493,813,-0.51220703,0.41571045,0.6071167
1601135467493,814,-0.31469727,0.5150757,0.68621826
1601135467493,815,-0.3474121,0.13372803,0.8239136
1601135467493,816,-0.1315918,0.6893921,0.5619507
1601135467493,817,-0.51220703,0.41571045,0.6071167
1601135467493,818,-0.13867188,0.6647339,0.72528076
1601135467493,819,-0.13867188,0.6647339,0.72528076
1601135467493,820,-0.51220703,0.41571045,0.6071167
1601135467493,821,-0.31469727,0.5150757,0.68621826
1601135467493,822,-0.3474121,0.13372803,0.8239136
1601135467493,823,-0.3474121,0.13372803,0.8239136
1601135467494,824,-0.45214844,-0.038879395,0.9105835
1601135467494,825,-0.31469727,0.5150757,0.68621826
1601135467494,826,-0.45214844,-0.038879395,0.9105835
1601135467494,827,-0.16113281,0.58636475,0.7523804
1601135467494,828,-0.56396484,0.12371826,0.9393921
1601135467494,829,-0.3474121,0.13372803,0.8239136
1601135467494,830,-0.16113281,0.58636475,0.7523804
1601135467494,831,-0.51220703,0.41571045,0.6071167
1601135467494,832,-0.45214844,-0.038879395,0.9105835
1601135467494,833,-0.56396484,0.12371826,0.9393921
1601135467495,834,-0.56396484,0.12371826,0.9393921
1601135467495,835,-0.657959,0.031677246,0.8395386
1601135467495,836,-0.51220703,0.41571045,0.6071167
1601135467497,837,-0.31469727,0.5150757,0.68621826
1601135467498,838,-0.657959,0.031677246,0.8395386
1601135467498,839,-0.31469727,0.5150757,0.68621826
1601135467498,840,-0.25170898,0.23480225,1.0023804
1601135467498,841,-0.51220703,0.41571045,0.6071167
1601135467498,842,-0.657959,0.031677246,0.8395386
1601135467498,843,-0.3474121,0.13372803,0.8239136
1601135467498,844,-0.25170898,0.23480225,1.0023804
1601135467498,845,-0.25170898,0.23480225,1.0023804
1601135467498,846,-0.3474121,0.13372803,0.8239136
1601135467498,847,-0.51220703,0.41571045,0.6071167
1601135467499,848,-0.3474121,0.13372803,0.8239136
1601135467499,849,-0.45214844,-0.038879395,0.9105835
1601135467499,850,-0.45214844,-0.038879395,0.9105835
1601135467510,851,-0.45214844,-0.038879395,0.9105835
1601135467510,852,-0.45214844,-0.038879395,0.9105835
1601135467510,853,-0.23510742,0.016296387,0.9423218
1601135467510,854,-0.3474121,0.13372803,0.8239136
1601135467510,855,-0.56396484,0.12371826,0.9393921
1601135467511,856,-0.3474121,0.13372803,0.8239136
1601135467511,857,-0.23510742,0.016296387,0.9423218
1601135467511,858,-0.3474121,0.13372803,0.8239136
1601135467511,859,-0.56396484,0.12371826,0.9393921
1601135467511,860,-0.56396484,0.12371826,0.9393921
1601135467511,861,-0.45214844,-0.038879395,0.9105835
1601135467511,862,-0.56396484,0.12371826,0.9393921
1601135467511,863,-0.23510742,0.016296387,0.9423218
1601135467511,864,-0.657959,0.031677246,0.8395386
1601135467511,865,-0.45214844,-0.038879395,0.9105835
1601135467511,866,-0.45214844,-0.038879395,0.9105835
1601135467511,867,-0.657959,0.031677246,0.8395386
1601135467511,868,-0.34594727,-0.12872314,0.8776245
1601135467512,869,-0.25170898,0.23480225,1.0023804
1601135467512,870,-0.34594727,-0.12872314,0.8776245
1601135467512,871,-0.25170898,0.23480225,1.0023804
1601135467512,872,-0.56396484,0.12371826,0.9393921
1601135467512,873,-0.657959,0.031677246,0.8395386
1601135467512,874,-0.24731445,0.12176514,0.88201904
1601135467512,875,-0.56396484,0.12371826,0.9393921
1601135467512,876,-0.25170898,0.23480225,1.0023804
1601135467512,877,-0.24731445,0.12176514,0.88201904
1601135467512,878,-0.657959,0.031677246,0.8395386
1601135467512,879,-0.23510742,0.016296387,0.9423218
1601135467512,880,-0.23510742,0.016296387,0.9423218
1601135467513,881,-0.23510742,0.016296387,0.9423218
1601135467513,882,-0.31591797,-0.42462158,0.80389404
1601135467513,883,-0.657959,0.031677246,0.8395386
1601135467526,884,-0.34594727,-0.12872314,0.8776245
1601135467526,885,-0.34594727,-0.12872314,0.8776245
1601135467527,886,-0.25170898,0.23480225,1.0023804
1601135467528,887,-0.657959,0.031677246,0.8395386
1601135467528,888,-0.31591797,-0.42462158,0.80389404
1601135467528,889,-0.15478516,-0.25152588,0.9122925
1601135467528,890,-0.34594727,-0.12872314,0.8776245
1601135467529,891,-0.34594727,-0.12872314,0.8776245
1601135467529,892,-0.56396484,0.12371826,0.9393921
1601135467529,893,-0.25170898,0.23480225,1.0023804
1601135467529,894,-0.24731445,0.12176514,0.88201904
1601135467529,895,-0.24731445,0.12176514,0.88201904
1601135467529,896,-0.31591797,-0.42462158,0.80389404
1601135467529,897,-0.23510742,0.016296387,0.9423218
1601135467529,898,-0.15478516,-0.25152588,0.9122925
1601135467529,899,-0.24731445,0.12176514,0.88201904
1601135467529,900,-0.15478516,-0.25152588,0.9122925
1601135467529,901,-0.24731445,0.12176514,0.88201904
1601135467530,902,-0.13183594,-0.25567627,0.9069214
1601135467530,903,-0.657959,0.031677246,0.8395386
1601135467530,904,-0.14038086,-0.3496704,0.81781006
1601135467530,905,-0.23510742,0.016296387,0.9423218
1601135467530,906,-0.13183594,-0.25567627,0.9069214
1601135467530,907,-0.25170898,0.23480225,1.0023804
1601135467530,908,-0.14038086,-0.3496704,0.81781006
1601135467530,909,-0.34594727,-0.12872314,0.8776245
1601135467530,910,-0.31591797,-0.42462158,0.80389404
1601135467530,911,-0.34594727,-0.12872314,0.8776245
1601135467530,912,-0.31591797,-0.42462158,0.80389404
1601135467530,913,-0.10498047,-0.19586182,0.96502686
1601135467530,914,-0.31591797,-0.42462158,0.80389404
1601135467531,915,-0.25170898,0.23480225,1.0023804
1601135467531,916,-0.13183594,-0.25567627,0.9069214
1601135467531,917,-0.23510742,0.016296387,0.9423218
1601135467531,918,-0.23510742,0.016296387,0.9423218
1601135467531,919,-0.24731445,0.12176514,0.88201904
1601135467531,920,-0.15478516,-0.25152588,0.9122925
1601135467536,921,-0.24731445,0.12176514,0.88201904
1601135467536,922,-0.10498047,-0.19586182,0.96502686
1601135467537,923,-0.15478516,-0.25152588,0.9122925
1601135467537,924,-0.14038086,-0.3496704,0.81781006
1601135467537,925,-0.34594727,-0.12872314,0.8776245
1601135467537,926,-0.13183594,-0.25567627,0.9069214
1601135467537,927,-0.31591797,-0.42462158,0.80389404
1601135467537,928,-0.24731445,0.12176514,0.88201904
1601135467537,929,-0.13183594,-0.25567627,0.9069214
1601135467537,930,-0.31591797,-0.42462158,0.80389404
1601135467537,931,-0.31591797,-0.42462158,0.80389404
1601135467538,932,-0.10498047,-0.19586182,0.96502686
1601135467538,933,-0.14038086,-0.3496704,0.81781006
1601135467539,934,-0.15478516,-0.25152588,0.9122925
1601135467548,935,-0.15478516,-0.25152588,0.9122925
1601135467548,936,-0.14038086,-0.3496704,0.81781006
1601135467548,937,-0.15478516,-0.25152588,0.9122925
1601135467548,938,-0.15478516,-0.25152588,0.9122925
1601135467548,939,-0.13183594,-0.25567627,0.9069214
1601135467548,940,-0.13183594,-0.25567627,0.9069214
1601135467548,941,-0.14038086,-0.3496704,0.81781006
1601135467548,942,-0.34594727,-0.12872314,0.8776245
1601135467549,943,-0.13183594,-0.25567627,0.9069214
1601135467549,944,-0.24731445,0.12176514,0.88201904
1601135467549,945,-0.10498047,-0.19586182,0.96502686
1601135467549,946,-0.14038086,-0.3496704,0.81781006
1601135467549,947,-0.14038086,-0.3496704,0.81781006
1601135467549,948,-0.10498047,-0.19586182,0.96502686
1601135467549,949,-0.13183594,-0.25567627,0.9069214
1601135467549,950,-0.10498047,-0.19586182,0.96502686
1601135467550,951,-0.31591797,-0.42462158,0.80389404
1601135467550,952,-0.14038086,-0.3496704,0.81781006
1601135467550,953,-0.10498047,-0.19586182,0.96502686
1601135467554,954,-0.15478516,-0.25152588,0.9122925
1601135467555,955,-0.10498047,-0.19586182,0.96502686
1601135467556,956,-0.13183594,-0.25567627,0.9069214
1601135467556,957,-0.10498047,-0.19586182,0.96502686
1601135467558,958,-0.14038086,-0.3496704,0.81781006
1601135467559,959,-0.10498047,-0.19586182,0.96502686
1601135468400,960,-0.08203125,-0.14019775,0.92889404
1601135468400,961,-0.08203125,-0.14019775,0.92889404
1601135468401,962,-0.08203125,-0.14019775,0.92889404
1601135468401,963,-0.092285156,-0.012756348,0.9537964
1601135468401,964,-0.08203125,-0.14019775,0.92889404
1601135468401,965,-0.08203125,-0.14019775,0.92889404
1601135468401,966,-0.1352539,-0.0881958,1.0341187
1601135468402,967,-0.092285156,-0.012756348,0.9537964
1601135468402,968,-0.092285156,-0.012756348,0.9537964
1601135468402,969,-0.08203125,-0.14019775,0.92889404
1601135468403,970,-0.08203125,-0.14019775,0.92889404
1601135468403,971,-0.15795898,0.07122803,0.96624756
1601135468403,972,-0.092285156,-0.012756348,0.9537964
1601135468403,973,-0.092285156,-0.012756348,0.9537964
1601135468404,974,-0.1352539,-0.0881958,1.0341187
1601135468404,975,-0.092285156,-0.012756348,0.9537964
1601135468404,976,-0.16772461,0.026062012,0.9423218
1601135468404,977,-0.15795898,0.07122803,0.96624756
1601135468405,978,-0.1352539,-0.0881958,1.0341187
1601135468405,979,-0.08203125,-0.14019775,0.92889404
1601135468405,980,-0.15795898,0.07122803,0.96624756
1601135468406,981,-0.16772461,0.026062012,0.9423218
1601135468406,982,-0.1352539,-0.0881958,1.0341187
1601135468415,983,-0.08203125,-0.14019775,0.92889404
1601135468415,984,-0.16430664,-6.1035156E-5,0.96551514
1601135468415,985,-0.092285156,-0.012756348,0.9537964
1601135468415,986,-0.1352539,-0.0881958,1.0341187
1601135468415,987,-0.092285156,-0.012756348,0.9537964
1601135468415,988,-0.1352539,-0.0881958,1.0341187
1601135468415,989,-0.1352539,-0.0881958,1.0341187
1601135468415,990,-0.14404297,0.024353027,0.92059326
1601135468416,991,-0.16430664,-6.1035156E-5,0.96551514
1601135468416,992,-0.16772461,0.026062012,0.9423218
1601135468424,993,-0.16430664,-6.1035156E-5,0.96551514
1601135468425,994,-0.1352539,-0.0881958,1.0341187
1601135468425,995,-0.092285156,-0.012756348,0.9537964
1601135468425,996,-0.15795898,0.07122803,0.96624756
1601135468425,997,-0.15795898,0.07122803,0.96624756
1601135468425,998,-0.15795898,0.07122803,0.96624756
1601135468425,999,-0.15795898,0.07122803,0.96624756
1601135468425,1000,-0.08203125,-0.14019775,0.92889404
1601135468426,1001,-0.1303711,0.039001465,0.8966675
1601135468426,1002,-0.15795898,0.07122803,0.96624756
1601135468426,1003,-0.14404297,0.024353027,0.92059326
1601135468426,1004,-0.092285156,-0.012756348,0.9537964
1601135468426,1005,-0.16772461,0.026062012,0.9423218
1601135468426,1006,-0.1303711,0.039001465,0.8966675
1601135468426,1007,-0.16772461,0.026062012,0.9423218
1601135468426,1008,-0.16430664,-6.1035156E-5,0.96551514
1601135468426,1009,-0.16772461,0.026062012,0.9423218
1601135468426,1010,-0.1538086,0.03704834,0.9747925
1601135468434,1011,-0.1352539,-0.0881958,1.0341187
1601135468435,1012,-0.1538086,0.03704834,0.9747925
1601135468435,1013,-0.14404297,0.024353027,0.92059326
1601135468435,1014,-0.16772461,0.026062012,0.9423218
1601135468435,1015,-0.14404297,0.024353027,0.92059326
1601135468435,1016,-0.1303711,0.039001465,0.8966675
1601135468435,1017,-0.1352539,-0.0881958,1.0341187
1601135468435,1018,-0.1303711,0.039001465,0.8966675
1601135468435,1019,-0.16772461,0.026062012,0.9423218
1601135468435,1020,-0.15478516,0.08441162,0.95477295
1601135468446,1021,-0.1538086,0.03704834,0.9747925
1601135468446,1022,-0.15795898,0.07122803,0.96624756
1601135468446,1023,-0.16430664,-6.1035156E-5,0.96551514
1601135468446,1024,-0.15478516,0.08441162,0.95477295
1601135468446,1025,-0.1538086,0.03704834,0.9747925
1601135468446,1026,-0.16430664,-6.1035156E-5,0.96551514
1601135468447,1027,-0.16015625,0.08538818,0.92401123
1601135468447,1028,-0.15478516,0.08441162,0.95477295
1601135468447,1029,-0.15795898,0.07122803,0.96624756
1601135468447,1030,-0.16430664,-6.1035156E-5,0.96551514
1601135468447,1031,-0.15722656,0.090270996,0.9389038
1601135468447,1032,-0.15478516,0.08441162,0.95477295
1601135468447,1033,-0.16015625,0.08538818,0.92401123
1601135468447,1034,-0.16064453,0.1083374,0.95648193
1601135468447,1035,-0.16015625,0.08538818,0.92401123
1601135468448,1036,-0.14404297,0.024353027,0.92059326
1601135468448,1037,-0.15722656,0.090270996,0.9389038
1601135468448,1038,-0.16772461,0.026062012,0.9423218
1601135468475,1039,-0.16772461,0.026062012,0.9423218
1601135468477,1040,-0.14404297,0.024353027,0.92059326
1601135468480,1041,-0.16430664,-6.1035156E-5,0.96551514
1601135468481,1042,-0.16015625,0.08538818,0.92401123
1601135468481,1043,-0.16430664,-6.1035156E-5,0.96551514
1601135468481,1044,-0.15722656,0.090270996,0.9389038
1601135468481,1045,-0.1303711,0.039001465,0.8966675
1601135468481,1046,-0.16064453,0.09881592,0.9501343
1601135468482,1047,-0.16430664,-6.1035156E-5,0.96551514
1601135468483,1048,-0.1538086,0.03704834,0.9747925
1601135468483,1049,-0.16064453,0.1083374,0.95648193
1601135468483,1050,-0.14404297,0.024353027,0.92059326
1601135468483,1051,-0.1303711,0.039001465,0.8966675
1601135468483,1052,-0.15722656,0.090270996,0.9389038
1601135468483,1053,-0.14404297,0.024353027,0.92059326
1601135468483,1054,-0.14404297,0.024353027,0.92059326
1601135468483,1055,-0.16064453,0.1083374,0.95648193
1601135468484,1056,-0.16064453,0.1083374,0.95648193
1601135468484,1057,-0.14404297,0.024353027,0.92059326
1601135468485,1058,-0.1550293,0.06121826,0.9393921
1601135468485,1059,-0.16064453,0.09881592,0.9501343
1601135468485,1060,-0.13867188,0.06536865,0.9303589
1601135468485,1061,-0.1303711,0.039001465,0.8966675
1601135468485,1062,-0.1538086,0.03704834,0.9747925
1601135468485,1063,-0.1303711,0.039001465,0.8966675
1601135468485,1064,-0.14770508,0.061462402,0.9484253
1601135468485,1065,-0.1538086,0.03704834,0.9747925
1601135468485,1066,-0.15478516,0.08441162,0.95477295
1601135468485,1067,-0.14086914,0.045837402,0.9389038
1601135468486,1068,-0.1303711,0.039001465,0.8966675
1601135468486,1069,-0.15478516,0.08441162,0.95477295
1601135468486,1070,-0.1550293,0.06121826,0.9393921
1601135468486,1071,-0.15478516,0.08441162,0.95477295
1601135468486,1072,-0.1303711,0.039001465,0.8966675
1601135468486,1073,-0.1538086,0.03704834,0.9747925
1601135468486,1074,-0.16064453,0.09881592,0.9501343
1601135468486,1075,-0.1538086,0.03704834,0.9747925
1601135468486,1076,-0.15478516,0.08441162,0.95477295
1601135468486,1077,-0.15478516,0.08441162,0.95477295
1601135468487,1078,-0.16064453,0.09881592,0.9501343
1601135468487,1079,-0.1538086,0.03704834,0.9747925
1601135468487,1080,-0.16015625,0.08538818,0.92401123
1601135468487,1081,-0.13867188,0.06536865,0.9303589
1601135468487,1082,-0.15722656,0.090270996,0.9389038
1601135468490,1083,-0.16015625,0.08538818,0.92401123
1601135468491,1084,-0.14453125,0.06536865,0.93743896
1601135468491,1085,-0.1550293,0.06121826,0.9393921
1601135468491,1086,-0.16015625,0.08538818,0.92401123
1601135468491,1087,-0.13867188,0.06536865,0.9303589
1601135468491,1088,-0.15478516,0.08441162,0.95477295
1601135468491,1089,-0.16015625,0.08538818,0.92401123
1601135468491,1090,-0.1550293,0.06121826,0.9393921
1601135468491,1091,-0.16064453,0.1083374,0.95648193
1601135468491,1092,-0.14770508,0.061462402,0.9484253
1601135468492,1093,-0.15722656,0.090270996,0.9389038
1601135468492,1094,-0.15576172,0.07196045,0.95355225
1601135468494,1095,-0.16015625,0.08538818,0.92401123
1601135468496,1096,-0.15722656,0.090270996,0.9389038
1601135468497,1097,-0.15722656,0.090270996,0.9389038
1601135468497,1098,-0.16064453,0.09881592,0.9501343
1601135468497,1099,-0.14086914,0.045837402,0.9389038
1601135468506,1100,-0.14135742,-0.042541504,0.95965576
1601135468506,1101,-0.15722656,0.090270996,0.9389038
1601135468506,1102,-0.12646484,0.042175293,0.9425659
1601135468506,1103,-0.16015625,0.08538818,0.92401123
1601135468506,1104,-0.16064453,0.1083374,0.95648193
1601135468506,1105,-0.17602539,0.008483887,0.9364624
1601135468506,1106,-0.1550293,0.06121826,0.9393921
1601135468506,1107,-0.16064453,0.1083374,0.95648193
1601135468507,1108,-0.16064453,0.1083374,0.95648193
1601135468507,1109,-0.14453125,0.06536865,0.93743896
1601135468516,1110,-0.14770508,0.061462402,0.9484253
1601135468516,1111,-0.16064453,0.1083374,0.95648193
1601135468516,1112,-0.13867188,0.06536865,0.9303589
1601135468516,1113,-0.15722656,0.090270996,0.9389038
1601135468517,1114,-0.16064453,0.09881592,0.9501343
1601135468517,1115,-0.16308594,-0.017150879,0.9454956
1601135468517,1116,-0.13867188,0.06536865,0.9303589
1601135468517,1117,-0.15576172,0.07196045,0.95355225
1601135468517,1118,-0.16064453,0.1083374,0.95648193
1601135468518,1119,-0.13476562,-0.003479004,0.9569702
1601135468518,1120,-0.16064453,0.09881592,0.9501343
1601135468518,1121,-0.14135742,-0.042541504,0.95965576
1601135468518,1122,-0.13720703,-0.00592041,0.97283936
1601135468518,1123,-0.14770508,0.061462402,0.9484253
1601135468518,1124,-0.06274414,0.0067749023,0.9076538
1601135468518,1125,-0.16064453,0.09881592,0.9501343
1601135468519,1126,-0.14086914,0.045837402,0.9389038
1601135468520,1127,-0.1550293,0.06121826,0.9393921
1601135468532,1128,-0.14770508,0.061462402,0.9484253
1601135468532,1129,-0.1550293,0.06121826,0.9393921
1601135468532,1130,-0.1550293,0.06121826,0.9393921
1601135468532,1131,-0.14086914,0.045837402,0.9389038
1601135468533,1132,-0.045166016,0.08343506,0.9579468
1601135468533,1133,-0.16064453,0.09881592,0.9501343
1601135468533,1134,-0.12646484,0.042175293,0.9425659
1601135468533,1135,-0.14453125,0.06536865,0.93743896
1601135468533,1136,-0.16064453,0.09881592,0.9501343
1601135468533,1137,-0.13867188,0.06536865,0.9303589
1601135468541,1138,-0.14086914,0.045837402,0.9389038
1601135468541,1139,-0.14770508,0.061462402,0.9484253
1601135468541,1140,-0.14453125,0.06536865,0.93743896
1601135468541,1141,-0.13867188,0.06536865,0.9303589
1601135468542,1142,-0.17602539,0.008483887,0.9364624
1601135468543,1143,-0.15576172,0.07196045,0.95355225
1601135468543,1144,-0.14453125,0.06536865,0.93743896
1601135468543,1145,-0.07348633,0.07366943,0.9750366
1601135468543,1146,-0.1550293,0.06121826,0.9393921
1601135468543,1147,-0.13867188,0.06536865,0.9303589
1601135468543,1148,-0.14770508,0.061462402,0.9484253
1601135468543,1149,-0.052246094,0.053649902,0.9586792
1601135468543,1150,-0.15576172,0.07196045,0.95355225
1601135468543,1151,-0.14086914,0.045837402,0.9389038
1601135468543,1152,-0.16308594,-0.017150879,0.9454956
1601135468543,1153,-0.14135742,-0.042541504,0.95965576
1601135468555,1154,-0.14135742,-0.042541504,0.95965576
1601135468557,1155,-0.13867188,0.06536865,0.9303589
1601135468557,1156,-0.12646484,0.042175293,0.9425659
1601135468557,1157,-0.14453125,0.06536865,0.93743896
1601135468558,1158,-0.14770508,0.061462402,0.9484253
1601135468558,1159,-0.15576172,0.07196045,0.95355225
1601135468558,1160,-0.14086914,0.045837402,0.9389038
1601135468559,1161,-0.13476562,-0.003479004,0.9569702
1601135468559,1162,-0.14453125,0.06536865,0.93743896
1601135468559,1163,-0.15576172,0.07196045,0.95355225
1601135468559,1164,-0.13720703,-0.00592041,0.97283936
1601135468559,1165,-0.1550293,0.06121826,0.9393921
1601135468559,1166,-0.06274414,0.0067749023,0.9076538
1601135468560,1167,-0.14770508,0.061462402,0.9484253
1601135468560,1168,-0.14086914,0.045837402,0.9389038
1601135468560,1169,-0.14135742,-0.042541504,0.95965576
1601135468560,1170,-0.042236328,0.02166748,0.9371948
1601135468560,1171,-0.12646484,0.042175293,0.9425659
1601135468560,1172,-0.12646484,0.042175293,0.9425659
1601135468560,1173,-0.15576172,0.07196045,0.95355225
1601135468560,1174,-0.17602539,0.008483887,0.9364624
1601135468560,1175,-0.14453125,0.06536865,0.93743896
1601135468560,1176,-0.14086914,0.045837402,0.9389038
1601135468560,1177,-0.13867188,0.06536865,0.9303589
1601135468560,1178,-0.03857422,0.04949951,0.9598999
1601135468560,1179,-0.14135742,-0.042541504,0.95965576
1601135468560,1180,-0.17602539,0.008483887,0.9364624
1601135468561,1181,-0.045166016,0.08343506,0.9579468
1601135468561,1182,-0.15576172,0.07196045,0.95355225
1601135468561,1183,-0.16308594,-0.017150879,0.9454956
1601135468561,1184,-0.14135742,-0.042541504,0.95965576
1601135468561,1185,-0.16308594,-0.017150879,0.9454956
1601135468561,1186,-0.17602539,0.008483887,0.9364624
1601135468561,1187,-0.14770508,0.061462402,0.9484253
1601135468561,1188,-0.07348633,0.07366943,0.9750366
1601135468561,1189,-0.14453125,0.06536865,0.93743896
1601135468561,1190,-0.14086914,0.045837402,0.9389038
1601135468562,1191,-0.13476562,-0.003479004,0.9569702
1601135468562,1192,-0.14135742,-0.042541504,0.95965576
1601135468562,1193,-0.12646484,0.042175293,0.9425659
1601135468563,1194,-0.13476562,-0.003479004,0.9569702
1601135468563,1195,-0.12646484,0.042175293,0.9425659
1601135468563,1196,-0.13720703,-0.00592041,0.97283936
1601135468563,1197,-0.052246094,0.053649902,0.9586792
1601135468564,1198,-0.14453125,0.06536865,0.93743896
1601135468564,1199,-0.15576172,0.07196045,0.95355225
1601135468564,1200,-0.042236328,0.02166748,0.9371948
1601135468570,1201,-0.17602539,0.008483887,0.9364624
1601135468570,1202,-0.03857422,0.04949951,0.9598999
1601135468570,1203,-0.17602539,0.008483887,0.9364624
1601135468570,1204,-0.14135742,-0.042541504,0.95965576
1601135468571,1205,-0.15576172,0.07196045,0.95355225
1601135468571,1206,-0.12646484,0.042175293,0.9425659
1601135468571,1207,-0.13720703,-0.00592041,0.97283936
1601135468571,1208,-0.14135742,-0.042541504,0.95965576
1601135468571,1209,-0.06274414,0.0067749023,0.9076538
1601135468571,1210,-0.06274414,0.0067749023,0.9076538
1601135468571,1211,-0.16308594,-0.017150879,0.9454956
1601135468571,1212,-0.045166016,0.08343506,0.9579468
1601135468571,1213,-0.16308594,-0.017150879,0.9454956
1601135468571,1214,-0.07348633,0.07366943,0.9750366
1601135468571,1215,-0.13476562,-0.003479004,0.9569702
1601135468571,1216,-0.12646484,0.042175293,0.9425659
1601135468571,1217,-0.13720703,-0.00592041,0.97283936
1601135468571,1218,-0.16308594,-0.017150879,0.9454956
1601135468572,1219,-0.045166016,0.08343506,0.9579468
1601135468581,1220,-0.052246094,0.053649902,0.9586792
1601135468581,1221,-0.17602539,0.008483887,0.9364624
1601135468581,1222,-0.06274414,0.0067749023,0.9076538
1601135468581,1223,-0.13476562,-0.003479004,0.9569702
1601135468581,1224,-0.12646484,0.042175293,0.9425659
1601135468581,1225,-0.17602539,0.008483887,0.9364624
1601135468581,1226,-0.13476562,-0.003479004,0.9569702
1601135468581,1227,-0.16308594,-0.017150879,0.9454956
1601135468581,1228,-0.17602539,0.008483887,0.9364624
1601135468581,1229,-0.042236328,0.02166748,0.9371948
1601135468581,1230,-0.045166016,0.08343506,0.9579468
1601135468582,1231,-0.13720703,-0.00592041,0.97283936
1601135468582,1232,-0.07348633,0.07366943,0.9750366
1601135468582,1233,-0.16308594,-0.017150879,0.9454956
1601135468582,1234,-0.03857422,0.04949951,0.9598999
1601135468582,1235,-0.13476562,-0.003479004,0.9569702
1601135468582,1236,-0.07348633,0.07366943,0.9750366
1601135468582,1237,-0.13720703,-0.00592041,0.97283936
1601135468582,1238,-0.06274414,0.0067749023,0.9076538
1601135468582,1239,-0.06274414,0.0067749023,0.9076538
1601135468588,1240,-0.16308594,-0.017150879,0.9454956
1601135468588,1241,-0.13720703,-0.00592041,0.97283936
1601135468588,1242,-0.13476562,-0.003479004,0.9569702
1601135468589,1243,-0.052246094,0.053649902,0.9586792
1601135468589,1244,-0.13720703,-0.00592041,0.97283936
1601135468589,1245,-0.052246094,0.053649902,0.9586792
1601135468589,1246,-0.06274414,0.0067749023,0.9076538
1601135468589,1247,-0.042236328,0.02166748,0.9371948
1601135468589,1248,-0.045166016,0.08343506,0.9579468
1601135468589,1249,-0.06274414,0.0067749023,0.9076538
1601135468589,1250,-0.045166016,0.08343506,0.9579468
1601135468589,1251,-0.045166016,0.08343506,0.9579468
1601135468590,1252,-0.07348633,0.07366943,0.9750366
1601135468590,1253,-0.13476562,-0.003479004,0.9569702
1601135468590,1254,-0.052246094,0.053649902,0.9586792
1601135468590,1255,-0.042236328,0.02166748,0.9371948
1601135468590,1256,-0.045166016,0.08343506,0.9579468
1601135468590,1257,-0.07348633,0.07366943,0.9750366
1601135468590,1258,-0.03857422,0.04949951,0.9598999
1601135468591,1259,-0.052246094,0.053649902,0.9586792
1601135468592,1260,-0.13720703,-0.00592041,0.97283936
1601135468596,1261,-0.07348633,0.07366943,0.9750366
1601135468598,1262,-0.042236328,0.02166748,0.9371948
1601135468598,1263,-0.07348633,0.07366943,0.9750366
1601135468598,1264,-0.052246094,0.053649902,0.9586792
1601135468598,1265,-0.042236328,0.02166748,0.9371948
1601135468599,1266,-0.052246094,0.053649902,0.9586792
1601135468599,1267,-0.03857422,0.04949951,0.9598999
1601135468599,1268,-0.042236328,0.02166748,0.9371948
1601135468599,1269,-0.03857422,0.04949951,0.9598999
1601135468599,1270,-0.03857422,0.04949951,0.9598999
1601135468599,1271,-0.06274414,0.0067749023,0.9076538
1601135468599,1272,-0.042236328,0.02166748,0.9371948
1601135468601,1273,-0.045166016,0.08343506,0.9579468
1601135468601,1274,-0.03857422,0.04949951,0.9598999
1601135468601,1275,-0.03857422,0.04949951,0.9598999
1601135468602,1276,-0.07348633,0.07366943,0.9750366
1601135468604,1277,-0.052246094,0.053649902,0.9586792
1601135468604,1278,-0.042236328,0.02166748,0.9371948
1601135468605,1279,-0.03857422,0.04949951,0.9598999
1601135470909,1280,-0.052978516,0.055847168,0.95965576
1601135470910,1281,-0.052978516,0.055847168,0.95965576
1601135470910,1282,-0.052978516,0.055847168,0.95965576
1601135470910,1283,-0.052978516,0.055847168,0.95965576
1601135470910,1284,-0.052978516,0.055847168,0.95965576
1601135470910,1285,-0.044189453,0.0289917,0.9515991
1601135470910,1286,-0.052978516,0.055847168,0.95965576
1601135470910,1287,-0.044189453,0.0289917,0.9515991
1601135470910,1288,-0.03857422,0.0067749023,0.9384155
1601135470910,1289,-0.044189453,0.0289917,0.9515991
1601135470911,1290,-0.041503906,-3.0517578E-4,0.95233154
1601135470911,1291,-0.044189453,0.0289917,0.9515991
1601135470911,1292,-0.044189453,0.0289917,0.9515991
1601135470911,1293,-0.03857422,0.0067749023,0.9384155
1601135470911,1294,-0.03857422,0.0067749023,0.9384155
1601135470911,1295,-0.041503906,-3.0517578E-4,0.95233154
1601135470911,1296,-0.052978516,0.055847168,0.95965576
1601135470911,1297,-0.041503906,-3.0517578E-4,0.95233154
1601135470911,1298,-0.052978516,0.055847168,0.95965576
1601135470911,1299,-0.03857422,0.0067749023,0.9384155
1601135470911,1300,-0.056884766,0.005065918,0.9557495
1601135470920,1301,-0.03857422,0.0067749023,0.9384155
1601135470920,1302,-0.044189453,0.0289917,0.9515991
1601135470920,1303,-0.068603516,0.007507324,0.94989014
1601135470920,1304,-0.044189453,0.0289917,0.9515991
1601135470921,1305,-0.052978516,0.055847168,0.95965576
1601135470921,1306,-0.056884766,0.005065918,0.9557495
1601135470921,1307,-0.052978516,0.055847168,0.95965576
1601135470921,1308,-0.044189453,0.0289917,0.9515991
1601135470921,1309,-0.041503906,-3.0517578E-4,0.95233154
1601135470921,1310,-0.056884766,0.005065918,0.9557495
1601135470921,1311,-0.041503906,-3.0517578E-4,0.95233154
1601135470921,1312,-0.03857422,0.0067749023,0.9384155
1601135470922,1313,-0.03857422,0.0067749023,0.9384155
1601135470922,1314,-0.068603516,0.007507324,0.94989014
1601135470922,1315,-0.03857422,0.0067749023,0.9384155
1601135470922,1316,-0.064208984,0.002380371,0.94989014
1601135470922,1317,-0.044189453,0.0289917,0.9515991
1601135470922,1318,-0.044189453,0.0289917,0.9515991
1601135470922,1319,-0.03857422,0.0067749023,0.9384155
1601135470922,1320,-0.03857422,0.0067749023,0.9384155
1601135470924,1321,-0.056884766,0.005065918,0.9557495
1601135470924,1322,-0.068603516,0.007507324,0.94989014
1601135470927,1323,-0.056884766,0.005065918,0.9557495
1601135470927,1324,-0.041503906,-3.0517578E-4,0.95233154
1601135470942,1325,-0.068603516,0.007507324,0.94989014
1601135470942,1326,-0.041503906,-3.0517578E-4,0.95233154
1601135470942,1327,-0.068603516,0.007507324,0.94989014
1601135470942,1328,-0.064208984,0.002380371,0.94989014
1601135470942,1329,-0.041503906,-3.0517578E-4,0.95233154
1601135470942,1330,-0.064208984,0.002380371,0.94989014
1601135470943,1331,-0.064208984,0.004333496,0.94403076
1601135470943,1332,-0.041503906,-3.0517578E-4,0.95233154
1601135470943,1333,-0.064208984,0.002380371,0.94989014
1601135470943,1334,-0.056884766,0.005065918,0.9557495
1601135470944,1335,-0.064208984,0.004333496,0.94403076
1601135470944,1336,-0.064208984,0.002380371,0.94989014
1601135470944,1337,-0.056884766,0.005065918,0.9557495
1601135470944,1338,-0.064208984,0.004333496,0.94403076
1601135470944,1339,-0.056884766,0.005065918,0.9557495
1601135470944,1340,-0.056884766,0.005065918,0.9557495
1601135470945,1341,-0.064208984,0.004333496,0.94403076
1601135470945,1342,-0.068603516,0.007507324,0.94989014
1601135470945,1343,-0.064208984,-0.0032348633,0.9425659
1601135470945,1344,-0.064208984,0.002380371,0.94989014
1601135470945,1345,-0.064208984,-0.0032348633,0.9425659
1601135470945,1346,-0.07421875,0.0028686523,0.94989014
1601135470945,1347,-0.064208984,0.004333496,0.94403076
1601135470947,1348,-0.064208984,-0.0032348633,0.9425659
1601135470947,1349,-0.068115234,0.009216309,0.9569702
1601135470947,1350,-0.064208984,-0.0032348633,0.9425659
1601135470947,1351,-0.064208984,0.004333496,0.94403076
1601135470947,1352,-0.064208984,-0.0032348633,0.9425659
1601135470948,1353,-0.041503906,-3.0517578E-4,0.95233154
1601135470948,1354,-0.07421875,0.0028686523,0.94989014
1601135470948,1355,-0.068603516,0.007507324,0.94989014
1601135470948,1356,-0.068603516,0.007507324,0.94989014
1601135470948,1357,-0.056884766,0.005065918,0.9557495
1601135470949,1358,-0.064208984,-0.0032348633,0.9425659
1601135470949,1359,-0.07421875,0.0028686523,0.94989014
1601135470949,1360,-0.07421875,0.0028686523,0.94989014
1601135470950,1361,-0.068603516,0.007507324,0.94989014
1601135470950,1362,-0.068115234,0.009216309,0.9569702
1601135470950,1363,-0.064208984,0.002380371,0.94989014
1601135470950,1364,-0.068115234,0.009216309,0.9569702
1601135470950,1365,-0.07006836,0.007751465,0.94866943
1601135470950,1366,-0.064208984,0.002380371,0.94989014
1601135470950,1367,-0.07421875,0.0028686523,0.94989014
1601135470950,1368,-0.068603516,0.007507324,0.94989014
1601135470951,1369,-0.07006836,0.007751465,0.94866943
1601135470951,1370,-0.068115234,0.009216309,0.9569702
1601135470951,1371,-0.064208984,0.002380371,0.94989014
1601135470951,1372,-0.068115234,0.009216309,0.9569702
1601135470951,1373,-0.064208984,0.004333496,0.94403076
1601135470952,1374,-0.07421875,0.0028686523,0.94989014
1601135470961,1375,-0.07104492,0.019958496,0.9579468
1601135470961,1376,-0.064208984,0.004333496,0.94403076
1601135470961,1377,-0.064208984,0.002380371,0.94989014
1601135470961,1378,-0.07006836,0.007751465,0.94866943
1601135470961,1379,-0.07104492,0.019958496,0.9579468
1601135470961,1380,-0.064208984,0.004333496,0.94403076
1601135470961,1381,-0.064208984,0.004333496,0.94403076
1601135470961,1382,-0.064208984,-0.0032348633,0.9425659
1601135470961,1383,-0.07006836,0.007751465,0.94866943
1601135470962,1384,-0.068115234,0.009216309,0.9569702
1601135470962,1385,-0.059814453,0.008728027,0.95843506
1601135470963,1386,-0.07006836,0.007751465,0.94866943
1601135470963,1387,-0.07104492,0.019958496,0.9579468
1601135470969,1388,-0.059814453,0.008728027,0.95843506
1601135470969,1389,-0.07104492,0.019958496,0.9579468
1601135470969,1390,-0.064208984,-0.0032348633,0.9425659
1601135470970,1391,-0.07006836,0.007751465,0.94866943
1601135470970,1392,-0.064208984,-0.0032348633,0.9425659
1601135470970,1393,-0.07421875,0.0028686523,0.94989014
1601135470970,1394,-0.07421875,0.0028686523,0.94989014
1601135470970,1395,-0.064208984,-0.0032348633,0.9425659
1601135470970,1396,-0.068115234,0.009216309,0.9569702
1601135470970,1397,-0.059814453,0.008728027,0.95843506
1601135470976,1398,-0.059814453,0.008728027,0.95843506
1601135470976,1399,-0.059326172,0.0036010742,0.9467163
1601135470976,1400,-0.07421875,0.0028686523,0.94989014
1601135470976,1401,-0.07128906,0.020202637,0.9503784
1601135470977,1402,-0.07104492,0.019958496,0.9579468
1601135470977,1403,-0.068115234,0.009216309,0.9569702
1601135470977,1404,-0.07421875,0.0028686523,0.94989014
1601135470977,1405,-0.07006836,0.007751465,0.94866943
1601135470977,1406,-0.059326172,0.0036010742,0.9467163
1601135470977,1407,-0.068115234,0.009216309,0.9569702
1601135470977,1408,-0.07104492,0.019958496,0.9579468
1601135470979,1409,-0.059326172,0.0036010742,0.9467163
1601135470987,1410,-0.068847656,0.023376465,0.95233154
1601135470987,1411,-0.07128906,0.020202637,0.9503784
1601135470987,1412,-0.059326172,0.0036010742,0.9467163
1601135470987,1413,-0.07104492,0.019958496,0.9579468
1601135470987,1414,-0.064697266,0.026062012,0.94573975
1601135470988,1415,-0.059814453,0.008728027,0.95843506
1601135470988,1416,-0.068115234,0.009216309,0.9569702
1601135470988,1417,-0.059814453,0.008728027,0.95843506
1601135470988,1418,-0.059814453,0.008728027,0.95843506
1601135470988,1419,-0.059326172,0.0036010742,0.9467163
1601135470988,1420,-0.059326172,0.0036010742,0.9467163
1601135470988,1421,-0.07006836,0.007751465,0.94866943
1601135470988,1422,-0.068847656,0.023376465,0.95233154
1601135470988,1423,-0.07128906,0.020202637,0.9503784
1601135470988,1424,-0.07128906,0.020202637,0.9503784
1601135470988,1425,-0.060791016,0.021911621,0.9603882
1601135470990,1426,-0.07104492,0.019958496,0.9579468
1601135470990,1427,-0.07006836,0.007751465,0.94866943
1601135470991,1428,-0.07104492,0.019958496,0.9579468
1601135470991,1429,-0.07006836,0.007751465,0.94866943
1601135471002,1430,-0.068847656,0.023376465,0.95233154
1601135471004,1431,-0.07104492,0.019958496,0.9579468
1601135471004,1432,-0.059814453,0.008728027,0.95843506
1601135471004,1433,-0.059814453,0.008728027,0.95843506
1601135471004,1434,-0.06738281,0.039245605,0.95355225
1601135471006,1435,-0.059814453,0.008728027,0.95843506
1601135471006,1436,-0.059326172,0.0036010742,0.9467163
1601135471006,1437,-0.064697266,0.026062012,0.94573975
1601135471006,1438,-0.07128906,0.020202637,0.9503784
1601135471006,1439,-0.060791016,0.03265381,0.95233154
1601135471006,1440,-0.060791016,0.021911621,0.9603882
1601135471007,1441,-0.064697266,0.026062012,0.94573975
1601135471007,1442,-0.06640625,0.041931152,0.95355225
1601135471007,1443,-0.059326172,0.0036010742,0.9467163
1601135471007,1444,-0.07128906,0.020202637,0.9503784
1601135471007,1445,-0.059326172,0.0036010742,0.9467163
1601135471007,1446,-0.07128906,0.020202637,0.9503784
1601135471007,1447,-0.059326172,0.0036010742,0.9467163
1601135471007,1448,-0.06738281,0.039245605,0.95355225
1601135471007,1449,-0.060791016,0.03265381,0.95233154
1601135471007,1450,-0.060791016,0.021911621,0.9603882
1601135471008,1451,-0.06738281,0.039245605,0.95355225
1601135471008,1452,-0.068847656,0.023376465,0.95233154
1601135471011,1453,-0.07128906,0.020202637,0.9503784
1601135471011,1454,-0.068847656,0.023376465,0.95233154
1601135471011,1455,-0.068847656,0.023376465,0.95233154
1601135471012,1456,-0.068847656,0.023376465,0.95233154
1601135471012,1457,-0.07128906,0.020202637,0.9503784
1601135471012,1458,-0.06640625,0.041931152,0.95355225
1601135471012,1459,-0.064697266,0.026062012,0.94573975
1601135471012,1460,-0.060791016,0.03265381,0.95233154
1601135471012,1461,-0.068847656,0.023376465,0.95233154
1601135471020,1462,-0.064697266,0.026062012,0.94573975
1601135471021,1463,-0.064697266,0.026062012,0.94573975
1601135471021,1464,-0.064697266,0.026062012,0.94573975
1601135471021,1465,-0.060791016,0.021911621,0.9603882
1601135471022,1466,-0.07128906,0.020202637,0.9503784
1601135471022,1467,-0.05908203,0.043151855,0.95721436
1601135471022,1468,-0.06738281,0.039245605,0.95355225
1601135471022,1469,-0.060791016,0.021911621,0.9603882
1601135471022,1470,-0.068847656,0.023376465,0.95233154
1601135471022,1471,-0.064697266,0.026062012,0.94573975
1601135471022,1472,-0.06738281,0.039245605,0.95355225
1601135471023,1473,-0.068847656,0.023376465,0.95233154
1601135471023,1474,-0.060791016,0.021911621,0.9603882
1601135471023,1475,-0.060791016,0.03265381,0.95233154
1601135471023,1476,-0.05444336,0.03778076,0.9508667
1601135471023,1477,-0.05908203,0.043151855,0.95721436
1601135471023,1478,-0.060791016,0.021911621,0.9603882
1601135471023,1479,-0.06640625,0.041931152,0.95355225
1601135471023,1480,-0.064697266,0.026062012,0.94573975
1601135471027,1481,-0.060791016,0.021911621,0.9603882
1601135471027,1482,-0.060791016,0.03265381,0.95233154
1601135471029,1483,-0.06738281,0.039245605,0.95355225
1601135471030,1484,-0.064697266,0.026062012,0.94573975
1601135471030,1485,-0.059570312,0.043151855,0.9557495
1601135471030,1486,-0.06738281,0.039245605,0.95355225
1601135471030,1487,-0.060791016,0.021911621,0.9603882
1601135471030,1488,-0.06640625,0.041931152,0.95355225
1601135471030,1489,-0.05908203,0.043151855,0.95721436
1601135471030,1490,-0.060791016,0.021911621,0.9603882
1601135471031,1491,-0.06738281,0.039245605,0.95355225
1601135471031,1492,-0.05444336,0.03778076,0.9508667
1601135471031,1493,-0.07128906,0.038024902,0.963562
1601135471031,1494,-0.060791016,0.03265381,0.95233154
1601135471035,1495,-0.05908203,0.043151855,0.95721436
1601135471035,1496,-0.060791016,0.03265381,0.95233154
1601135471035,1497,-0.06640625,0.041931152,0.95355225
1601135471035,1498,-0.060791016,0.03265381,0.95233154
1601135471035,1499,-0.05444336,0.03778076,0.9508667
1601135471035,1500,-0.06738281,0.039245605,0.95355225
1601135471035,1501,-0.06640625,0.041931152,0.95355225
1601135471035,1502,-0.059570312,0.043151855,0.9557495
1601135471035,1503,-0.05444336,0.03778076,0.9508667
1601135471036,1504,-0.06640625,0.041931152,0.95355225
1601135471036,1505,-0.059570312,0.043151855,0.9557495
1601135471036,1506,-0.05908203,0.043151855,0.95721436
1601135471037,1507,-0.08129883,0.0289917,1.0089722
1601135471041,1508,-0.060791016,0.03265381,0.95233154
1601135471041,1509,-0.059570312,0.043151855,0.9557495
1601135471041,1510,-0.06738281,0.039245605,0.95355225
1601135471041,1511,-0.07128906,0.038024902,0.963562
1601135471041,1512,-0.07128906,0.038024902,0.963562
1601135471041,1513,-0.05908203,0.043151855,0.95721436
1601135471042,1514,-0.06640625,0.041931152,0.95355225
1601135471042,1515,-0.05908203,0.043151855,0.95721436
1601135471042,1516,-0.05444336,0.03778076,0.9508667
1601135471050,1517,-0.060791016,0.03265381,0.95233154
1601135471050,1518,-0.07128906,0.038024902,0.963562
1601135471051,1519,-0.06640625,0.041931152,0.95355225
1601135471051,1520,-0.08129883,0.0289917,1.0089722
1601135471051,1521,-0.08129883,0.0289917,1.0089722
1601135471052,1522,-0.08129883,0.0289917,1.0089722
1601135471052,1523,-0.05908203,0.043151855,0.95721436
1601135471052,1524,-0.05444336,0.03778076,0.9508667
1601135471052,1525,-0.13891602,-0.05303955,1.0438843
1601135471052,1526,-0.059570312,0.043151855,0.9557495
1601135471052,1527,-0.06640625,0.041931152,0.95355225
1601135471052,1528,-0.05444336,0.03778076,0.9508667
1601135471054,1529,-0.13891602,-0.05303955,1.0438843
1601135471055,1530,-0.13891602,-0.05303955,1.0438843
1601135471059,1531,-0.059570312,0.043151855,0.9557495
1601135471060,1532,-0.18823242,-0.03668213,0.98773193
1601135471060,1533,-0.05908203,0.043151855,0.95721436
1601135471060,1534,-0.05908203,0.043151855,0.95721436
1601135471060,1535,-0.059570312,0.043151855,0.9557495
1601135471060,1536,-0.13891602,-0.05303955,1.0438843
1601135471060,1537,-0.18823242,-0.03668213,0.98773193
1601135471060,1538,-0.05444336,0.03778076,0.9508667
1601135471084,1539,-0.07128906,0.038024902,0.963562
1601135471084,1540,-0.18823242,-0.03668213,0.98773193
1601135471084,1541,-0.08959961,-0.2312622,0.95477295
1601135471084,1542,-0.07128906,0.038024902,0.963562
1601135471084,1543,-0.05444336,0.03778076,0.9508667
1601135471085,1544,-0.08129883,0.0289917,1.0089722
1601135471085,1545,-0.08959961,-0.2312622,0.95477295
1601135471085,1546,-0.05444336,0.03778076,0.9508667
1601135471085,1547,-0.18823242,-0.03668213,0.98773193
1601135471085,1548,-0.059570312,0.043151855,0.9557495
1601135471085,1549,-0.059570312,0.043151855,0.9557495
1601135471085,1550,-0.08959961,-0.2312622,0.95477295
1601135471085,1551,-0.07128906,0.038024902,0.963562
1601135471085,1552,-0.059570312,0.043151855,0.9557495
1601135471085,1553,-0.08129883,0.0289917,1.0089722
1601135471085,1554,-0.07128906,0.038024902,0.963562
1601135471086,1555,-0.09692383,-0.074279785,0.94940186
1601135471087,1556,-0.09692383,-0.074279785,0.94940186
1601135471088,1557,-0.13891602,-0.05303955,1.0438843
1601135471088,1558,-0.13891602,-0.05303955,1.0438843
1601135471089,1559,-0.08129883,0.0289917,1.0089722
1601135471090,1560,-0.08129883,0.0289917,1.0089722
1601135471090,1561,-0.08959961,-0.2312622,0.95477295
1601135471090,1562,-0.09692383,-0.074279785,0.94940186
1601135471091,1563,-0.18823242,-0.03668213,0.98773193
1601135471091,1564,-0.07128906,0.038024902,0.963562
1601135471091,1565,-0.06591797,-0.17095947,0.9081421
1601135471091,1566,-0.18823242,-0.03668213,0.98773193
1601135471091,1567,-0.07128906,0.038024902,0.963562
1601135471091,1568,-0.13891602,-0.05303955,1.0438843
1601135471091,1569,-0.09692383,-0.074279785,0.94940186
1601135471091,1570,-0.06591797,-0.17095947,0.9081421
1601135471091,1571,-0.08129883,0.0289917,1.0089722
1601135471091,1572,-0.08959961,-0.2312622,0.95477295
1601135471091,1573,-0.06591797,-0.17095947,0.9081421
1601135471091,1574,-0.09692383,-0.074279785,0.94940186
1601135471092,1575,-0.13891602,-0.05303955,1.0438843
1601135471095,1576,-0.08959961,-0.2312622,0.95477295
1601135471095,1577,-0.18823242,-0.03668213,0.98773193
1601135471095,1578,-0.06591797,-0.17095947,0.9081421
1601135471095,1579,-0.06591797,-0.17095947,0.9081421
1601135471095,1580,-0.08129883,0.0289917,1.0089722
1601135471095,1581,-0.18823242,-0.03668213,0.98773193
1601135471095,1582,-0.13891602,-0.05303955,1.0438843
1601135471095,1583,-0.13891602,-0.05303955,1.0438843
1601135471095,1584,-0.18823242,-0.03668213,0.98773193
1601135471095,1585,-0.09692383,-0.074279785,0.94940186
1601135471096,1586,-0.08959961,-0.2312622,0.95477295
1601135471098,1587,-0.08959961,-0.2312622,0.95477295
1601135471100,1588,-0.06591797,-0.17095947,0.9081421
1601135471101,1589,-0.18823242,-0.03668213,0.98773193
1601135471101,1590,-0.09692383,-0.074279785,0.94940186
1601135471101,1591,-0.08959961,-0.2312622,0.95477295
1601135471101,1592,-0.09692383,-0.074279785,0.94940186
1601135471101,1593,-0.08959961,-0.2312622,0.95477295
1601135471102,1594,-0.06591797,-0.17095947,0.9081421
1601135471102,1595,-0.09692383,-0.074279785,0.94940186
1601135471102,1596,-0.09692383,-0.074279785,0.94940186
1601135471102,1597,-0.06591797,-0.17095947,0.9081421
1601135471104,1598,-0.06591797,-0.17095947,0.9081421
1601135471106,1599,-0.06591797,-0.17095947,0.9081421
1601135473460,1600,-0.06518555,-0.27130127,0.8878784
1601135473463,1601,-0.06518555,-0.27130127,0.8878784
1601135473463,1602,-0.06518555,-0.27130127,0.8878784
1601135473464,1603,-0.08105469,-0.32525635,0.8822632
1601135473464,1604,-0.06518555,-0.27130127,0.8878784
1601135473465,1605,-0.06518555,-0.27130127,0.8878784
1601135473466,1606,-0.08105469,-0.32525635,0.8822632
1601135473467,1607,-0.08105469,-0.32525635,0.8822632
1601135473467,1608,-0.08105469,-0.32525635,0.8822632
1601135473467,1609,-0.111572266,-0.39508057,0.8331909
1601135473479,1610,-0.06518555,-0.27130127,0.8878784
1601135473480,1611,-0.111572266,-0.39508057,0.8331909
1601135473480,1612,-0.06518555,-0.27130127,0.8878784
1601135473480,1613,-0.08105469,-0.32525635,0.8822632
1601135473480,1614,-0.06518555,-0.27130127,0.8878784
1601135473480,1615,-0.06518555,-0.27130127,0.8878784
1601135473480,1616,-0.111572266,-0.39508057,0.8331909
1601135473480,1617,-0.12719727,-0.4126587,0.8773804
1601135473481,1618,-0.12719727,-0.4126587,0.8773804
1601135473481,1619,-0.09790039,-0.46343994,0.8197632
1601135473481,1620,-0.06518555,-0.27130127,0.8878784
1601135473481,1621,-0.111572266,-0.39508057,0.8331909
1601135473481,1622,-0.08105469,-0.32525635,0.8822632
1601135473481,1623,-0.12719727,-0.4126587,0.8773804
1601135473482,1624,-0.111572266,-0.39508057,0.8331909
1601135473482,1625,-0.08105469,-0.32525635,0.8822632
1601135473482,1626,-0.08105469,-0.32525635,0.8822632
1601135473484,1627,-0.08105469,-0.32525635,0.8822632
1601135473501,1628,-0.06713867,-0.45635986,0.7987671
1601135473502,1629,-0.08105469,-0.32525635,0.8822632
1601135473502,1630,-0.057373047,-0.4512329,0.85369873
1601135473503,1631,-0.12719727,-0.4126587,0.8773804
1601135473503,1632,-0.09790039,-0.46343994,0.8197632
1601135473503,1633,-0.111572266,-0.39508057,0.8331909
1601135473504,1634,-0.111572266,-0.39508057,0.8331909
1601135473504,1635,-0.12719727,-0.4126587,0.8773804
1601135473504,1636,-0.12719727,-0.4126587,0.8773804
1601135473504,1637,-0.09790039,-0.46343994,0.8197632
1601135473504,1638,-0.111572266,-0.39508057,0.8331909
1601135473505,1639,-0.09790039,-0.46343994,0.8197632
1601135473505,1640,-0.06713867,-0.45635986,0.7987671
1601135473505,1641,-0.095458984,-0.45465088,0.87054443
1601135473505,1642,-0.057373047,-0.4512329,0.85369873
1601135473505,1643,-0.111572266,-0.39508057,0.8331909
1601135473505,1644,-0.12719727,-0.4126587,0.8773804
1601135473505,1645,-0.06713867,-0.45635986,0.7987671
1601135473505,1646,-0.09790039,-0.46343994,0.8197632
1601135473505,1647,-0.06713867,-0.45635986,0.7987671
1601135473505,1648,-0.057373047,-0.4512329,0.85369873
1601135473505,1649,-0.09790039,-0.46343994,0.8197632
1601135473505,1650,-0.06713867,-0.45635986,0.7987671
1601135473505,1651,-0.095458984,-0.45465088,0.87054443
1601135473505,1652,-0.08154297,-0.4668579,0.8434448
1601135473506,1653,-0.08154297,-0.4668579,0.8434448
1601135473506,1654,-0.12719727,-0.4126587,0.8773804
1601135473506,1655,-0.05834961,-0.4854126,0.821228
1601135473506,1656,-0.111572266,-0.39508057,0.8331909
1601135473506,1657,-0.08862305,-0.4841919,0.8163452
1601135473506,1658,-0.06713867,-0.45635986,0.7987671
1601135473506,1659,-0.09790039,-0.46343994,0.8197632
1601135473507,1660,-0.057373047,-0.4512329,0.85369873
1601135473507,1661,-0.05834961,-0.4854126,0.821228
1601135473507,1662,-0.12719727,-0.4126587,0.8773804
1601135473508,1663,-0.12719727,-0.4126587,0.8773804
1601135473510,1664,-0.057373047,-0.4512329,0.85369873
1601135473516,1665,-0.06713867,-0.45635986,0.7987671
1601135473516,1666,-0.095458984,-0.45465088,0.87054443
1601135473516,1667,-0.095458984,-0.45465088,0.87054443
1601135473516,1668,-0.09790039,-0.46343994,0.8197632
1601135473516,1669,-0.08862305,-0.4841919,0.8163452
1601135473517,1670,-0.12475586,-0.47027588,0.84417725
1601135473517,1671,-0.09790039,-0.46343994,0.8197632
1601135473517,1672,-0.09790039,-0.46343994,0.8197632
1601135473517,1673,-0.057373047,-0.4512329,0.85369873
1601135473517,1674,-0.06713867,-0.45635986,0.7987671
1601135473517,1675,-0.057373047,-0.4512329,0.85369873
1601135473537,1676,-0.08154297,-0.4668579,0.8434448
1601135473537,1677,-0.06713867,-0.45635986,0.7987671
1601135473537,1678,-0.103515625,-0.49298096,0.885437
1601135473537,1679,-0.057373047,-0.4512329,0.85369873
1601135473538,1680,-0.12475586,-0.47027588,0.84417725
1601135473538,1681,-0.06713867,-0.45635986,0.7987671
1601135473538,1682,-0.095458984,-0.45465088,0.87054443
1601135473539,1683,-0.07299805,-0.48468018,0.8578491
1601135473539,1684,-0.08154297,-0.4668579,0.8434448
1601135473539,1685,-0.095458984,-0.45465088,0.87054443
1601135473539,1686,-0.08154297,-0.4668579,0.8434448
1601135473539,1687,-0.05834961,-0.4854126,0.821228
1601135473539,1688,-0.095458984,-0.45465088,0.87054443
1601135473539,1689,-0.057373047,-0.4512329,0.85369873
1601135473540,1690,-0.095458984,-0.45465088,0.87054443
1601135473540,1691,-0.088134766,-0.48223877,0.82684326
1601135473540,1692,-0.103515625,-0.49298096,0.885437
1601135473540,1693,-0.08154297,-0.4668579,0.8434448
1601135473540,1694,-0.05834961,-0.4854126,0.821228
1601135473540,1695,-0.057373047,-0.4512329,0.85369873
1601135473540,1696,-0.08862305,-0.4841919,0.8163452
1601135473540,1697,-0.05834961,-0.4854126,0.821228
1601135473541,1698,-0.08154297,-0.4668579,0.8434448
1601135473541,1699,-0.07299805,-0.48468018,0.8578491
1601135473541,1700,-0.100097656,-0.48687744,0.82855225
1601135473541,1701,-0.08154297,-0.4668579,0.8434448
1601135473541,1702,-0.095458984,-0.45465088,0.87054443
1601135473541,1703,-0.08862305,-0.4841919,0.8163452
1601135473541,1704,-0.12475586,-0.47027588,0.84417725
1601135473542,1705,-0.08154297,-0.4668579,0.8434448
1601135473542,1706,-0.088134766,-0.48223877,0.82684326
1601135473547,1707,-0.08862305,-0.4841919,0.8163452
1601135473548,1708,-0.08886719,-0.4829712,0.8329468
1601135473550,1709,-0.12475586,-0.47027588,0.84417725
1601135473550,1710,-0.095458984,-0.45465088,0.87054443
1601135473550,1711,-0.05834961,-0.4854126,0.821228
1601135473550,1712,-0.0859375,-0.48272705,0.8529663
1601135473550,1713,-0.103515625,-0.49298096,0.885437
1601135473550,1714,-0.08862305,-0.4841919,0.8163452
1601135473551,1715,-0.05834961,-0.4854126,0.821228
1601135473551,1716,-0.100097656,-0.48687744,0.82855225
1601135473551,1717,-0.07299805,-0.48468018,0.8578491
1601135473551,1718,-0.05834961,-0.4854126,0.821228
1601135473551,1719,-0.088134766,-0.48223877,0.82684326
1601135473551,1720,-0.103515625,-0.49298096,0.885437
1601135473551,1721,-0.05834961,-0.4854126,0.821228
1601135473551,1722,-0.07299805,-0.48468018,0.8578491
1601135473551,1723,-0.08862305,-0.4841919,0.8163452
1601135473551,1724,-0.08862305,-0.4841919,0.8163452
1601135473551,1725,-0.09423828,-0.48809814,0.84783936
1601135473553,1726,-0.12475586,-0.47027588,0.84417725
1601135473555,1727,-0.08154297,-0.4668579,0.8434448
1601135473555,1728,-0.08862305,-0.4841919,0.8163452
1601135473560,1729,-0.12475586,-0.47027588,0.84417725
1601135473568,1730,-0.12475586,-0.47027588,0.84417725
1601135473569,1731,-0.10424805,-0.48468018,0.83709717
1601135473569,1732,-0.100097656,-0.48687744,0.82855225
1601135473569,1733,-0.103515625,-0.49298096,0.885437
1601135473569,1734,-0.08886719,-0.4829712,0.8329468
1601135473569,1735,-0.05834961,-0.4854126,0.821228
1601135473569,1736,-0.088134766,-0.48223877,0.82684326
1601135473569,1737,-0.12475586,-0.47027588,0.84417725
1601135473569,1738,-0.12475586,-0.47027588,0.84417725
1601135473569,1739,-0.103515625,-0.49298096,0.885437
1601135473569,1740,-0.103515625,-0.49298096,0.885437
1601135473569,1741,-0.103515625,-0.49298096,0.885437
1601135473569,1742,-0.0859375,-0.48272705,0.8529663
1601135473569,1743,-0.10571289,-0.48809814,0.8319702
1601135473569,1744,-0.09423828,-0.48809814,0.84783936
1601135473569,1745,-0.07299805,-0.48468018,0.8578491
1601135473569,1746,-0.10424805,-0.48468018,0.83709717
1601135473569,1747,-0.07299805,-0.48468018,0.8578491
1601135473569,1748,-0.103515625,-0.49298096,0.885437
1601135473569,1749,-0.088134766,-0.48223877,0.82684326
1601135473570,1750,-0.08886719,-0.4829712,0.8329468
1601135473570,1751,-0.07299805,-0.48468018,0.8578491
1601135473570,1752,-0.08862305,-0.4841919,0.8163452
1601135473570,1753,-0.07299805,-0.48468018,0.8578491
1601135473570,1754,-0.11816406,-0.48638916,0.85076904
1601135473573,1755,-0.10571289,-0.48809814,0.8319702
1601135473573,1756,-0.07299805,-0.48468018,0.8578491
1601135473574,1757,-0.11669922,-0.48614502,0.84246826
1601135473574,1758,-0.0859375,-0.48272705,0.8529663
1601135473574,1759,-0.10888672,-0.49371338,0.84051514
1601135473574,1760,-0.088134766,-0.48223877,0.82684326
1601135473574,1761,-0.100097656,-0.48687744,0.82855225
1601135473574,1762,-0.09423828,-0.48809814,0.84783936
1601135473574,1763,-0.08886719,-0.4829712,0.8329468
1601135473574,1764,-0.11816406,-0.48638916,0.85076904
1601135473574,1765,-0.0859375,-0.48272705,0.8529663
1601135473574,1766,-0.088134766,-0.48223877,0.82684326
1601135473574,1767,-0.11669922,-0.48614502,0.84246826
1601135473575,1768,-0.13574219,-0.48199463,0.8480835
1601135473584,1769,-0.12475586,-0.47027588,0.84417725
1601135473584,1770,-0.088134766,-0.48223877,0.82684326
1601135473584,1771,-0.10424805,-0.48468018,0.83709717
1601135473584,1772,-0.088134766,-0.48223877,0.82684326
1601135473585,1773,-0.09423828,-0.48809814,0.84783936
1601135473585,1774,-0.100097656,-0.48687744,0.82855225
1601135473586,1775,-0.100097656,-0.48687744,0.82855225
1601135473586,1776,-0.10424805,-0.48468018,0.83709717
1601135473586,1777,-0.08886719,-0.4829712,0.8329468
1601135473586,1778,-0.100097656,-0.48687744,0.82855225
1601135473586,1779,-0.14404297,-0.49468994,0.8414917
1601135473586,1780,-0.103515625,-0.49298096,0.885437
1601135473586,1781,-0.14257812,-0.49761963,0.8336792
1601135473586,1782,-0.100097656,-0.48687744,0.82855225
1601135473586,1783,-0.10888672,-0.49371338,0.84051514
1601135473586,1784,-0.100097656,-0.48687744,0.82855225
1601135473586,1785,-0.08886719,-0.4829712,0.8329468
1601135473587,1786,-0.08886719,-0.4829712,0.8329468
1601135473587,1787,-0.10571289,-0.48809814,0.8319702
1601135473587,1788,-0.13574219,-0.48199463,0.8480835
1601135473587,1789,-0.10571289,-0.48809814,0.8319702
1601135473587,1790,-0.08886719,-0.4829712,0.8329468
1601135473587,1791,-0.14111328,-0.48760986,0.82806396
1601135473587,1792,-0.07299805,-0.48468018,0.8578491
1601135473587,1793,-0.0859375,-0.48272705,0.8529663
1601135473588,1794,-0.08886719,-0.4829712,0.8329468
1601135473590,1795,-0.11816406,-0.48638916,0.85076904
1601135473590,1796,-0.14404297,-0.49468994,0.8414917
1601135473590,1797,-0.11816406,-0.48638916,0.85076904
1601135473591,1798,-0.0859375,-0.48272705,0.8529663
1601135473591,1799,-0.0859375,-0.48272705,0.8529663
1601135473591,1800,-0.11669922,-0.48614502,0.84246826
1601135473591,1801,-0.088134766,-0.48223877,0.82684326
1601135473592,1802,-0.0859375,-0.48272705,0.8529663
1601135473592,1803,-0.09423828,-0.48809814,0.84783936
1601135473595,1804,-0.11669922,-0.48614502,0.84246826
1601135473595,1805,-0.09423828,-0.48809814,0.84783936
1601135473595,1806,-0.0859375,-0.48272705,0.8529663
1601135473595,1807,-0.10888672,-0.49371338,0.84051514
1601135473595,1808,-0.14257812,-0.49761963,0.8336792
1601135473596,1809,-0.10888672,-0.49371338,0.84051514
1601135473596,1810,-0.09423828,-0.48809814,0.84783936
1601135473596,1811,-0.09423828,-0.48809814,0.84783936
1601135473596,1812,-0.09423828,-0.48809814,0.84783936
1601135473596,1813,-0.10424805,-0.48468018,0.83709717
1601135473605,1814,-0.1315918,-0.5010376,0.82440186
1601135473605,1815,-0.10424805,-0.48468018,0.83709717
1601135473605,1816,-0.123535156,-0.50445557,0.81585693
1601135473606,1817,-0.100097656,-0.48687744,0.82855225
1601135473606,1818,-0.13574219,-0.48199463,0.8480835
1601135473606,1819,-0.10424805,-0.48468018,0.83709717
1601135473607,1820,-0.14111328,-0.48760986,0.82806396
1601135473607,1821,-0.10424805,-0.48468018,0.83709717
1601135473607,1822,-0.14404297,-0.49468994,0.8414917
1601135473607,1823,-0.10571289,-0.48809814,0.8319702
1601135473607,1824,-0.10571289,-0.48809814,0.8319702
1601135473607,1825,-0.11816406,-0.48638916,0.85076904
1601135473607,1826,-0.13574219,-0.48199463,0.8480835
1601135473607,1827,-0.12915039,-0.49908447,0.8312378
1601135473607,1828,-0.08886719,-0.4829712,0.8329468
1601135473607,1829,-0.10424805,-0.48468018,0.83709717
1601135473607,1830,-0.1315918,-0.5010376,0.82440186
1601135473607,1831,-0.10571289,-0.48809814,0.8319702
1601135473608,1832,-0.10571289,-0.48809814,0.8319702
1601135473608,1833,-0.10571289,-0.48809814,0.8319702
1601135473609,1834,-0.11816406,-0.48638916,0.85076904
1601135473609,1835,-0.11669922,-0.48614502,0.84246826
1601135473610,1836,-0.14404297,-0.49468994,0.8414917
1601135473610,1837,-0.123535156,-0.50445557,0.81585693
1601135473615,1838,-0.14257812,-0.49761963,0.8336792
1601135473615,1839,-0.0859375,-0.48272705,0.8529663
1601135473615,1840,-0.14257812,-0.49761963,0.8336792
1601135473615,1841,-0.11816406,-0.48638916,0.85076904
1601135473615,1842,-0.11816406,-0.48638916,0.85076904
1601135473615,1843,-0.10888672,-0.49371338,0.84051514
1601135473615,1844,-0.14111328,-0.48760986,0.82806396
1601135473615,1845,-0.12915039,-0.49908447,0.8312378
1601135473623,1846,-0.11816406,-0.48638916,0.85076904
1601135473623,1847,-0.11669922,-0.48614502,0.84246826
1601135473623,1848,-0.09423828,-0.48809814,0.84783936
1601135473623,1849,-0.14111328,-0.48760986,0.82806396
1601135473623,1850,-0.11669922,-0.48614502,0.84246826
1601135473623,1851,-0.1352539,-0.49127197,0.84490967
1601135473623,1852,-0.13574219,-0.48199463,0.8480835
1601135473623,1853,-0.11669922,-0.48614502,0.84246826
1601135473624,1854,-0.1352539,-0.49127197,0.84490967
1601135473626,1855,-0.11669922,-0.48614502,0.84246826
1601135473629,1856,-0.10888672,-0.49371338,0.84051514
1601135473629,1857,-0.1315918,-0.5010376,0.82440186
1601135473629,1858,-0.1315918,-0.5010376,0.82440186
1601135473629,1859,-0.10888672,-0.49371338,0.84051514
1601135473629,1860,-0.10888672,-0.49371338,0.84051514
1601135473629,1861,-0.123535156,-0.50445557,0.81585693
1601135473629,1862,-0.13574219,-0.48199463,0.8480835
1601135473629,1863,-0.10424805,-0.48468018,0.83709717
1601135473635,1864,-0.14404297,-0.49468994,0.8414917
1601135473635,1865,-0.13574219,-0.48199463,0.8480835
1601135473635,1866,-0.10888672,-0.49371338,0.84051514
1601135473636,1867,-0.123535156,-0.50445557,0.81585693
1601135473636,1868,-0.12915039,-0.49908447,0.8312378
1601135473636,1869,-0.14404297,-0.49468994,0.8414917
1601135473636,1870,-0.13574219,-0.48199463,0.8480835
1601135473636,1871,-0.10571289,-0.48809814,0.8319702
1601135473636,1872,-0.14404297,-0.49468994,0.8414917
1601135473640,1873,-0.13574219,-0.48199463,0.8480835
1601135473641,1874,-0.1352539,-0.49127197,0.84490967
1601135473641,1875,-0.14257812,-0.49761963,0.8336792
1601135473641,1876,-0.12915039,-0.49908447,0.8312378
1601135473641,1877,-0.14404297,-0.49468994,0.8414917
1601135473641,1878,-0.11816406,-0.48638916,0.85076904
1601135473641,1879,-0.14257812,-0.49761963,0.8336792
1601135473653,1880,-0.14257812,-0.49761963,0.8336792
1601135473653,1881,-0.14404297,-0.49468994,0.8414917
1601135473654,1882,-0.14111328,-0.48760986,0.82806396
1601135473655,1883,-0.14257812,-0.49761963,0.8336792
1601135473655,1884,-0.1352539,-0.49127197,0.84490967
1601135473655,1885,-0.14257812,-0.49761963,0.8336792
1601135473655,1886,-0.11669922,-0.48614502,0.84246826
1601135473655,1887,-0.14111328,-0.48760986,0.82806396
1601135473655,1888,-0.1315918,-0.5010376,0.82440186
1601135473655,1889,-0.14111328,-0.48760986,0.82806396
1601135473655,1890,-0.123535156,-0.50445557,0.81585693
1601135473655,1891,-0.14111328,-0.48760986,0.82806396
1601135473658,1892,-0.10888672,-0.49371338,0.84051514
1601135473658,1893,-0.1315918,-0.5010376,0.82440186
1601135473659,1894,-0.12915039,-0.49908447,0.8312378
1601135473659,1895,-0.13574219,-0.48199463,0.8480835
1601135473659,1896,-0.14111328,-0.48760986,0.82806396
1601135473659,1897,-0.1352539,-0.49127197,0.84490967
1601135473668,1898,-0.1315918,-0.5010376,0.82440186
1601135473668,1899,-0.123535156,-0.50445557,0.81585693
1601135473668,1900,-0.1315918,-0.5010376,0.82440186
1601135473668,1901,-0.14404297,-0.49468994,0.8414917
1601135473668,1902,-0.1315918,-0.5010376,0.82440186
1601135473669,1903,-0.123535156,-0.50445557,0.81585693
1601135473669,1904,-0.123535156,-0.50445557,0.81585693
1601135473670,1905,-0.12915039,-0.49908447,0.8312378
1601135473670,1906,-0.12915039,-0.49908447,0.8312378
1601135473670,1907,-0.12915039,-0.49908447,0.8312378
1601135473670,1908,-0.1352539,-0.49127197,0.84490967
1601135473670,1909,-0.14257812,-0.49761963,0.8336792
1601135473670,1910,-0.123535156,-0.50445557,0.81585693
1601135473670,1911,-0.1352539,-0.49127197,0.84490967
1601135473672,1912,-0.12915039,-0.49908447,0.8312378
1601135473673,1913,-0.1352539,-0.49127197,0.84490967
1601135473673,1914,-0.14111328,-0.48760986,0.82806396
1601135473675,1915,-0.1352539,-0.49127197,0.84490967
1601135473679,1916,-0.1315918,-0.5010376,0.82440186
1601135473679,1917,-0.123535156,-0.50445557,0.81585693
1601135473679,1918,-0.12915039,-0.49908447,0.8312378
1601135473680,1919,-0.1352539,-0.49127197,0.84490967
1601135475989,1920,-0.12524414,-0.5022583,0.84417725
1601135475993,1921,-0.12524414,-0.5022583,0.84417725
1601135476005,1922,-0.12036133,-0.49884033,0.8185425
1601135476006,1923,-0.12524414,-0.5022583,0.84417725
1601135476006,1924,-0.12524414,-0.5022583,0.84417725
1601135476006,1925,-0.12524414,-0.5022583,0.84417725
1601135476006,1926,-0.12524414,-0.5022583,0.84417725
1601135476006,1927,-0.1237793,-0.487854,0.8048706
1601135476006,1928,-0.12036133,-0.49884033,0.8185425
1601135476006,1929,-0.12524414,-0.5022583,0.84417725
1601135476006,1930,-0.12524414,-0.5022583,0.84417725
1601135476006,1931,-0.12036133,-0.49884033,0.8185425
1601135476007,1932,-0.1237793,-0.487854,0.8048706
1601135476008,1933,-0.12036133,-0.49884033,0.8185425
1601135476008,1934,-0.12524414,-0.5022583,0.84417725
1601135476008,1935,-0.12036133,-0.49884033,0.8185425
1601135476008,1936,-0.1328125,-0.50006104,0.82366943
1601135476008,1937,-0.12036133,-0.49884033,0.8185425
1601135476008,1938,-0.12036133,-0.49884033,0.8185425
1601135476023,1939,-0.12524414,-0.5022583,0.84417725
1601135476023,1940,-0.12036133,-0.49884033,0.8185425
1601135476023,1941,-0.1237793,-0.487854,0.8048706
1601135476024,1942,-0.12036133,-0.49884033,0.8185425
1601135476024,1943,-0.1328125,-0.50006104,0.82366943
1601135476024,1944,-0.1237793,-0.487854,0.8048706
1601135476027,1945,-0.1237793,-0.487854,0.8048706
1601135476027,1946,-0.11816406,-0.5093384,0.8390503
1601135476027,1947,-0.1237793,-0.487854,0.8048706
1601135476027,1948,-0.1237793,-0.487854,0.8048706
1601135476027,1949,-0.12036133,-0.49884033,0.8185425
1601135476027,1950,-0.11816406,-0.5093384,0.8390503
1601135476027,1951,-0.12817383,-0.4985962,0.8451538
1601135476027,1952,-0.1328125,-0.50006104,0.82366943
1601135476027,1953,-0.1237793,-0.487854,0.8048706
1601135476027,1954,-0.12573242,-0.4907837,0.83099365
1601135476027,1955,-0.1237793,-0.487854,0.8048706
1601135476029,1956,-0.1328125,-0.50006104,0.82366943
1601135476029,1957,-0.1328125,-0.50006104,0.82366943
1601135476029,1958,-0.1237793,-0.487854,0.8048706
1601135476030,1959,-0.1328125,-0.50006104,0.82366943
1601135476030,1960,-0.11816406,-0.5093384,0.8390503
1601135476030,1961,-0.12817383,-0.4985962,0.8451538
1601135476030,1962,-0.1328125,-0.50006104,0.82366943
1601135476030,1963,-0.1328125,-0.50006104,0.82366943
1601135476030,1964,-0.107421875,-0.48565674,0.8432007
1601135476030,1965,-0.12573242,-0.4907837,0.83099365
1601135476030,1966,-0.11816406,-0.5093384,0.8390503
1601135476030,1967,-0.11401367,-0.5046997,0.8456421
1601135476030,1968,-0.107421875,-0.48565674,0.8432007
1601135476030,1969,-0.12817383,-0.4985962,0.8451538
1601135476031,1970,-0.1328125,-0.50006104,0.82366943
1601135476039,1971,-0.11816406,-0.5093384,0.8390503
1601135476043,1972,-0.11816406,-0.5093384,0.8390503
1601135476043,1973,-0.1328125,-0.50006104,0.82366943
1601135476043,1974,-0.11816406,-0.5093384,0.8390503
1601135476043,1975,-0.12817383,-0.4985962,0.8451538
1601135476044,1976,-0.12817383,-0.4985962,0.8451538
1601135476045,1977,-0.12573242,-0.4907837,0.83099365
1601135476045,1978,-0.11401367,-0.5046997,0.8456421
1601135476045,1979,-0.11816406,-0.5093384,0.8390503
1601135476045,1980,-0.12573242,-0.4907837,0.83099365
1601135476045,1981,-0.11816406,-0.5093384,0.8390503
1601135476045,1982,-0.12817383,-0.4985962,0.8451538
1601135476046,1983,-0.12963867,-0.4993286,0.8275757
1601135476046,1984,-0.11816406,-0.5093384,0.8390503
1601135476046,1985,-0.12573242,-0.4907837,0.83099365
1601135476046,1986,-0.12573242,-0.4907837,0.83099365
1601135476046,1987,-0.12402344,-0.48492432,0.81048584
1601135476046,1988,-0.12963867,-0.4993286,0.8275757
1601135476046,1989,-0.12817383,-0.4985962,0.8451538
1601135476046,1990,-0.107421875,-0.48565674,0.8432007
1601135476047,1991,-0.107421875,-0.48565674,0.8432007
1601135476047,1992,-0.12817383,-0.4985962,0.8451538
1601135476047,1993,-0.12817383,-0.4985962,0.8451538
1601135476047,1994,-0.11401367,-0.5046997,0.8456421
1601135476047,1995,-0.107421875,-0.48565674,0.8432007
1601135476047,1996,-0.11645508,-0.4956665,0.8200073
1601135476047,1997,-0.12402344,-0.48492432,0.81048584
1601135476047,1998,-0.12817383,-0.4985962,0.8451538
1601135476047,1999,-0.11645508,-0.4956665,0.8200073
1601135476048,2000,-0.11401367,-0.5046997,0.8456421
1601135476052,2001,-0.12573242,-0.4907837,0.83099365
1601135476053,2002,-0.11401367,-0.5046997,0.8456421
1601135476053,2003,-0.12963867,-0.4993286,0.8275757
1601135476053,2004,-0.12573242,-0.4907837,0.83099365
1601135476053,2005,-0.12963867,-0.4993286,0.8275757
1601135476053,2006,-0.12573242,-0.4907837,0.83099365
1601135476053,2007,-0.12402344,-0.48492432,0.81048584
1601135476054,2008,-0.15405273,-0.4619751,0.88568115
1601135476054,2009,-0.12573242,-0.4907837,0.83099365
1601135476054,2010,-0.12963867,-0.4993286,0.8275757
1601135476054,2011,-0.107421875,-0.48565674,0.8432007
1601135476054,2012,-0.14477539,-0.47491455,0.8446655
1601135476054,2013,-0.107421875,-0.48565674,0.8432007
1601135476055,2014,-0.12402344,-0.48492432,0.81048584
1601135476055,2015,-0.15405273,-0.4619751,0.88568115
1601135476067,2016,-0.107421875,-0.48565674,0.8432007
1601135476068,2017,-0.11645508,-0.4956665,0.8200073
1601135476068,2018,-0.11401367,-0.5046997,0.8456421
1601135476068,2019,-0.11401367,-0.5046997,0.8456421
1601135476068,2020,-0.15405273,-0.4619751,0.88568115
1601135476068,2021,-0.115478516,-0.47442627,0.8463745
1601135476068,2022,-0.14477539,-0.47491455,0.8446655
1601135476068,2023,-0.11645508,-0.4956665,0.8200073
1601135476069,2024,-0.115478516,-0.47442627,0.8463745
1601135476069,2025,-0.13208008,-0.4890747,0.83587646
1601135476069,2026,-0.13208008,-0.4890747,0.83587646
1601135476069,2027,-0.12084961,-0.47442627,0.83343506
1601135476069,2028,-0.12084961,-0.47442627,0.83343506
1601135476069,2029,-0.12963867,-0.4993286,0.8275757
1601135476069,2030,-0.12963867,-0.4993286,0.8275757
1601135476069,2031,-0.11401367,-0.5046997,0.8456421
1601135476069,2032,-0.14477539,-0.47491455,0.8446655
1601135476070,2033,-0.107421875,-0.48565674,0.8432007
1601135476070,2034,-0.15405273,-0.4619751,0.88568115
1601135476071,2035,-0.12402344,-0.48492432,0.81048584
1601135476071,2036,-0.107421875,-0.48565674,0.8432007
1601135476071,2037,-0.11645508,-0.4956665,0.8200073
1601135476071,2038,-0.115478516,-0.47442627,0.8463745
1601135476071,2039,-0.12207031,-0.46514893,0.8595581
1601135476072,2040,-0.13208008,-0.4890747,0.83587646
1601135476072,2041,-0.12402344,-0.48492432,0.81048584
1601135476072,2042,-0.12084961,-0.47442627,0.83343506
1601135476072,2043,-0.12963867,-0.4993286,0.8275757
1601135476072,2044,-0.12207031,-0.46514893,0.8595581
1601135476072,2045,-0.11401367,-0.5046997,0.8456421
1601135476076,2046,-0.12402344,-0.48492432,0.81048584
1601135476076,2047,-0.14477539,-0.47491455,0.8446655
1601135476076,2048,-0.11401367,-0.5046997,0.8456421
1601135476076,2049,-0.11645508,-0.4956665,0.8200073
1601135476076,2050,-0.11645508,-0.4956665,0.8200073
1601135476076,2051,-0.12207031,-0.46514893,0.8595581
1601135476076,2052,-0.12402344,-0.48492432,0.81048584
1601135476076,2053,-0.15405273,-0.4619751,0.88568115
1601135476076,2054,-0.15405273,-0.4619751,0.88568115
1601135476076,2055,-0.1184082,-0.48028564,0.8722534
1601135476077,2056,-0.12963867,-0.4993286,0.8275757
1601135476082,2057,-0.115478516,-0.47442627,0.8463745
1601135476082,2058,-0.15405273,-0.4619751,0.88568115
1601135476082,2059,-0.1184082,-0.48028564,0.8722534
1601135476082,2060,-0.12963867,-0.4993286,0.8275757
1601135476082,2061,-0.14477539,-0.47491455,0.8446655
1601135476082,2062,-0.12402344,-0.48492432,0.81048584
1601135476082,2063,-0.115478516,-0.47442627,0.8463745
1601135476082,2064,-0.11645508,-0.4956665,0.8200073
1601135476083,2065,-0.12402344,-0.48492432,0.81048584
1601135476083,2066,-0.09472656,-0.4920044,0.8512573
1601135476085,2067,-0.13208008,-0.4890747,0.83587646
1601135476089,2068,-0.11645508,-0.4956665,0.8200073
1601135476090,2069,-0.09472656,-0.4920044,0.8512573
1601135476090,2070,-0.1184082,-0.48028564,0.8722534
1601135476091,2071,-0.14477539,-0.47491455,0.8446655
1601135476091,2072,-0.13208008,-0.4890747,0.83587646
1601135476091,2073,-0.15405273,-0.4619751,0.88568115
1601135476091,2074,-0.11645508,-0.4956665,0.8200073
1601135476091,2075,-0.1027832,-0.47442627,0.82928467
1601135476091,2076,-0.14477539,-0.47491455,0.8446655
1601135476091,2077,-0.12084961,-0.47442627,0.83343506
1601135476091,2078,-0.15405273,-0.4619751,0.88568115
1601135476097,2079,-0.115478516,-0.47442627,0.8463745
1601135476097,2080,-0.14477539,-0.47491455,0.8446655
1601135476098,2081,-0.14477539,-0.47491455,0.8446655
1601135476098,2082,-0.13208008,-0.4890747,0.83587646
1601135476098,2083,-0.12084961,-0.47442627,0.83343506
1601135476098,2084,-0.115478516,-0.47442627,0.8463745
1601135476098,2085,-0.12084961,-0.47442627,0.83343506
1601135476098,2086,-0.15625,-0.52471924,0.8695679
1601135476098,2087,-0.09472656,-0.4920044,0.8512573
1601135476098,2088,-0.12207031,-0.46514893,0.8595581
1601135476098,2089,-0.115478516,-0.47442627,0.8463745
1601135476107,2090,-0.115478516,-0.47442627,0.8463745
1601135476107,2091,-0.12207031,-0.46514893,0.8595581
1601135476107,2092,-0.09765625,-0.5889282,0.9437866
1601135476107,2093,-0.13208008,-0.4890747,0.83587646
1601135476107,2094,-0.1027832,-0.47442627,0.82928467
1601135476107,2095,-0.1027832,-0.47442627,0.82928467
1601135476107,2096,-0.15405273,-0.4619751,0.88568115
1601135476107,2097,-0.15625,-0.52471924,0.8695679
1601135476108,2098,-0.1184082,-0.48028564,0.8722534
1601135476108,2099,-0.12207031,-0.46514893,0.8595581
1601135476115,2100,-0.1184082,-0.48028564,0.8722534
1601135476116,2101,-0.1184082,-0.48028564,0.8722534
1601135476116,2102,-0.15625,-0.52471924,0.8695679
1601135476116,2103,-0.13208008,-0.4890747,0.83587646
1601135476116,2104,-0.12084961,-0.47442627,0.83343506
1601135476116,2105,-0.09765625,-0.5889282,0.9437866
1601135476116,2106,-0.14477539,-0.47491455,0.8446655
1601135476116,2107,-0.051513672,-0.59454346,0.9437866
1601135476117,2108,-0.13208008,-0.4890747,0.83587646
1601135476123,2109,-0.09472656,-0.4920044,0.8512573
1601135476123,2110,-0.09472656,-0.4920044,0.8512573
1601135476124,2111,-0.09765625,-0.5889282,0.9437866
1601135476124,2112,-0.12084961,-0.47442627,0.83343506
1601135476124,2113,-0.12207031,-0.46514893,0.8595581
1601135476124,2114,0.13012695,-0.45733643,0.9364624
1601135476124,2115,-0.115478516,-0.47442627,0.8463745
1601135476124,2116,-0.09472656,-0.4920044,0.8512573
1601135476124,2117,-0.12084961,-0.47442627,0.83343506
1601135476124,2118,-0.051513672,-0.59454346,0.9437866
1601135476125,2119,-0.12207031,-0.46514893,0.8595581
1601135476132,2120,-0.051513672,-0.59454346,0.9437866
1601135476132,2121,-0.1027832,-0.47442627,0.82928467
1601135476133,2122,-0.13208008,-0.4890747,0.83587646
1601135476133,2123,0.26171875,-0.31378174,0.88739014
1601135476133,2124,-0.15625,-0.52471924,0.8695679
1601135476133,2125,-0.1184082,-0.48028564,0.8722534
1601135476133,2126,-0.09765625,-0.5889282,0.9437866
1601135476133,2127,-0.1027832,-0.47442627,0.82928467
1601135476133,2128,0.13012695,-0.45733643,0.9364624
1601135476133,2129,-0.1184082,-0.48028564,0.8722534
1601135476134,2130,-0.09472656,-0.4920044,0.8512573
1601135476143,2131,0.36523438,-0.1651001,0.7289429
1601135476143,2132,0.13012695,-0.45733643,0.9364624
1601135476143,2133,-0.09472656,-0.4920044,0.8512573
1601135476143,2134,-0.051513672,-0.59454346,0.9437866
1601135476143,2135,-0.12207031,-0.46514893,0.8595581
1601135476143,2136,0.36035156,-0.1482544,0.602478
1601135476143,2137,0.26171875,-0.31378174,0.88739014
1601135476144,2138,-0.12084961,-0.47442627,0.83343506
1601135476144,2139,-0.1027832,-0.47442627,0.82928467
1601135476144,2140,0.36523438,-0.1651001,0.7289429
1601135476144,2141,-0.1027832,-0.47442627,0.82928467
1601135476145,2142,-0.15625,-0.52471924,0.8695679
1601135476146,2143,-0.09765625,-0.5889282,0.9437866
1601135476150,2144,0.4091797,-0.16265869,0.52679443
1601135476151,2145,-0.15625,-0.52471924,0.8695679
1601135476151,2146,-0.12207031,-0.46514893,0.8595581
1601135476151,2147,0.5175781,-0.043029785,0.45037842
1601135476151,2148,0.26171875,-0.31378174,0.88739014
1601135476151,2149,0.7636719,-0.035461426,0.39959717
1601135476152,2150,0.13012695,-0.45733643,0.9364624
1601135476152,2151,0.9589844,-0.15557861,0.48895264
1601135476152,2152,-0.1027832,-0.47442627,0.82928467
1601135476153,2153,-0.1184082,-0.48028564,0.8722534
1601135476161,2154,-0.1184082,-0.48028564,0.8722534
1601135476161,2155,0.36035156,-0.1482544,0.602478
1601135476161,2156,-0.15625,-0.52471924,0.8695679
1601135476161,2157,-0.09765625,-0.5889282,0.9437866
1601135476161,2158,0.36523438,-0.1651001,0.7289429
1601135476161,2159,-0.09765625,-0.5889282,0.9437866
1601135476161,2160,0.26171875,-0.31378174,0.88739014
1601135476161,2161,-0.051513672,-0.59454346,0.9437866
1601135476161,2162,-0.15625,-0.52471924,0.8695679
1601135476161,2163,0.36523438,-0.1651001,0.7289429
1601135476162,2164,0.13012695,-0.45733643,0.9364624
1601135476162,2165,0.36035156,-0.1482544,0.602478
1601135476162,2166,0.4091797,-0.16265869,0.52679443
1601135476162,2167,0.36035156,-0.1482544,0.602478
1601135476162,2168,0.5175781,-0.043029785,0.45037842
1601135476163,2169,-0.051513672,-0.59454346,0.9437866
1601135476163,2170,-0.09472656,-0.4920044,0.8512573
1601135476163,2171,-0.09472656,-0.4920044,0.8512573
1601135476163,2172,0.13012695,-0.45733643,0.9364624
1601135476163,2173,-0.1027832,-0.47442627,0.82928467
1601135476163,2174,0.26171875,-0.31378174,0.88739014
1601135476165,2175,-0.051513672,-0.59454346,0.9437866
1601135476166,2176,0.7636719,-0.035461426,0.39959717
1601135476170,2177,-0.09765625,-0.5889282,0.9437866
1601135476170,2178,0.9589844,-0.15557861,0.48895264
1601135476171,2179,-0.15625,-0.52471924,0.8695679
1601135476171,2180,0.4091797,-0.16265869,0.52679443
1601135476171,2181,0.36523438,-0.1651001,0.7289429
1601135476171,2182,0.4091797,-0.16265869,0.52679443
1601135476171,2183,-0.1027832,-0.47442627,0.82928467
1601135476171,2184,0.13012695,-0.45733643,0.9364624
1601135476171,2185,-0.09765625,-0.5889282,0.9437866
1601135476173,2186,0.26171875,-0.31378174,0.88739014
1601135476173,2187,0.5175781,-0.043029785,0.45037842
1601135476173,2188,-0.051513672,-0.59454346,0.9437866
1601135476173,2189,-0.15625,-0.52471924,0.8695679
1601135476174,2190,0.13012695,-0.45733643,0.9364624
1601135476174,2191,-0.051513672,-0.59454346,0.9437866
1601135476175,2192,0.5175781,-0.043029785,0.45037842
1601135476178,2193,0.36035156,-0.1482544,0.602478
1601135476178,2194,0.26171875,-0.31378174,0.88739014
1601135476178,2195,0.13012695,-0.45733643,0.9364624
1601135476178,2196,-0.09765625,-0.5889282,0.9437866
1601135476178,2197,0.7636719,-0.035461426,0.39959717
1601135476179,2198,0.36523438,-0.1651001,0.7289429
1601135476182,2199,0.7636719,-0.035461426,0.39959717
1601135476182,2200,-0.051513672,-0.59454346,0.9437866
1601135476182,2201,0.26171875,-0.31378174,0.88739014
1601135476182,2202,0.13012695,-0.45733643,0.9364624
1601135476182,2203,0.36035156,-0.1482544,0.602478
1601135476182,2204,0.36523438,-0.1651001,0.7289429
1601135476191,2205,0.26171875,-0.31378174,0.88739014
1601135476192,2206,0.9589844,-0.15557861,0.48895264
1601135476192,2207,0.36523438,-0.1651001,0.7289429
1601135476192,2208,0.4091797,-0.16265869,0.52679443
1601135476192,2209,0.4091797,-0.16265869,0.52679443
1601135476192,2210,0.36523438,-0.1651001,0.7289429
1601135476192,2211,0.5175781,-0.043029785,0.45037842
1601135476192,2212,0.9589844,-0.15557861,0.48895264
1601135476192,2213,0.36035156,-0.1482544,0.602478
1601135476192,2214,0.4091797,-0.16265869,0.52679443
1601135476193,2215,0.36035156,-0.1482544,0.602478
1601135476193,2216,0.5175781,-0.043029785,0.45037842
1601135476193,2217,0.7636719,-0.035461426,0.39959717
1601135476193,2218,0.4091797,-0.16265869,0.52679443
1601135476193,2219,0.26171875,-0.31378174,0.88739014
1601135476193,2220,0.5175781,-0.043029785,0.45037842
1601135476193,2221,0.5175781,-0.043029785,0.45037842
1601135476193,2222,0.7636719,-0.035461426,0.39959717
1601135476193,2223,0.36035156,-0.1482544,0.602478
1601135476193,2224,0.9589844,-0.15557861,0.48895264
1601135476193,2225,0.7636719,-0.035461426,0.39959717
1601135476196,2226,0.36523438,-0.1651001,0.7289429
1601135476197,2227,0.9589844,-0.15557861,0.48895264
1601135476197,2228,0.7636719,-0.035461426,0.39959717
1601135476197,2229,0.36035156,-0.1482544,0.602478
1601135476197,2230,0.9589844,-0.15557861,0.48895264
1601135476197,2231,0.4091797,-0.16265869,0.52679443
1601135476198,2232,0.5175781,-0.043029785,0.45037842
1601135476198,2233,0.4091797,-0.16265869,0.52679443
1601135476198,2234,0.9589844,-0.15557861,0.48895264
1601135476201,2235,0.7636719,-0.035461426,0.39959717
1601135476201,2236,0.5175781,-0.043029785,0.45037842
1601135476201,2237,0.9589844,-0.15557861,0.48895264
1601135476201,2238,0.7636719,-0.035461426,0.39959717
1601135476203,2239,0.9589844,-0.15557861,0.48895264
1601135478357,2240,0.9519043,-0.19342041,0.42279053
1601135478357,2241,0.9519043,-0.19342041,0.42279053
1601135478358,2242,0.9519043,-0.19342041,0.42279053
1601135478358,2243,1.0581055,-0.120910645,0.4249878
1601135478359,2244,0.9519043,-0.19342041,0.42279053
1601135478359,2245,0.9519043,-0.19342041,0.42279053
1601135478360,2246,0.9519043,-0.19342041,0.42279053
1601135478360,2247,0.9519043,-0.19342041,0.42279053
1601135478360,2248,0.9519043,-0.19342041,0.42279053
1601135478360,2249,1.0581055,-0.120910645,0.4249878
1601135478362,2250,0.9519043,-0.19342041,0.42279053
1601135478362,2251,1.0581055,-0.120910645,0.4249878
1601135478363,2252,1.0581055,-0.120910645,0.4249878
1601135478363,2253,1.0581055,-0.120910645,0.4249878
1601135478363,2254,1.0581055,-0.120910645,0.4249878
1601135478364,2255,1.0581055,-0.120910645,0.4249878
1601135478364,2256,0.8984375,-0.003967285,0.4418335
1601135478365,2257,0.9519043,-0.19342041,0.42279053
1601135478365,2258,1.0581055,-0.120910645,0.4249878
1601135478366,2259,0.8249512,-0.07965088,0.3529663
1601135478367,2260,0.8984375,-0.003967285,0.4418335
1601135478367,2261,0.8984375,-0.003967285,0.4418335
1601135478367,2262,0.8249512,-0.07965088,0.3529663
1601135478367,2263,0.8984375,-0.003967285,0.4418335
1601135478367,2264,1.0581055,-0.120910645,0.4249878
1601135478367,2265,0.8984375,-0.003967285,0.4418335
1601135478368,2266,0.8249512,-0.07965088,0.3529663
1601135478370,2267,0.8581543,-0.05206299,0.39691162
1601135478370,2268,0.8581543,-0.05206299,0.39691162
1601135478370,2269,0.8984375,-0.003967285,0.4418335
1601135478370,2270,0.8581543,-0.05206299,0.39691162
1601135478370,2271,1.0581055,-0.120910645,0.4249878
1601135478370,2272,0.8249512,-0.07965088,0.3529663
1601135478370,2273,0.8984375,-0.003967285,0.4418335
1601135478371,2274,0.8249512,-0.07965088,0.3529663
1601135478371,2275,0.8984375,-0.003967285,0.4418335
1601135478371,2276,0.8984375,-0.003967285,0.4418335
1601135478371,2277,0.7902832,-0.018859863,0.5038452
1601135478371,2278,0.8249512,-0.07965088,0.3529663
1601135478371,2279,0.7902832,-0.018859863,0.5038452
1601135478389,2280,0.8581543,-0.05206299,0.39691162
1601135478390,2281,0.8984375,-0.003967285,0.4418335
1601135478390,2282,0.8249512,-0.07965088,0.3529663
1601135478390,2283,0.8249512,-0.07965088,0.3529663
1601135478390,2284,0.8581543,-0.05206299,0.39691162
1601135478390,2285,0.8249512,-0.07965088,0.3529663
1601135478390,2286,0.7270508,-6.1035156E-5,0.5038452
1601135478390,2287,0.8581543,-0.05206299,0.39691162
1601135478390,2288,0.7902832,-0.018859863,0.5038452
1601135478391,2289,0.7270508,-6.1035156E-5,0.5038452
1601135478391,2290,0.7902832,-0.018859863,0.5038452
1601135478395,2291,0.7902832,-0.018859863,0.5038452
1601135478395,2292,0.7270508,-6.1035156E-5,0.5038452
1601135478395,2293,0.8249512,-0.07965088,0.3529663
1601135478395,2294,0.8581543,-0.05206299,0.39691162
1601135478395,2295,0.8581543,-0.05206299,0.39691162
1601135478395,2296,0.7902832,-0.018859863,0.5038452
1601135478396,2297,0.8581543,-0.05206299,0.39691162
