# Sensor position: Wrist
# Sensor side: Left
# Activity type: Lying down on stomach
# Activity code: 8
# Subject id: s1735229
timestamp,seq,accel_x,accel_y,accel_z
1601134141420,0,0.041992188,0.8903198,-0.3381958
1601134141420,1,0.041992188,0.8903198,-0.3381958
1601134141421,2,0.041992188,0.8903198,-0.3381958
1601134141421,3,0.041992188,0.8903198,-0.3381958
1601134141430,4,0.041992188,0.8903198,-0.3381958
1601134141431,5,0.041992188,0.8903198,-0.3381958
1601134141431,6,0.041992188,0.8903198,-0.3381958
1601134141431,7,0.03930664,0.8942261,-0.34429932
1601134141432,8,0.041992188,0.8903198,-0.3381958
1601134141432,9,0.03930664,0.8942261,-0.34429932
1601134141432,10,0.03930664,0.8942261,-0.34429932
1601134141432,11,0.03930664,0.8942261,-0.34429932
1601134141432,12,0.041503906,0.89056396,-0.33673096
1601134141432,13,0.03930664,0.8942261,-0.34429932
1601134141432,14,0.03930664,0.8942261,-0.34429932
1601134141433,15,0.03930664,0.8942261,-0.34429932
1601134141433,16,0.041503906,0.89056396,-0.33673096
1601134141433,17,0.041992188,0.8903198,-0.3381958
1601134141433,18,0.03930664,0.8942261,-0.34429932
1601134141433,19,0.041992188,0.8903198,-0.3381958
1601134141433,20,0.041259766,0.8932495,-0.34283447
1601134141438,21,0.041503906,0.89056396,-0.33673096
1601134141438,22,0.041503906,0.89056396,-0.33673096
1601134141438,23,0.041503906,0.89056396,-0.33673096
1601134141438,24,0.041259766,0.8932495,-0.34283447
1601134141438,25,0.041503906,0.89056396,-0.33673096
1601134141438,26,0.041503906,0.89056396,-0.33673096
1601134141461,27,0.041259766,0.8932495,-0.34283447
1601134141464,28,0.04345703,0.89276123,-0.33917236
1601134141464,29,0.041259766,0.8932495,-0.34283447
1601134141464,30,0.03930664,0.8942261,-0.34429932
1601134141464,31,0.03930664,0.8942261,-0.34429932
1601134141465,32,0.041259766,0.8932495,-0.34283447
1601134141465,33,0.041503906,0.89056396,-0.33673096
1601134141465,34,0.041259766,0.8932495,-0.34283447
1601134141465,35,0.04345703,0.89276123,-0.33917236
1601134141465,36,0.041259766,0.8932495,-0.34283447
1601134141465,37,0.04345703,0.89276123,-0.33917236
1601134141465,38,0.04345703,0.89276123,-0.33917236
1601134141465,39,0.04345703,0.89276123,-0.33917236
1601134141465,40,0.041503906,0.8949585,-0.33892822
1601134141465,41,0.041748047,0.89520264,-0.34161377
1601134141465,42,0.041503906,0.8949585,-0.33892822
1601134141465,43,0.04345703,0.89276123,-0.33917236
1601134141466,44,0.041748047,0.89520264,-0.34161377
1601134141466,45,0.041503906,0.8949585,-0.33892822
1601134141466,46,0.041259766,0.8932495,-0.34283447
1601134141466,47,0.040527344,0.8903198,-0.34381104
1601134141466,48,0.041503906,0.8949585,-0.33892822
1601134141467,49,0.04345703,0.89276123,-0.33917236
1601134141470,50,0.041503906,0.8949585,-0.33892822
1601134141470,51,0.043945312,0.8900757,-0.3411255
1601134141470,52,0.041748047,0.89520264,-0.34161377
1601134141470,53,0.044189453,0.8937378,-0.3423462
1601134141470,54,0.041503906,0.8949585,-0.33892822
1601134141471,55,0.040527344,0.8903198,-0.34381104
1601134141471,56,0.041748047,0.89520264,-0.34161377
1601134141471,57,0.041503906,0.89056396,-0.33673096
1601134141471,58,0.041503906,0.89056396,-0.33673096
1601134141471,59,0.040527344,0.8903198,-0.34381104
1601134141471,60,0.041503906,0.8949585,-0.33892822
1601134141472,61,0.041748047,0.89520264,-0.34161377
1601134141472,62,0.04345703,0.89276123,-0.33917236
1601134141472,63,0.041259766,0.8932495,-0.34283447
1601134141472,64,0.040283203,0.8942261,-0.33917236
1601134141475,65,0.041748047,0.89520264,-0.34161377
1601134141475,66,0.043945312,0.8900757,-0.3411255
1601134141475,67,0.040527344,0.8903198,-0.34381104
1601134141475,68,0.040527344,0.8903198,-0.34381104
1601134141475,69,0.043945312,0.8900757,-0.3411255
1601134141475,70,0.041259766,0.8932495,-0.34283447
1601134141475,71,0.040527344,0.8903198,-0.34381104
1601134141476,72,0.04345703,0.89276123,-0.33917236
1601134141476,73,0.043945312,0.8900757,-0.3411255
1601134141476,74,0.04345703,0.89276123,-0.33917236
1601134141478,75,0.044189453,0.8937378,-0.3423462
1601134141478,76,0.044189453,0.8937378,-0.3423462
1601134141478,77,0.043945312,0.8900757,-0.3411255
1601134141487,78,0.043945312,0.8900757,-0.3411255
1601134141488,79,0.044189453,0.8937378,-0.3423462
1601134141488,80,0.041503906,0.8949585,-0.33892822
1601134141488,81,0.041748047,0.89520264,-0.34161377
1601134141488,82,0.041748047,0.89520264,-0.34161377
1601134141488,83,0.04321289,0.8912964,-0.34136963
1601134141488,84,0.041503906,0.8949585,-0.33892822
1601134141489,85,0.040283203,0.8942261,-0.33917236
1601134141489,86,0.040283203,0.8942261,-0.33917236
1601134141489,87,0.041748047,0.89520264,-0.34161377
1601134141489,88,0.044189453,0.8937378,-0.3423462
1601134141489,89,0.041503906,0.8949585,-0.33892822
1601134141489,90,0.040527344,0.8903198,-0.34381104
1601134141489,91,0.040283203,0.8942261,-0.33917236
1601134141489,92,0.043945312,0.8900757,-0.3411255
1601134141489,93,0.040527344,0.8903198,-0.34381104
1601134141490,94,0.040283203,0.8942261,-0.33917236
1601134141490,95,0.040527344,0.8903198,-0.34381104
1601134141490,96,0.03955078,0.8925171,-0.3399048
1601134141490,97,0.04321289,0.8912964,-0.34136963
1601134141490,98,0.041748047,0.89520264,-0.34161377
1601134141490,99,0.03955078,0.8925171,-0.3399048
1601134141490,100,0.04321289,0.8912964,-0.34136963
1601134141490,101,0.040527344,0.8903198,-0.34381104
1601134141490,102,0.043945312,0.8900757,-0.3411255
1601134141491,103,0.044189453,0.8915405,-0.3423462
1601134141491,104,0.043945312,0.8900757,-0.3411255
1601134141491,105,0.044189453,0.8937378,-0.3423462
1601134141491,106,0.044189453,0.8937378,-0.3423462
1601134141491,107,0.04321289,0.8912964,-0.34136963
1601134141491,108,0.044189453,0.8915405,-0.3423462
1601134141491,109,0.040283203,0.8942261,-0.33917236
1601134141491,110,0.04321289,0.8912964,-0.34136963
1601134141492,111,0.040527344,0.89105225,-0.34381104
1601134141493,112,0.03955078,0.8925171,-0.3399048
1601134141493,113,0.044189453,0.8937378,-0.3423462
1601134141493,114,0.044189453,0.8915405,-0.3423462
1601134141493,115,0.040283203,0.8942261,-0.33917236
1601134141493,116,0.040283203,0.8942261,-0.33917236
1601134141493,117,0.040527344,0.89105225,-0.34381104
1601134141493,118,0.04321289,0.8912964,-0.34136963
1601134141494,119,0.03955078,0.8925171,-0.3399048
1601134141494,120,0.04321289,0.8912964,-0.34136963
1601134141494,121,0.03955078,0.8925171,-0.3399048
1601134141494,122,0.044189453,0.8937378,-0.3423462
1601134141494,123,0.044189453,0.8915405,-0.3423462
1601134141494,124,0.040527344,0.89105225,-0.34381104
1601134141494,125,0.041748047,0.8900757,-0.34429932
1601134141494,126,0.040527344,0.89105225,-0.34381104
1601134141495,127,0.043945312,0.8900757,-0.3411255
1601134141495,128,0.03955078,0.8925171,-0.3399048
1601134141495,129,0.041748047,0.8900757,-0.34429932
1601134141495,130,0.03955078,0.8925171,-0.3399048
1601134141495,131,0.041748047,0.8900757,-0.34429932
1601134141495,132,0.040283203,0.8942261,-0.33917236
1601134141496,133,0.040527344,0.8903198,-0.3423462
1601134141496,134,0.040527344,0.8903198,-0.3423462
1601134141496,135,0.04321289,0.8912964,-0.34136963
1601134141496,136,0.041748047,0.8900757,-0.34429932
1601134141499,137,0.044189453,0.8915405,-0.3423462
1601134141499,138,0.04321289,0.8912964,-0.34136963
1601134141499,139,0.040527344,0.8903198,-0.3423462
1601134141499,140,0.044189453,0.8915405,-0.3423462
1601134141499,141,0.044189453,0.8915405,-0.3423462
1601134141499,142,0.044189453,0.8937378,-0.3423462
1601134141499,143,0.040527344,0.89105225,-0.34381104
1601134141499,144,0.04345703,0.89105225,-0.3477173
1601134141499,145,0.03955078,0.8925171,-0.3399048
1601134141500,146,0.040527344,0.8903198,-0.3423462
1601134141500,147,0.040527344,0.89105225,-0.34381104
1601134141500,148,0.044189453,0.8915405,-0.3423462
1601134141500,149,0.040527344,0.89105225,-0.34381104
1601134141502,150,0.04345703,0.89105225,-0.3477173
1601134141503,151,0.04345703,0.89105225,-0.3477173
1601134141503,152,0.040527344,0.89105225,-0.34381104
1601134141503,153,0.041748047,0.8900757,-0.34429932
1601134141508,154,0.041748047,0.8900757,-0.34429932
1601134141509,155,0.03955078,0.8925171,-0.3399048
1601134141509,156,0.040283203,0.887146,-0.34796143
1601134141509,157,0.040527344,0.8903198,-0.3423462
1601134141509,158,0.040283203,0.8942261,-0.33917236
1601134141509,159,0.041748047,0.8900757,-0.34429932
1601134141509,160,0.04345703,0.89105225,-0.3477173
1601134141509,161,0.040527344,0.8903198,-0.3423462
1601134141509,162,0.041748047,0.8900757,-0.34429932
1601134141509,163,0.040527344,0.8903198,-0.3423462
1601134141509,164,0.040527344,0.8903198,-0.3423462
1601134141510,165,0.040283203,0.887146,-0.34796143
1601134141510,166,0.044189453,0.8915405,-0.3423462
1601134141510,167,0.04345703,0.89105225,-0.3477173
1601134141510,168,0.04272461,0.8878784,-0.34625244
1601134141510,169,0.040283203,0.887146,-0.34796143
1601134141510,170,0.040283203,0.887146,-0.34796143
1601134141510,171,0.040527344,0.89105225,-0.34381104
1601134141510,172,0.04272461,0.8878784,-0.34625244
1601134141510,173,0.04345703,0.89105225,-0.3477173
1601134141510,174,0.041748047,0.8900757,-0.34429932
1601134141510,175,0.04272461,0.8878784,-0.34625244
1601134141510,176,0.040283203,0.887146,-0.34796143
1601134141510,177,0.040527344,0.8903198,-0.3423462
1601134141511,178,0.04272461,0.8878784,-0.34625244
1601134141512,179,0.040283203,0.887146,-0.34796143
1601134141519,180,0.04321289,0.8912964,-0.34136963
1601134141519,181,0.04272461,0.8908081,-0.35064697
1601134141519,182,0.04272461,0.8908081,-0.35064697
1601134141520,183,0.04296875,0.8930054,-0.34088135
1601134141520,184,0.04345703,0.89105225,-0.3477173
1601134141520,185,0.04296875,0.8930054,-0.34088135
1601134141520,186,0.043701172,0.8920288,-0.34454346
1601134141520,187,0.043701172,0.8920288,-0.34454346
1601134141520,188,0.04272461,0.8908081,-0.35064697
1601134141520,189,0.04272461,0.8878784,-0.34625244
1601134141520,190,0.04272461,0.8908081,-0.35064697
1601134141520,191,0.03955078,0.8925171,-0.3399048
1601134141520,192,0.04272461,0.8878784,-0.34625244
1601134141520,193,0.04345703,0.89105225,-0.3477173
1601134141520,194,0.040283203,0.887146,-0.34796143
1601134141520,195,0.04272461,0.8908081,-0.35064697
1601134141521,196,0.037109375,0.8890991,-0.34405518
1601134141521,197,0.040283203,0.887146,-0.34796143
1601134141521,198,0.04272461,0.89105225,-0.34283447
1601134141521,199,0.04296875,0.8930054,-0.34088135
1601134141522,200,0.044189453,0.8915405,-0.3423462
1601134141523,201,0.037109375,0.8890991,-0.34405518
1601134141537,202,0.04296875,0.8930054,-0.34088135
1601134141537,203,0.04272461,0.8878784,-0.34625244
1601134141537,204,0.040527344,0.89105225,-0.34381104
1601134141537,205,0.039794922,0.89227295,-0.3508911
1601134141538,206,0.04296875,0.8930054,-0.34088135
1601134141538,207,0.04345703,0.89105225,-0.3477173
1601134141538,208,0.043701172,0.8920288,-0.34454346
1601134141538,209,0.04272461,0.8908081,-0.35064697
1601134141538,210,0.04272461,0.89105225,-0.34283447
1601134141538,211,0.037109375,0.8890991,-0.34405518
1601134141538,212,0.04272461,0.8878784,-0.34625244
1601134141538,213,0.04272461,0.8908081,-0.35064697
1601134141539,214,0.039794922,0.89227295,-0.3508911
1601134141539,215,0.041748047,0.8900757,-0.34429932
1601134141539,216,0.04272461,0.8908081,-0.35064697
1601134141539,217,0.040283203,0.887146,-0.34796143
1601134141539,218,0.040771484,0.88934326,-0.33502197
1601134141539,219,0.04296875,0.8930054,-0.34088135
1601134141539,220,0.04272461,0.8878784,-0.34625244
1601134141539,221,0.040527344,0.8903198,-0.3423462
1601134141539,222,0.043701172,0.8920288,-0.34454346
1601134141540,223,0.04296875,0.8930054,-0.34088135
1601134141540,224,0.04345703,0.89105225,-0.3477173
1601134141540,225,0.043701172,0.8920288,-0.34454346
1601134141540,226,0.04296875,0.8930054,-0.34088135
1601134141540,227,0.043701172,0.8920288,-0.34454346
1601134141540,228,0.04272461,0.89105225,-0.34283447
1601134141540,229,0.043701172,0.8920288,-0.34454346
1601134141541,230,0.03930664,0.8949585,-0.33892822
1601134141541,231,0.039794922,0.89227295,-0.3508911
1601134141541,232,0.040771484,0.88934326,-0.33502197
1601134141541,233,0.040771484,0.88934326,-0.33502197
1601134141541,234,0.043701172,0.8920288,-0.34454346
1601134141541,235,0.040283203,0.887146,-0.34796143
1601134141541,236,0.03930664,0.8949585,-0.33892822
1601134141542,237,0.037109375,0.8890991,-0.34405518
1601134141542,238,0.037109375,0.8890991,-0.34405518
1601134141542,239,0.037109375,0.8890991,-0.34405518
1601134141542,240,0.04272461,0.8908081,-0.35064697
1601134141542,241,0.037109375,0.8890991,-0.34405518
1601134141542,242,0.042236328,0.8900757,-0.33746338
1601134141543,243,0.04272461,0.89105225,-0.34283447
1601134141544,244,0.03930664,0.8949585,-0.33892822
1601134141550,245,0.04272461,0.8878784,-0.34625244
1601134141550,246,0.042236328,0.8900757,-0.33746338
1601134141550,247,0.04272461,0.89105225,-0.34283447
1601134141550,248,0.04272461,0.89105225,-0.34283447
1601134141550,249,0.04296875,0.8930054,-0.34088135
1601134141550,250,0.04272461,0.89105225,-0.34283447
1601134141551,251,0.037109375,0.8890991,-0.34405518
1601134141551,252,0.04296875,0.8966675,-0.347229
1601134141551,253,0.039794922,0.89227295,-0.3508911
1601134141551,254,0.039794922,0.89227295,-0.3508911
1601134141551,255,0.04272461,0.8908081,-0.35064697
1601134141551,256,0.036865234,0.8900757,-0.32354736
1601134141551,257,0.04296875,0.8966675,-0.347229
1601134141551,258,0.040771484,0.88934326,-0.33502197
1601134141551,259,0.036865234,0.8900757,-0.32354736
1601134141552,260,0.043701172,0.8920288,-0.34454346
1601134141552,261,0.04272461,0.89105225,-0.34283447
1601134141552,262,0.041503906,0.8949585,-0.34014893
1601134141552,263,0.039794922,0.89227295,-0.3508911
1601134141552,264,0.04296875,0.8930054,-0.34088135
1601134141552,265,0.042236328,0.8900757,-0.33746338
1601134141552,266,0.039794922,0.89227295,-0.3508911
1601134141553,267,0.043701172,0.8920288,-0.34454346
1601134141553,268,0.03930664,0.8949585,-0.33892822
1601134141553,269,0.040771484,0.88934326,-0.33502197
1601134141559,270,0.037109375,0.8890991,-0.34405518
1601134141559,271,0.039794922,0.89227295,-0.3508911
1601134141559,272,0.040771484,0.88934326,-0.33502197
1601134141559,273,0.04296875,0.8966675,-0.347229
1601134141559,274,0.041503906,0.8949585,-0.34014893
1601134141560,275,0.040771484,0.88934326,-0.33502197
1601134141560,276,0.042236328,0.8900757,-0.33746338
1601134141560,277,0.037109375,0.8890991,-0.34405518
1601134141560,278,0.03930664,0.8949585,-0.33892822
1601134141560,279,0.04272461,0.89105225,-0.34283447
1601134141563,280,0.040771484,0.88934326,-0.33502197
1601134141563,281,0.039794922,0.89227295,-0.3508911
1601134141564,282,0.04296875,0.8966675,-0.347229
1601134141564,283,0.04272461,0.89105225,-0.34283447
1601134141564,284,0.03930664,0.8949585,-0.33892822
1601134141564,285,0.042236328,0.8900757,-0.33746338
1601134141564,286,0.03930664,0.8949585,-0.33892822
1601134141564,287,0.036865234,0.8900757,-0.32354736
1601134141565,288,0.03930664,0.8949585,-0.33892822
1601134141571,289,0.036865234,0.8900757,-0.32354736
1601134141572,290,0.042236328,0.8900757,-0.33746338
1601134141572,291,0.04296875,0.8966675,-0.347229
1601134141572,292,0.042236328,0.8900757,-0.33746338
1601134141572,293,0.041503906,0.8949585,-0.34014893
1601134141572,294,0.041503906,0.8949585,-0.34014893
1601134141573,295,0.042236328,0.8900757,-0.33746338
1601134141573,296,0.04296875,0.8966675,-0.347229
1601134141573,297,0.036865234,0.8900757,-0.32354736
1601134141573,298,0.04296875,0.8966675,-0.347229
1601134141573,299,0.040771484,0.88934326,-0.33502197
1601134141573,300,0.039794922,0.89227295,-0.3508911
1601134141574,301,0.04296875,0.8966675,-0.347229
1601134141575,302,0.040771484,0.88934326,-0.33502197
1601134141579,303,0.03930664,0.8949585,-0.33892822
1601134141579,304,0.036865234,0.8900757,-0.32354736
1601134141579,305,0.036865234,0.8900757,-0.32354736
1601134141579,306,0.036865234,0.8900757,-0.32354736
1601134141579,307,0.041503906,0.8949585,-0.34014893
1601134141580,308,0.042236328,0.8900757,-0.33746338
1601134141580,309,0.041503906,0.8949585,-0.34014893
1601134141581,310,0.041503906,0.8949585,-0.34014893
1601134141584,311,0.04296875,0.8966675,-0.347229
1601134141585,312,0.03930664,0.8949585,-0.33892822
1601134141585,313,0.041503906,0.8949585,-0.34014893
1601134141585,314,0.042236328,0.8900757,-0.33746338
1601134141587,315,0.036865234,0.8900757,-0.32354736
1601134141587,316,0.04296875,0.8966675,-0.347229
1601134141587,317,0.041503906,0.8949585,-0.34014893
1601134141589,318,0.036865234,0.8900757,-0.32354736
1601134141590,319,0.041503906,0.8949585,-0.34014893
1601134153863,320,0.03173828,0.86883545,-0.4102173
1601134153864,321,0.03173828,0.86883545,-0.4102173
1601134153865,322,0.03173828,0.86883545,-0.4102173
1601134153874,323,0.03173828,0.86883545,-0.4102173
1601134153874,324,0.0390625,0.87054443,-0.39874268
1601134153874,325,0.0390625,0.87054443,-0.39874268
1601134153875,326,0.0390625,0.87054443,-0.39874268
1601134153875,327,0.03173828,0.86883545,-0.4102173
1601134153875,328,0.03173828,0.86883545,-0.4102173
1601134153876,329,0.0390625,0.87054443,-0.39874268
1601134153877,330,0.041748047,0.87176514,-0.40118408
1601134153877,331,0.03173828,0.86883545,-0.4102173
1601134153877,332,0.03173828,0.86883545,-0.4102173
1601134153877,333,0.0390625,0.87054443,-0.39874268
1601134153877,334,0.041748047,0.87176514,-0.40118408
1601134153885,335,0.0390625,0.87054443,-0.39874268
1601134153885,336,0.041748047,0.87176514,-0.40118408
1601134153885,337,0.03125,0.8773804,-0.38775635
1601134153885,338,0.041748047,0.87176514,-0.40118408
1601134153885,339,0.03125,0.8773804,-0.38775635
1601134153885,340,0.03125,0.8773804,-0.38775635
1601134153885,341,0.0390625,0.87054443,-0.39874268
1601134153886,342,0.041748047,0.87176514,-0.40118408
1601134153887,343,0.03125,0.8773804,-0.38775635
1601134153894,344,0.03125,0.8773804,-0.38775635
1601134153895,345,0.0546875,0.8746948,-0.40582275
1601134153895,346,0.0546875,0.8746948,-0.40582275
1601134153895,347,0.041748047,0.87176514,-0.40118408
1601134153895,348,0.05102539,0.8764038,-0.39849854
1601134153895,349,0.041748047,0.87176514,-0.40118408
1601134153896,350,0.045166016,0.8751831,-0.38970947
1601134153896,351,0.0390625,0.87054443,-0.39874268
1601134153896,352,0.0546875,0.8746948,-0.40582275
1601134153896,353,0.0546875,0.8746948,-0.40582275
1601134153896,354,0.041748047,0.87176514,-0.40118408
1601134153896,355,0.03125,0.8773804,-0.38775635
1601134153896,356,0.045410156,0.8759155,-0.39312744
1601134153908,357,0.05102539,0.8764038,-0.39849854
1601134153908,358,0.03125,0.8773804,-0.38775635
1601134153908,359,0.05102539,0.8764038,-0.39849854
1601134153909,360,0.045166016,0.8751831,-0.38970947
1601134153910,361,0.0546875,0.8746948,-0.40582275
1601134153910,362,0.05102539,0.8764038,-0.39849854
1601134153910,363,0.045654297,0.8773804,-0.39239502
1601134153910,364,0.05102539,0.8764038,-0.39849854
1601134153910,365,0.041748047,0.8788452,-0.38458252
1601134153910,366,0.045166016,0.8751831,-0.38970947
1601134153910,367,0.0546875,0.8746948,-0.40582275
1601134153910,368,0.045410156,0.8759155,-0.39312744
1601134153911,369,0.045166016,0.8751831,-0.38970947
1601134153911,370,0.0546875,0.8746948,-0.40582275
1601134153911,371,0.045166016,0.8751831,-0.38970947
1601134153911,372,0.046875,0.88031006,-0.37945557
1601134153911,373,0.045410156,0.8759155,-0.39312744
1601134153911,374,0.045410156,0.8759155,-0.39312744
1601134153911,375,0.045654297,0.8773804,-0.39239502
1601134153911,376,0.05102539,0.8764038,-0.39849854
1601134153911,377,0.041748047,0.8788452,-0.38458252
1601134153911,378,0.045410156,0.8759155,-0.39312744
1601134153911,379,0.045166016,0.8751831,-0.38970947
1601134153911,380,0.03125,0.8773804,-0.38775635
1601134153911,381,0.045410156,0.8759155,-0.39312744
1601134153911,382,0.045654297,0.8773804,-0.39239502
1601134153912,383,0.045654297,0.8773804,-0.39239502
1601134153912,384,0.045654297,0.8773804,-0.39239502
1601134153912,385,0.041748047,0.8788452,-0.38458252
1601134153915,386,0.041748047,0.8788452,-0.38458252
1601134153915,387,0.04345703,0.8829956,-0.34918213
1601134153915,388,0.0546875,0.8746948,-0.40582275
1601134153915,389,0.041748047,0.8788452,-0.38458252
1601134153915,390,0.05102539,0.8764038,-0.39849854
1601134153916,391,0.046875,0.88031006,-0.37945557
1601134153916,392,0.046875,0.88031006,-0.37945557
1601134153916,393,0.05102539,0.8764038,-0.39849854
1601134153916,394,0.045166016,0.8751831,-0.38970947
1601134153916,395,0.04345703,0.8829956,-0.34918213
1601134153916,396,0.045410156,0.8759155,-0.39312744
1601134153916,397,0.04638672,0.89056396,-0.3652954
1601134153916,398,0.04638672,0.89056396,-0.3652954
1601134153916,399,0.045654297,0.8773804,-0.39239502
1601134153917,400,0.045166016,0.8751831,-0.38970947
1601134153917,401,0.04345703,0.8829956,-0.34918213
1601134153921,402,0.046875,0.88031006,-0.37945557
1601134153921,403,0.045654297,0.8773804,-0.39239502
1601134153922,404,0.043945312,0.8834839,-0.3633423
1601134153922,405,0.045410156,0.8759155,-0.39312744
1601134153922,406,0.041748047,0.8788452,-0.38458252
1601134153922,407,0.046875,0.88031006,-0.37945557
1601134153922,408,0.03930664,0.88494873,-0.35968018
1601134153922,409,0.04345703,0.8829956,-0.34918213
1601134153922,410,0.043945312,0.8834839,-0.3633423
1601134153922,411,0.037597656,0.8829956,-0.36749268
1601134153923,412,0.04345703,0.8829956,-0.34918213
1601134153930,413,0.04638672,0.89056396,-0.3652954
1601134153930,414,0.045654297,0.8773804,-0.39239502
1601134153931,415,0.043945312,0.8834839,-0.3633423
1601134153931,416,0.04638672,0.89056396,-0.3652954
1601134153931,417,0.041748047,0.8788452,-0.38458252
1601134153931,418,0.03930664,0.88494873,-0.35968018
1601134153931,419,0.040283203,0.88323975,-0.37139893
1601134153931,420,0.046875,0.88031006,-0.37945557
1601134153931,421,0.037597656,0.8829956,-0.36749268
1601134153931,422,0.046875,0.88031006,-0.37945557
1601134153931,423,0.041748047,0.8788452,-0.38458252
1601134153932,424,0.04321289,0.88397217,-0.3682251
1601134153932,425,0.03930664,0.88494873,-0.35968018
1601134153932,426,0.046875,0.88031006,-0.37945557
1601134153933,427,0.037597656,0.8829956,-0.36749268
1601134153933,428,0.04345703,0.8829956,-0.34918213
1601134153933,429,0.040283203,0.88323975,-0.37139893
1601134153933,430,0.04345703,0.8829956,-0.34918213
1601134153933,431,0.04638672,0.89056396,-0.3652954
1601134153933,432,0.043945312,0.8834839,-0.3633423
1601134153934,433,0.04638672,0.89056396,-0.3652954
1601134153936,434,0.04321289,0.88397217,-0.3682251
1601134153939,435,0.04345703,0.8829956,-0.34918213
1601134153939,436,0.044189453,0.8834839,-0.35894775
1601134153939,437,0.04638672,0.89056396,-0.3652954
1601134153939,438,0.04638672,0.89056396,-0.3652954
1601134153939,439,0.043945312,0.8834839,-0.3633423
1601134153939,440,0.043945312,0.8834839,-0.3633423
1601134153939,441,0.043945312,0.8834839,-0.3633423
1601134153939,442,0.044189453,0.8834839,-0.35894775
1601134153941,443,0.04345703,0.885437,-0.3682251
1601134153941,444,0.0390625,0.88494873,-0.36114502
1601134153941,445,0.03930664,0.88494873,-0.35968018
1601134153942,446,0.04345703,0.885437,-0.3682251
1601134153942,447,0.03930664,0.88494873,-0.35968018
1601134153942,448,0.03930664,0.88494873,-0.35968018
1601134153942,449,0.0390625,0.88494873,-0.36114502
1601134153942,450,0.040283203,0.88323975,-0.37139893
1601134153942,451,0.043945312,0.8834839,-0.3633423
1601134153945,452,0.03930664,0.88494873,-0.35968018
1601134153947,453,0.037597656,0.8829956,-0.36749268
1601134153947,454,0.037597656,0.8829956,-0.36749268
1601134153956,455,0.04321289,0.88397217,-0.3682251
1601134153957,456,0.03930664,0.88494873,-0.35968018
1601134153957,457,0.041015625,0.8842163,-0.3718872
1601134153957,458,0.041015625,0.8842163,-0.3718872
1601134153957,459,0.037597656,0.8829956,-0.36749268
1601134153957,460,0.044189453,0.8834839,-0.35894775
1601134153957,461,0.037597656,0.8829956,-0.36749268
1601134153957,462,0.041748047,0.8851929,-0.37139893
1601134153957,463,0.040283203,0.88323975,-0.37139893
1601134153958,464,0.037597656,0.8829956,-0.36749268
1601134153958,465,0.040283203,0.88323975,-0.37139893
1601134153958,466,0.04345703,0.885437,-0.3682251
1601134153958,467,0.040283203,0.88323975,-0.37139893
1601134153958,468,0.04321289,0.88397217,-0.3682251
1601134153958,469,0.0390625,0.88494873,-0.36114502
1601134153958,470,0.040283203,0.88323975,-0.37139893
1601134153958,471,0.04321289,0.88397217,-0.3682251
1601134153959,472,0.044189453,0.8834839,-0.35894775
1601134153959,473,0.041748047,0.8851929,-0.37139893
1601134153959,474,0.04345703,0.885437,-0.3682251
1601134153959,475,0.044189453,0.8834839,-0.35894775
1601134153959,476,0.0390625,0.88494873,-0.36114502
1601134153959,477,0.041015625,0.8842163,-0.3718872
1601134153960,478,0.04321289,0.88397217,-0.3682251
1601134153960,479,0.041748047,0.8851929,-0.37139893
1601134153960,480,0.041748047,0.8825073,-0.36260986
1601134153960,481,0.041748047,0.8825073,-0.36260986
1601134153960,482,0.04321289,0.88397217,-0.3682251
1601134153960,483,0.044189453,0.8834839,-0.35894775
1601134153970,484,0.040283203,0.88323975,-0.37139893
1601134153970,485,0.041748047,0.8825073,-0.36260986
1601134153971,486,0.043701172,0.88494873,-0.362854
1601134153971,487,0.04345703,0.885437,-0.3682251
1601134153971,488,0.044189453,0.8834839,-0.35894775
1601134153971,489,0.043701172,0.88494873,-0.362854
1601134153971,490,0.041015625,0.8842163,-0.3718872
1601134153971,491,0.044921875,0.8866577,-0.36724854
1601134153971,492,0.04345703,0.885437,-0.3682251
1601134153972,493,0.040527344,0.88397217,-0.36309814
1601134153972,494,0.044921875,0.8866577,-0.36724854
1601134153972,495,0.041748047,0.8851929,-0.37139893
1601134153972,496,0.041748047,0.8825073,-0.3513794
1601134153972,497,0.0390625,0.88494873,-0.36114502
1601134153972,498,0.043701172,0.88494873,-0.36920166
1601134153973,499,0.043701172,0.88494873,-0.362854
1601134153973,500,0.041503906,0.885437,-0.36187744
1601134153974,501,0.041015625,0.8842163,-0.3718872
1601134153974,502,0.041748047,0.8825073,-0.36260986
1601134153974,503,0.0390625,0.88494873,-0.36114502
1601134153974,504,0.044921875,0.8866577,-0.36724854
1601134153977,505,0.04345703,0.885437,-0.3682251
1601134153977,506,0.040771484,0.88446045,-0.36480713
1601134153977,507,0.040527344,0.88397217,-0.36309814
1601134153978,508,0.037353516,0.8866577,-0.35894775
1601134153978,509,0.04321289,0.88397217,-0.3682251
1601134153978,510,0.040527344,0.88397217,-0.36309814
1601134153978,511,0.041015625,0.8842163,-0.3718872
1601134153979,512,0.043701172,0.88494873,-0.362854
1601134153979,513,0.041748047,0.8825073,-0.3513794
1601134153979,514,0.041748047,0.8851929,-0.37139893
1601134153982,515,0.044189453,0.8834839,-0.35894775
1601134153982,516,0.0390625,0.88494873,-0.36114502
1601134153982,517,0.041748047,0.8825073,-0.3513794
1601134153989,518,0.041748047,0.8825073,-0.36260986
1601134153989,519,0.044921875,0.8866577,-0.36724854
1601134153989,520,0.041748047,0.8851929,-0.37139893
1601134153989,521,0.043701172,0.88494873,-0.36920166
1601134153989,522,0.04345703,0.885437,-0.3682251
1601134153990,523,0.041748047,0.8825073,-0.36260986
1601134153991,524,0.041503906,0.885437,-0.36187744
1601134153991,525,0.043701172,0.88494873,-0.362854
1601134153991,526,0.043701172,0.88494873,-0.362854
1601134153991,527,0.040527344,0.88397217,-0.36309814
1601134153991,528,0.044921875,0.8866577,-0.36724854
1601134153996,529,0.043701172,0.88494873,-0.36920166
1601134153996,530,0.040527344,0.88397217,-0.36309814
1601134153996,531,0.044921875,0.8866577,-0.36724854
1601134153996,532,0.0390625,0.88494873,-0.36114502
1601134153996,533,0.041748047,0.8825073,-0.3513794
1601134153996,534,0.040527344,0.88397217,-0.36309814
1601134153996,535,0.040771484,0.88446045,-0.36480713
1601134153996,536,0.041503906,0.885437,-0.36187744
1601134153996,537,0.041748047,0.8825073,-0.3513794
1601134153996,538,0.041748047,0.8825073,-0.3513794
1601134153997,539,0.041015625,0.8842163,-0.3718872
1601134153998,540,0.041015625,0.8842163,-0.3718872
1601134153999,541,0.043701172,0.88494873,-0.36920166
1601134154005,542,0.043701172,0.88494873,-0.36920166
1601134154005,543,0.041503906,0.885437,-0.36187744
1601134154005,544,0.043701172,0.88494873,-0.36920166
1601134154005,545,0.041748047,0.8851929,-0.37139893
1601134154005,546,0.041503906,0.885437,-0.36187744
1601134154005,547,0.041748047,0.8851929,-0.37139893
1601134154005,548,0.037353516,0.8866577,-0.35894775
1601134154005,549,0.040771484,0.88446045,-0.36480713
1601134154007,550,0.040771484,0.88446045,-0.36480713
1601134154009,551,0.041748047,0.8825073,-0.36260986
1601134154019,552,0.040771484,0.88446045,-0.36480713
1601134154019,553,0.037353516,0.8866577,-0.35894775
1601134154019,554,0.041503906,0.885437,-0.36187744
1601134154019,555,0.041748047,0.8825073,-0.36260986
1601134154019,556,0.040771484,0.88446045,-0.36480713
1601134154019,557,0.037353516,0.8866577,-0.35894775
1601134154019,558,0.043701172,0.88494873,-0.362854
1601134154020,559,0.037353516,0.8866577,-0.35894775
1601134154020,560,0.037353516,0.8866577,-0.35894775
1601134154020,561,0.043701172,0.88494873,-0.362854
1601134154021,562,0.044921875,0.8866577,-0.36724854
1601134154022,563,0.044921875,0.8866577,-0.36724854
1601134154023,564,0.040527344,0.88397217,-0.36309814
1601134154026,565,0.041748047,0.8825073,-0.3513794
1601134154026,566,0.040527344,0.88397217,-0.36309814
1601134154031,567,0.041748047,0.8825073,-0.3513794
1601134154032,568,0.043701172,0.88494873,-0.36920166
1601134154032,569,0.043701172,0.88494873,-0.36920166
1601134154032,570,0.041503906,0.885437,-0.36187744
1601134154032,571,0.041503906,0.885437,-0.36187744
1601134154032,572,0.040771484,0.88446045,-0.36480713
1601134154032,573,0.040771484,0.88446045,-0.36480713
1601134154032,574,0.037353516,0.8866577,-0.35894775
1601134154032,575,0.037353516,0.8866577,-0.35894775
1601134156411,576,0.03930664,0.885437,-0.3723755
1601134156411,577,0.03930664,0.885437,-0.3723755
1601134156411,578,0.03930664,0.885437,-0.3723755
1601134156412,579,0.03930664,0.885437,-0.3723755
1601134156412,580,0.03930664,0.885437,-0.3723755
1601134156413,581,0.03930664,0.885437,-0.3723755
1601134156413,582,0.0390625,0.8812866,-0.36138916
1601134156413,583,0.03930664,0.885437,-0.3723755
1601134156413,584,0.03930664,0.885437,-0.3723755
1601134156413,585,0.0390625,0.8812866,-0.36138916
1601134156413,586,0.0390625,0.8812866,-0.36138916
1601134156413,587,0.0390625,0.8812866,-0.36138916
1601134156413,588,0.0390625,0.8812866,-0.36138916
1601134156425,589,0.044189453,0.8851929,-0.37042236
1601134156426,590,0.0390625,0.8812866,-0.36138916
1601134156428,591,0.0390625,0.8812866,-0.36138916
1601134156428,592,0.044189453,0.8851929,-0.37042236
1601134156428,593,0.0390625,0.8812866,-0.36138916
1601134156428,594,0.04272461,0.8817749,-0.36627197
1601134156428,595,0.044189453,0.8851929,-0.37042236
1601134156428,596,0.044189453,0.8851929,-0.37042236
1601134156428,597,0.044189453,0.8851929,-0.37042236
1601134156428,598,0.04272461,0.8817749,-0.36627197
1601134156428,599,0.044189453,0.8851929,-0.37042236
1601134156429,600,0.04272461,0.8817749,-0.36627197
1601134156429,601,0.03930664,0.885437,-0.3723755
1601134156429,602,0.044189453,0.8851929,-0.37042236
1601134156429,603,0.03930664,0.885437,-0.3723755
1601134156429,604,0.040527344,0.8829956,-0.3604126
1601134156429,605,0.044189453,0.8851929,-0.37042236
1601134156432,606,0.040527344,0.8829956,-0.3604126
1601134156432,607,0.04272461,0.8817749,-0.36627197
1601134156432,608,0.04272461,0.8817749,-0.36627197
1601134156432,609,0.040527344,0.8829956,-0.3604126
1601134156432,610,0.04272461,0.8817749,-0.36627197
1601134156432,611,0.04272461,0.8817749,-0.36627197
1601134156432,612,0.040527344,0.8829956,-0.3604126
1601134156432,613,0.0390625,0.8812866,-0.36138916
1601134156432,614,0.03857422,0.8829956,-0.3652954
1601134156432,615,0.0390625,0.8812866,-0.36138916
1601134156432,616,0.04272461,0.8817749,-0.36627197
1601134156432,617,0.040527344,0.8829956,-0.3604126
1601134156433,618,0.044189453,0.8851929,-0.37042236
1601134156433,619,0.040527344,0.8829956,-0.3604126
1601134156433,620,0.040527344,0.8829956,-0.3604126
1601134156433,621,0.03857422,0.8829956,-0.3652954
1601134156433,622,0.040527344,0.8829956,-0.3604126
1601134156436,623,0.03857422,0.8829956,-0.3652954
1601134156459,624,0.03857422,0.8829956,-0.3652954
1601134156459,625,0.04272461,0.8817749,-0.36627197
1601134156459,626,0.03857422,0.8829956,-0.3652954
1601134156459,627,0.040527344,0.8829956,-0.3604126
1601134156459,628,0.04248047,0.8847046,-0.36968994
1601134156459,629,0.04248047,0.8847046,-0.36968994
1601134156459,630,0.044189453,0.8851929,-0.37042236
1601134156459,631,0.03857422,0.8829956,-0.3652954
1601134156459,632,0.03955078,0.88323975,-0.36358643
1601134156460,633,0.03857422,0.8829956,-0.3652954
1601134156460,634,0.03955078,0.88323975,-0.36358643
1601134156460,635,0.03857422,0.8829956,-0.3652954
1601134156460,636,0.046142578,0.88323975,-0.36309814
1601134156460,637,0.03857422,0.8829956,-0.3652954
1601134156460,638,0.04248047,0.88568115,-0.36676025
1601134156460,639,0.04248047,0.8847046,-0.36968994
1601134156460,640,0.041992188,0.8864136,-0.36553955
1601134156460,641,0.04248047,0.8847046,-0.36968994
1601134156460,642,0.040771484,0.88201904,-0.3670044
1601134156460,643,0.04248047,0.8847046,-0.36968994
1601134156460,644,0.042236328,0.8851929,-0.36846924
1601134156460,645,0.04248047,0.8847046,-0.36968994
1601134156460,646,0.046142578,0.88323975,-0.36309814
1601134156460,647,0.04248047,0.8847046,-0.36968994
1601134156463,648,0.04248047,0.8847046,-0.36968994
1601134156463,649,0.03955078,0.88323975,-0.36358643
1601134156463,650,0.03955078,0.88323975,-0.36358643
1601134156463,651,0.03955078,0.88323975,-0.36358643
1601134156463,652,0.046142578,0.88323975,-0.36309814
1601134156464,653,0.046142578,0.88323975,-0.36309814
1601134156464,654,0.03955078,0.88323975,-0.36358643
1601134156464,655,0.04248047,0.8847046,-0.36968994
1601134156464,656,0.04248047,0.88568115,-0.36676025
1601134156464,657,0.041748047,0.8842163,-0.36358643
1601134156464,658,0.04248047,0.88568115,-0.36676025
1601134156465,659,0.03881836,0.883728,-0.36724854
1601134156465,660,0.040283203,0.8825073,-0.3604126
1601134156465,661,0.04272461,0.8817749,-0.36627197
1601134156465,662,0.03955078,0.88323975,-0.36358643
1601134156465,663,0.03955078,0.88323975,-0.36358643
1601134156465,664,0.03955078,0.88323975,-0.36358643
1601134156465,665,0.04248047,0.88568115,-0.36676025
1601134156465,666,0.046142578,0.88323975,-0.36309814
1601134156465,667,0.041992188,0.8864136,-0.36553955
1601134156465,668,0.046142578,0.88323975,-0.36309814
1601134156465,669,0.04248047,0.88568115,-0.36676025
1601134156465,670,0.046142578,0.88323975,-0.36309814
1601134156465,671,0.04248047,0.88568115,-0.36676025
1601134156465,672,0.040527344,0.8829956,-0.3604126
1601134156465,673,0.04248047,0.88568115,-0.36676025
1601134156465,674,0.046142578,0.88323975,-0.36309814
1601134156466,675,0.041992188,0.8864136,-0.36553955
1601134156466,676,0.041992188,0.8864136,-0.36553955
1601134156466,677,0.041992188,0.8864136,-0.36553955
1601134156469,678,0.041015625,0.88446045,-0.3657837
1601134156469,679,0.041992188,0.8864136,-0.36553955
1601134156469,680,0.04321289,0.8847046,-0.36798096
1601134156469,681,0.04248047,0.88568115,-0.36676025
1601134156469,682,0.03857422,0.8829956,-0.3652954
1601134156469,683,0.041992188,0.8864136,-0.36553955
1601134156469,684,0.040771484,0.88201904,-0.3670044
1601134156469,685,0.040771484,0.88201904,-0.3670044
1601134156470,686,0.040771484,0.88201904,-0.3670044
1601134156470,687,0.041992188,0.8864136,-0.36553955
1601134156470,688,0.046142578,0.88323975,-0.36309814
1601134156470,689,0.040771484,0.88201904,-0.3670044
1601134156470,690,0.04248047,0.8847046,-0.36968994
1601134156470,691,0.042236328,0.8851929,-0.36846924
1601134156470,692,0.040771484,0.88201904,-0.3670044
1601134156470,693,0.042236328,0.8851929,-0.36846924
1601134156470,694,0.040771484,0.88201904,-0.3670044
1601134156470,695,0.042236328,0.8851929,-0.36846924
1601134156471,696,0.042236328,0.8851929,-0.36846924
1601134156471,697,0.04248047,0.88568115,-0.36676025
1601134156471,698,0.03955078,0.88323975,-0.36358643
1601134156471,699,0.042236328,0.8851929,-0.36846924
1601134156474,700,0.041748047,0.8842163,-0.36358643
1601134156474,701,0.041748047,0.8842163,-0.36358643
1601134156474,702,0.041748047,0.8842163,-0.36358643
1601134156474,703,0.042236328,0.8851929,-0.36846924
1601134156474,704,0.04296875,0.8842163,-0.36676025
1601134156474,705,0.041748047,0.8842163,-0.36358643
1601134156474,706,0.041992188,0.8864136,-0.36553955
1601134156475,707,0.041015625,0.8847046,-0.36260986
1601134156475,708,0.040771484,0.88201904,-0.3670044
1601134156475,709,0.041748047,0.8842163,-0.36358643
1601134156476,710,0.03881836,0.883728,-0.36724854
1601134156477,711,0.041748047,0.8842163,-0.36358643
1601134156480,712,0.03881836,0.883728,-0.36724854
1601134156480,713,0.03881836,0.883728,-0.36724854
1601134156480,714,0.040283203,0.8825073,-0.3604126
1601134156491,715,0.042236328,0.8851929,-0.36846924
1601134156491,716,0.03881836,0.883728,-0.36724854
1601134156491,717,0.046142578,0.88323975,-0.36309814
1601134156491,718,0.040283203,0.8825073,-0.3604126
1601134156492,719,0.03881836,0.883728,-0.36724854
1601134156492,720,0.040771484,0.88201904,-0.3670044
1601134156492,721,0.040283203,0.8825073,-0.3604126
1601134156492,722,0.041503906,0.88568115,-0.362854
1601134156492,723,0.042236328,0.8851929,-0.36846924
1601134156492,724,0.041015625,0.88446045,-0.3657837
1601134156492,725,0.041015625,0.88446045,-0.3657837
1601134156492,726,0.04321289,0.8847046,-0.36798096
1601134156492,727,0.041748047,0.8842163,-0.36358643
1601134156493,728,0.040283203,0.8825073,-0.3604126
1601134156493,729,0.040283203,0.8825073,-0.3604126
1601134156493,730,0.04248047,0.88568115,-0.36676025
1601134156493,731,0.03881836,0.883728,-0.36724854
1601134156493,732,0.04296875,0.8842163,-0.36676025
1601134156493,733,0.041015625,0.88446045,-0.3657837
1601134156493,734,0.040039062,0.88323975,-0.3633423
1601134156493,735,0.03881836,0.883728,-0.36724854
1601134156494,736,0.041748047,0.8842163,-0.36358643
1601134156499,737,0.041015625,0.88446045,-0.3657837
1601134156499,738,0.041015625,0.88446045,-0.3657837
1601134156499,739,0.041015625,0.8847046,-0.36260986
1601134156499,740,0.04321289,0.8847046,-0.36798096
1601134156499,741,0.041992188,0.8864136,-0.36553955
1601134156499,742,0.041015625,0.88446045,-0.36602783
1601134156500,743,0.04321289,0.8847046,-0.36798096
1601134156500,744,0.041503906,0.88568115,-0.362854
1601134156500,745,0.040283203,0.8825073,-0.3604126
1601134156500,746,0.040283203,0.8825073,-0.3604126
1601134156504,747,0.04321289,0.8847046,-0.36798096
1601134156504,748,0.04321289,0.8847046,-0.36798096
1601134156504,749,0.04296875,0.8842163,-0.36676025
1601134156504,750,0.040039062,0.88323975,-0.3633423
1601134156504,751,0.04296875,0.8842163,-0.36676025
1601134156504,752,0.041015625,0.88446045,-0.3657837
1601134156504,753,0.040771484,0.88201904,-0.3670044
1601134156505,754,0.03881836,0.883728,-0.36724854
1601134156505,755,0.04296875,0.8842163,-0.36676025
1601134156505,756,0.041015625,0.88446045,-0.3657837
1601134156509,757,0.04296875,0.8842163,-0.36676025
1601134156510,758,0.041015625,0.8847046,-0.36260986
1601134156510,759,0.040283203,0.88446045,-0.3711548
1601134156510,760,0.041015625,0.8847046,-0.36260986
1601134156510,761,0.041015625,0.88446045,-0.36602783
1601134156510,762,0.042236328,0.8851929,-0.36846924
1601134156510,763,0.041015625,0.8847046,-0.36260986
1601134156510,764,0.041503906,0.88568115,-0.362854
1601134156510,765,0.040283203,0.8825073,-0.3604126
1601134156510,766,0.040283203,0.88446045,-0.3711548
1601134156511,767,0.040039062,0.88323975,-0.3633423
1601134156512,768,0.041015625,0.88397217,-0.36749268
1601134156512,769,0.04272461,0.8834839,-0.362854
1601134156516,770,0.04321289,0.8847046,-0.36798096
1601134156516,771,0.041015625,0.88397217,-0.36749268
1601134156516,772,0.041015625,0.88446045,-0.36602783
1601134156516,773,0.041015625,0.88446045,-0.3657837
1601134156517,774,0.041015625,0.8847046,-0.36260986
1601134156517,775,0.041503906,0.88568115,-0.362854
1601134156517,776,0.04321289,0.8847046,-0.36798096
1601134156517,777,0.04272461,0.8834839,-0.362854
1601134156517,778,0.041503906,0.88568115,-0.362854
1601134156529,779,0.04296875,0.88323975,-0.36358643
1601134156529,780,0.04296875,0.8842163,-0.36676025
1601134156529,781,0.040283203,0.88446045,-0.3711548
1601134156529,782,0.041503906,0.88568115,-0.362854
1601134156530,783,0.04321289,0.8847046,-0.36798096
1601134156530,784,0.041015625,0.88397217,-0.36749268
1601134156530,785,0.040039062,0.88323975,-0.3633423
1601134156530,786,0.04296875,0.8842163,-0.36676025
1601134156530,787,0.04296875,0.88323975,-0.36358643
1601134156530,788,0.040039062,0.88323975,-0.3633423
1601134156530,789,0.041015625,0.88446045,-0.36602783
1601134156530,790,0.041259766,0.88446045,-0.36676025
1601134156531,791,0.041015625,0.8847046,-0.36260986
1601134156531,792,0.040283203,0.88446045,-0.3711548
1601134156531,793,0.041748047,0.8842163,-0.36358643
1601134156531,794,0.041015625,0.88397217,-0.36749268
1601134156531,795,0.04272461,0.8834839,-0.362854
1601134156531,796,0.041259766,0.88446045,-0.36676025
1601134156535,797,0.041015625,0.8847046,-0.36260986
1601134156535,798,0.041015625,0.88446045,-0.36602783
1601134156535,799,0.040039062,0.88323975,-0.3633423
1601134156536,800,0.041503906,0.88568115,-0.362854
1601134156536,801,0.041503906,0.88568115,-0.362854
1601134156536,802,0.04272461,0.8834839,-0.362854
1601134156536,803,0.040039062,0.88323975,-0.3633423
1601134156536,804,0.04296875,0.8842163,-0.36676025
1601134156536,805,0.041015625,0.88446045,-0.36602783
1601134156537,806,0.040039062,0.8834839,-0.36505127
1601134156537,807,0.040283203,0.88446045,-0.3711548
1601134156538,808,0.040039062,0.88323975,-0.3633423
1601134156539,809,0.041015625,0.88446045,-0.36602783
1601134156554,810,0.04296875,0.88323975,-0.36358643
1601134156554,811,0.04296875,0.88323975,-0.36358643
1601134156554,812,0.041015625,0.8847046,-0.36260986
1601134156555,813,0.040283203,0.88446045,-0.3711548
1601134156555,814,0.03955078,0.8829956,-0.36260986
1601134156555,815,0.03881836,0.883728,-0.36724854
1601134156555,816,0.041015625,0.88397217,-0.36749268
1601134156555,817,0.040039062,0.8834839,-0.36505127
1601134156559,818,0.040283203,0.88446045,-0.3711548
1601134156559,819,0.040283203,0.8825073,-0.3604126
1601134156559,820,0.041015625,0.88397217,-0.36749268
1601134156560,821,0.041259766,0.88446045,-0.36676025
1601134156560,822,0.041015625,0.88446045,-0.3657837
1601134156560,823,0.03955078,0.8829956,-0.36260986
1601134156560,824,0.04272461,0.8834839,-0.362854
1601134156560,825,0.041015625,0.88446045,-0.36602783
1601134156560,826,0.041503906,0.8847046,-0.3682251
1601134156560,827,0.041259766,0.88446045,-0.36676025
1601134156560,828,0.041015625,0.88397217,-0.36749268
1601134156561,829,0.041503906,0.8847046,-0.3682251
1601134156561,830,0.04272461,0.8834839,-0.362854
1601134156561,831,0.041503906,0.88568115,-0.362854
1601134156561,832,0.040039062,0.8834839,-0.36505127
1601134156561,833,0.04321289,0.8847046,-0.36798096
1601134156561,834,0.04272461,0.8834839,-0.362854
1601134156561,835,0.040039062,0.88323975,-0.3633423
1601134156561,836,0.040283203,0.8825073,-0.36480713
1601134156561,837,0.040283203,0.88446045,-0.3711548
1601134156561,838,0.041015625,0.88446045,-0.36602783
1601134156562,839,0.04296875,0.88323975,-0.36358643
1601134156562,840,0.04296875,0.88323975,-0.36358643
1601134156562,841,0.041259766,0.88446045,-0.36676025
1601134156567,842,0.040039062,0.8834839,-0.36505127
1601134156567,843,0.040039062,0.8834839,-0.36505127
1601134156567,844,0.03955078,0.8829956,-0.36260986
1601134156567,845,0.040283203,0.88446045,-0.3711548
1601134156567,846,0.03955078,0.8829956,-0.36260986
1601134156567,847,0.041503906,0.8847046,-0.3682251
1601134156567,848,0.04296875,0.88323975,-0.36358643
1601134156567,849,0.03955078,0.8829956,-0.36260986
1601134156567,850,0.04296875,0.8842163,-0.36676025
1601134156568,851,0.040283203,0.8825073,-0.36480713
1601134156568,852,0.041015625,0.88397217,-0.36749268
1601134156569,853,0.041259766,0.88446045,-0.36676025
1601134156569,854,0.040283203,0.8825073,-0.36480713
1601134156569,855,0.041015625,0.8847046,-0.36260986
1601134156569,856,0.041015625,0.88397217,-0.36749268
1601134156579,857,0.041259766,0.88446045,-0.36676025
1601134156579,858,0.041503906,0.8847046,-0.3682251
1601134156579,859,0.040039062,0.8834839,-0.36505127
1601134156579,860,0.041503906,0.8847046,-0.3682251
1601134156579,861,0.04272461,0.8834839,-0.362854
1601134156579,862,0.041503906,0.88568115,-0.362854
1601134156579,863,0.03955078,0.8829956,-0.36260986
1601134156579,864,0.041503906,0.8847046,-0.3682251
1601134156580,865,0.040283203,0.8825073,-0.36480713
1601134156580,866,0.040283203,0.8825073,-0.36480713
1601134156580,867,0.04272461,0.8834839,-0.362854
1601134156581,868,0.040283203,0.8825073,-0.36480713
1601134156581,869,0.04296875,0.88323975,-0.36358643
1601134156581,870,0.04296875,0.88323975,-0.36358643
1601134156581,871,0.040039062,0.88323975,-0.3633423
1601134156581,872,0.040039062,0.8834839,-0.36505127
1601134156582,873,0.041259766,0.88446045,-0.36676025
1601134156587,874,0.041259766,0.88446045,-0.36676025
1601134156587,875,0.040039062,0.8834839,-0.36505127
1601134156587,876,0.03955078,0.8829956,-0.36260986
1601134156587,877,0.03955078,0.8829956,-0.36260986
1601134156587,878,0.041503906,0.8847046,-0.3682251
1601134156587,879,0.040039062,0.8834839,-0.36505127
1601134156588,880,0.041015625,0.88446045,-0.36602783
1601134156588,881,0.041503906,0.8847046,-0.3682251
1601134156588,882,0.040283203,0.8825073,-0.36480713
1601134156588,883,0.03955078,0.8829956,-0.36260986
1601134156590,884,0.040283203,0.8825073,-0.36480713
1601134156590,885,0.040283203,0.88446045,-0.3711548
1601134156591,886,0.041503906,0.8847046,-0.3682251
1601134156592,887,0.041015625,0.88397217,-0.36749268
1601134156594,888,0.040283203,0.8825073,-0.36480713
1601134156594,889,0.04272461,0.8834839,-0.362854
1601134156594,890,0.04296875,0.88323975,-0.36358643
1601134156596,891,0.041259766,0.88446045,-0.36676025
1601134156600,892,0.040039062,0.8834839,-0.36505127
1601134156600,893,0.03955078,0.8829956,-0.36260986
1601134156601,894,0.041503906,0.8847046,-0.3682251
1601134156601,895,0.040283203,0.8825073,-0.36480713
1601134158978,896,0.04272461,0.8834839,-0.362854
1601134158978,897,0.04272461,0.8834839,-0.362854
1601134158979,898,0.04272461,0.8834839,-0.362854
1601134158979,899,0.04272461,0.8793335,-0.36309814
1601134158982,900,0.04272461,0.8834839,-0.362854
1601134158982,901,0.04272461,0.8834839,-0.362854
1601134158982,902,0.04272461,0.8834839,-0.362854
1601134158982,903,0.04272461,0.8793335,-0.36309814
1601134158982,904,0.04272461,0.8834839,-0.362854
1601134158982,905,0.04272461,0.8793335,-0.36309814
1601134158982,906,0.03955078,0.885437,-0.36602783
1601134158983,907,0.04272461,0.8793335,-0.36309814
1601134158983,908,0.04272461,0.8834839,-0.362854
1601134158983,909,0.04272461,0.8834839,-0.362854
1601134158983,910,0.04272461,0.8834839,-0.362854
1601134158988,911,0.04272461,0.8793335,-0.36309814
1601134158989,912,0.03955078,0.885437,-0.36602783
1601134159001,913,0.04272461,0.8793335,-0.36309814
1601134159001,914,0.04272461,0.8793335,-0.36309814
1601134159001,915,0.03955078,0.885437,-0.36602783
1601134159001,916,0.03955078,0.885437,-0.36602783
1601134159001,917,0.041259766,0.8825073,-0.36749268
1601134159001,918,0.03955078,0.885437,-0.36602783
1601134159002,919,0.04272461,0.8793335,-0.36309814
1601134159003,920,0.03955078,0.885437,-0.36602783
1601134159003,921,0.041259766,0.8825073,-0.36749268
1601134159003,922,0.04272461,0.8793335,-0.36309814
1601134159004,923,0.041259766,0.8825073,-0.36749268
1601134159004,924,0.03955078,0.885437,-0.36602783
1601134159004,925,0.03955078,0.885437,-0.36602783
1601134159004,926,0.041259766,0.8825073,-0.36749268
1601134159004,927,0.041259766,0.8825073,-0.36749268
1601134159004,928,0.040527344,0.883728,-0.36627197
1601134159004,929,0.04272461,0.8793335,-0.36309814
1601134159005,930,0.041259766,0.8825073,-0.36749268
1601134159014,931,0.040527344,0.883728,-0.36627197
1601134159015,932,0.041259766,0.8825073,-0.36749268
1601134159015,933,0.040527344,0.883728,-0.36627197
1601134159015,934,0.041259766,0.8825073,-0.36749268
1601134159015,935,0.040527344,0.883728,-0.36627197
1601134159015,936,0.03955078,0.885437,-0.36602783
1601134159015,937,0.040527344,0.883728,-0.36627197
1601134159015,938,0.043945312,0.8834839,-0.37139893
1601134159017,939,0.03955078,0.885437,-0.36602783
1601134159017,940,0.040527344,0.883728,-0.36627197
1601134159017,941,0.040527344,0.883728,-0.36627197
1601134159018,942,0.041259766,0.8825073,-0.36749268
1601134159018,943,0.043945312,0.8834839,-0.37139893
1601134159018,944,0.040527344,0.883728,-0.36627197
1601134159018,945,0.043945312,0.8834839,-0.37139893
1601134159018,946,0.041259766,0.8825073,-0.36749268
1601134159018,947,0.041992188,0.8829956,-0.36383057
1601134159018,948,0.043945312,0.8834839,-0.37139893
1601134159018,949,0.041992188,0.8829956,-0.36383057
1601134159018,950,0.041992188,0.8829956,-0.36383057
1601134159018,951,0.043945312,0.8834839,-0.37139893
1601134159020,952,0.040527344,0.883728,-0.36627197
1601134159020,953,0.043945312,0.8834839,-0.37139893
1601134159020,954,0.040527344,0.883728,-0.36627197
1601134159020,955,0.043945312,0.8834839,-0.37139893
1601134159022,956,0.041992188,0.8829956,-0.36383057
1601134159027,957,0.045166016,0.8834839,-0.37408447
1601134159027,958,0.045166016,0.8834839,-0.37408447
1601134159027,959,0.04296875,0.8825073,-0.3640747
1601134159027,960,0.045166016,0.8834839,-0.37408447
1601134159027,961,0.041748047,0.8847046,-0.3682251
1601134159027,962,0.043945312,0.8834839,-0.37139893
1601134159027,963,0.041992188,0.8829956,-0.36383057
1601134159028,964,0.041992188,0.8829956,-0.36383057
1601134159028,965,0.041992188,0.8829956,-0.36383057
1601134159028,966,0.045166016,0.8834839,-0.37408447
1601134159028,967,0.045166016,0.8834839,-0.37408447
1601134159028,968,0.043945312,0.8834839,-0.37139893
1601134159029,969,0.043945312,0.8834839,-0.37139893
1601134159029,970,0.04296875,0.88275146,-0.36309814
1601134159044,971,0.044677734,0.8847046,-0.36553955
1601134159044,972,0.041992188,0.8829956,-0.36383057
1601134159045,973,0.04296875,0.8825073,-0.3640747
1601134159045,974,0.04296875,0.8825073,-0.3640747
1601134159045,975,0.045166016,0.8834839,-0.37408447
1601134159045,976,0.041748047,0.8847046,-0.3682251
1601134159045,977,0.045166016,0.8834839,-0.37408447
1601134159045,978,0.041992188,0.8829956,-0.36383057
1601134159045,979,0.04296875,0.8825073,-0.3640747
1601134159046,980,0.041992188,0.8829956,-0.36383057
1601134159046,981,0.041748047,0.8847046,-0.3682251
1601134159046,982,0.04296875,0.88397217,-0.37335205
1601134159046,983,0.045166016,0.8834839,-0.37408447
1601134159046,984,0.04296875,0.8825073,-0.3640747
1601134159046,985,0.041748047,0.8847046,-0.3682251
1601134159046,986,0.04296875,0.8825073,-0.3640747
1601134159046,987,0.041748047,0.8847046,-0.3682251
1601134159046,988,0.04296875,0.8825073,-0.3640747
1601134159046,989,0.04296875,0.88275146,-0.36309814
1601134159047,990,0.045166016,0.8834839,-0.37408447
1601134159047,991,0.04296875,0.88275146,-0.36309814
1601134159047,992,0.045166016,0.8834839,-0.37408447
1601134159047,993,0.040039062,0.88079834,-0.364563
1601134159047,994,0.04296875,0.8825073,-0.3640747
1601134159047,995,0.04296875,0.88275146,-0.36309814
1601134159047,996,0.04296875,0.88275146,-0.36309814
1601134159047,997,0.041748047,0.8847046,-0.3682251
1601134159047,998,0.041748047,0.8847046,-0.3682251
1601134159047,999,0.044677734,0.8847046,-0.36553955
1601134159048,1000,0.044677734,0.8847046,-0.36553955
1601134159048,1001,0.04296875,0.8825073,-0.3640747
1601134159048,1002,0.047607422,0.8798218,-0.3718872
1601134159048,1003,0.04296875,0.8825073,-0.3640747
1601134159048,1004,0.044677734,0.8847046,-0.36553955
1601134159048,1005,0.044677734,0.8847046,-0.36553955
1601134159049,1006,0.04296875,0.88397217,-0.37335205
1601134159049,1007,0.04296875,0.88275146,-0.36309814
1601134159049,1008,0.041748047,0.8847046,-0.3682251
1601134159049,1009,0.041748047,0.8847046,-0.3682251
1601134159049,1010,0.04296875,0.88397217,-0.37335205
1601134159049,1011,0.04296875,0.88275146,-0.36309814
1601134159049,1012,0.04296875,0.88275146,-0.36309814
1601134159049,1013,0.04296875,0.88275146,-0.36309814
1601134159050,1014,0.04296875,0.88397217,-0.37335205
1601134159060,1015,0.046142578,0.88153076,-0.3616333
1601134159060,1016,0.044677734,0.8847046,-0.36553955
1601134159061,1017,0.040039062,0.88079834,-0.364563
1601134159061,1018,0.041748047,0.8847046,-0.3682251
1601134159061,1019,0.044677734,0.8847046,-0.36553955
1601134159061,1020,0.04296875,0.88397217,-0.37335205
1601134159061,1021,0.040039062,0.88079834,-0.364563
1601134159061,1022,0.04296875,0.88275146,-0.36309814
1601134159061,1023,0.04296875,0.88397217,-0.37335205
1601134159062,1024,0.044677734,0.8847046,-0.36553955
1601134159062,1025,0.04638672,0.88690186,-0.37042236
1601134159063,1026,0.040039062,0.88079834,-0.364563
1601134159063,1027,0.04296875,0.88397217,-0.37335205
1601134159063,1028,0.047607422,0.8798218,-0.3718872
1601134159063,1029,0.040039062,0.88079834,-0.364563
1601134159063,1030,0.040039062,0.88079834,-0.364563
1601134159063,1031,0.044677734,0.8847046,-0.36553955
1601134159068,1032,0.04345703,0.88397217,-0.36553955
1601134159069,1033,0.047607422,0.8798218,-0.3718872
1601134159069,1034,0.044677734,0.8847046,-0.36553955
1601134159069,1035,0.047607422,0.8798218,-0.3718872
1601134159069,1036,0.04296875,0.88397217,-0.37335205
1601134159069,1037,0.04296875,0.88397217,-0.37335205
1601134159069,1038,0.047607422,0.8798218,-0.3718872
1601134159086,1039,0.047607422,0.8798218,-0.3718872
1601134159086,1040,0.046142578,0.88153076,-0.3616333
1601134159086,1041,0.040039062,0.88079834,-0.364563
1601134159086,1042,0.046142578,0.88153076,-0.3616333
1601134159086,1043,0.046142578,0.88153076,-0.3616333
1601134159086,1044,0.04296875,0.88397217,-0.37335205
1601134159086,1045,0.045166016,0.8822632,-0.3706665
1601134159086,1046,0.04638672,0.88690186,-0.37042236
1601134159086,1047,0.040039062,0.88079834,-0.364563
1601134159086,1048,0.046142578,0.88153076,-0.3616333
1601134159087,1049,0.04345703,0.88397217,-0.36553955
1601134159087,1050,0.047607422,0.8798218,-0.3718872
1601134159087,1051,0.04638672,0.88690186,-0.37042236
1601134159087,1052,0.04638672,0.88690186,-0.37042236
1601134159087,1053,0.046142578,0.88153076,-0.3616333
1601134159087,1054,0.040039062,0.88079834,-0.364563
1601134159088,1055,0.043701172,0.88323975,-0.36553955
1601134159088,1056,0.04638672,0.88690186,-0.37042236
1601134159088,1057,0.047607422,0.8798218,-0.3718872
1601134159088,1058,0.047607422,0.8798218,-0.3718872
1601134159088,1059,0.04272461,0.8829956,-0.35577393
1601134159088,1060,0.04345703,0.88397217,-0.36553955
1601134159088,1061,0.045166016,0.8822632,-0.3706665
1601134159088,1062,0.04345703,0.88397217,-0.36553955
1601134159088,1063,0.046142578,0.88153076,-0.3616333
1601134159088,1064,0.04638672,0.88690186,-0.37042236
1601134159088,1065,0.040039062,0.88079834,-0.364563
1601134159088,1066,0.04345703,0.88397217,-0.36553955
1601134159088,1067,0.045166016,0.8822632,-0.3706665
1601134159088,1068,0.045166016,0.8822632,-0.3706665
1601134159089,1069,0.04248047,0.8859253,-0.36358643
1601134159089,1070,0.047607422,0.8798218,-0.3718872
1601134159089,1071,0.04345703,0.88397217,-0.36553955
1601134159089,1072,0.04248047,0.8864136,-0.3640747
1601134159089,1073,0.043701172,0.88323975,-0.36553955
1601134159089,1074,0.04638672,0.88690186,-0.37042236
1601134159089,1075,0.046142578,0.88153076,-0.3616333
1601134159089,1076,0.046142578,0.88153076,-0.3616333
1601134159089,1077,0.04272461,0.8829956,-0.35577393
1601134159089,1078,0.04638672,0.88690186,-0.37042236
1601134159089,1079,0.046142578,0.88153076,-0.3616333
1601134159090,1080,0.045166016,0.8822632,-0.3706665
1601134159090,1081,0.045166016,0.8822632,-0.3706665
1601134159091,1082,0.04321289,0.8851929,-0.36212158
1601134159091,1083,0.04248047,0.8859253,-0.36358643
1601134159091,1084,0.04345703,0.88397217,-0.36553955
1601134159091,1085,0.03857422,0.883728,-0.36065674
1601134159092,1086,0.04345703,0.88397217,-0.36553955
1601134159092,1087,0.043701172,0.88323975,-0.36553955
1601134159092,1088,0.045166016,0.8822632,-0.3706665
1601134159092,1089,0.043701172,0.88323975,-0.36553955
1601134159092,1090,0.043701172,0.88323975,-0.36553955
1601134159092,1091,0.04248047,0.8864136,-0.3640747
1601134159092,1092,0.04272461,0.8829956,-0.35577393
1601134159092,1093,0.043701172,0.88323975,-0.36553955
1601134159094,1094,0.04272461,0.8834839,-0.36505127
1601134159095,1095,0.04638672,0.88690186,-0.37042236
1601134159095,1096,0.04272461,0.8829956,-0.35577393
1601134159095,1097,0.041992188,0.88275146,-0.36260986
1601134159095,1098,0.043701172,0.88323975,-0.36553955
1601134159095,1099,0.04248047,0.8859253,-0.36358643
1601134159095,1100,0.04321289,0.8851929,-0.36212158
1601134159095,1101,0.042236328,0.8834839,-0.36431885
1601134159095,1102,0.045166016,0.8822632,-0.3706665
1601134159098,1103,0.04272461,0.8829956,-0.35577393
1601134159098,1104,0.04345703,0.88397217,-0.36553955
1601134159098,1105,0.045166016,0.8822632,-0.3706665
1601134159098,1106,0.04272461,0.8829956,-0.35577393
1601134159105,1107,0.043701172,0.88323975,-0.36553955
1601134159105,1108,0.043701172,0.88323975,-0.36553955
1601134159105,1109,0.04272461,0.8829956,-0.35577393
1601134159105,1110,0.04638672,0.88690186,-0.37042236
1601134159105,1111,0.04248047,0.8859253,-0.36358643
1601134159105,1112,0.04248047,0.8859253,-0.36358643
1601134159106,1113,0.03857422,0.883728,-0.36065674
1601134159106,1114,0.04248047,0.8864136,-0.3640747
1601134159106,1115,0.04272461,0.8829956,-0.35577393
1601134159106,1116,0.04272461,0.8834839,-0.36505127
1601134159106,1117,0.044433594,0.8851929,-0.36358643
1601134159106,1118,0.04272461,0.8829956,-0.35577393
1601134159106,1119,0.04248047,0.8859253,-0.36358643
1601134159106,1120,0.04248047,0.8864136,-0.3640747
1601134159106,1121,0.04248047,0.8864136,-0.3640747
1601134159107,1122,0.04248047,0.8859253,-0.36358643
1601134159107,1123,0.04321289,0.8851929,-0.36212158
1601134159107,1124,0.04248047,0.8859253,-0.36358643
1601134159107,1125,0.041992188,0.88275146,-0.36260986
1601134159107,1126,0.04345703,0.88397217,-0.36553955
1601134159107,1127,0.04248047,0.8864136,-0.3640747
1601134159108,1128,0.04248047,0.8864136,-0.3640747
1601134159109,1129,0.045166016,0.8822632,-0.3706665
1601134159109,1130,0.044677734,0.8851929,-0.36212158
1601134159116,1131,0.04321289,0.8851929,-0.36212158
1601134159116,1132,0.04248047,0.8864136,-0.3640747
1601134159116,1133,0.03857422,0.883728,-0.36065674
1601134159116,1134,0.04321289,0.8851929,-0.36212158
1601134159116,1135,0.04321289,0.8851929,-0.36212158
1601134159116,1136,0.042236328,0.8834839,-0.36431885
1601134159117,1137,0.03857422,0.883728,-0.36065674
1601134159117,1138,0.043701172,0.88323975,-0.36553955
1601134159117,1139,0.04248047,0.8859253,-0.36358643
1601134159117,1140,0.042236328,0.88323975,-0.3604126
1601134159117,1141,0.04248047,0.8864136,-0.3640747
1601134159117,1142,0.03857422,0.883728,-0.36065674
1601134159117,1143,0.044677734,0.88397217,-0.36553955
1601134159117,1144,0.04321289,0.8851929,-0.36212158
1601134159117,1145,0.04321289,0.8851929,-0.36212158
1601134159117,1146,0.03857422,0.883728,-0.36065674
1601134159117,1147,0.044433594,0.8851929,-0.36358643
1601134159118,1148,0.03857422,0.883728,-0.36065674
1601134159118,1149,0.04272461,0.8829956,-0.35577393
1601134159127,1150,0.04272461,0.8834839,-0.36505127
1601134159127,1151,0.04272461,0.8834839,-0.36505127
1601134159127,1152,0.04272461,0.8834839,-0.36505127
1601134159127,1153,0.03857422,0.883728,-0.36065674
1601134159127,1154,0.044677734,0.8851929,-0.36212158
1601134159128,1155,0.04321289,0.8851929,-0.36212158
1601134159128,1156,0.04272461,0.8834839,-0.36505127
1601134159128,1157,0.04248047,0.8859253,-0.36358643
1601134159128,1158,0.04272461,0.8834839,-0.36505127
1601134159128,1159,0.04248047,0.8864136,-0.3640747
1601134159128,1160,0.041992188,0.88275146,-0.36260986
1601134159128,1161,0.041992188,0.88275146,-0.36260986
1601134159128,1162,0.041992188,0.88275146,-0.36260986
1601134159128,1163,0.041992188,0.88275146,-0.36260986
1601134159128,1164,0.03857422,0.883728,-0.36065674
1601134159129,1165,0.042236328,0.8834839,-0.36431885
1601134159129,1166,0.042236328,0.8834839,-0.36431885
1601134159129,1167,0.044433594,0.8851929,-0.36358643
1601134159129,1168,0.042236328,0.8834839,-0.36431885
1601134159129,1169,0.044677734,0.8851929,-0.36212158
1601134159129,1170,0.04272461,0.8834839,-0.36505127
1601134159129,1171,0.042236328,0.88323975,-0.3604126
1601134159129,1172,0.042236328,0.8834839,-0.36431885
1601134159129,1173,0.04272461,0.8834839,-0.36505127
1601134159130,1174,0.04321289,0.8851929,-0.36212158
1601134159130,1175,0.041992188,0.88275146,-0.36260986
1601134159130,1176,0.044433594,0.8851929,-0.36358643
1601134159130,1177,0.042236328,0.8834839,-0.36431885
1601134159130,1178,0.042236328,0.88323975,-0.3604126
1601134159130,1179,0.044433594,0.8851929,-0.36358643
1601134159130,1180,0.044677734,0.8851929,-0.36212158
1601134159130,1181,0.044677734,0.88397217,-0.36553955
1601134159132,1182,0.044677734,0.8851929,-0.36212158
1601134159132,1183,0.044433594,0.8851929,-0.36358643
1601134159133,1184,0.041992188,0.88275146,-0.36260986
1601134159133,1185,0.044677734,0.88397217,-0.36553955
1601134159133,1186,0.03857422,0.883728,-0.36065674
1601134159134,1187,0.044433594,0.8851929,-0.36358643
1601134159134,1188,0.041992188,0.88275146,-0.36260986
1601134159134,1189,0.044677734,0.8851929,-0.36212158
1601134159134,1190,0.044677734,0.8851929,-0.36212158
1601134159134,1191,0.042236328,0.88323975,-0.3604126
1601134159134,1192,0.042236328,0.88323975,-0.3604126
1601134159136,1193,0.042236328,0.88323975,-0.3604126
1601134159136,1194,0.042236328,0.8834839,-0.36431885
1601134159138,1195,0.042236328,0.88323975,-0.3604126
1601134159138,1196,0.044677734,0.88397217,-0.36553955
1601134159138,1197,0.044677734,0.88397217,-0.36553955
1601134159139,1198,0.044433594,0.8851929,-0.36358643
1601134159140,1199,0.044677734,0.88397217,-0.36553955
1601134159140,1200,0.044677734,0.88397217,-0.36553955
1601134159140,1201,0.042236328,0.8834839,-0.36431885
1601134159141,1202,0.044677734,0.8851929,-0.36212158
1601134159143,1203,0.044433594,0.8851929,-0.36358643
1601134159144,1204,0.042236328,0.88323975,-0.3604126
1601134159144,1205,0.04272461,0.8834839,-0.36505127
1601134159144,1206,0.044677734,0.8851929,-0.36212158
1601134159144,1207,0.044677734,0.88397217,-0.36553955
1601134159144,1208,0.041992188,0.88275146,-0.36260986
1601134159146,1209,0.042236328,0.88323975,-0.3604126
1601134159146,1210,0.042236328,0.8834839,-0.36431885
1601134159147,1211,0.044677734,0.88397217,-0.36553955
1601134159150,1212,0.044433594,0.8851929,-0.36358643
1601134159151,1213,0.044677734,0.8851929,-0.36212158
1601134159151,1214,0.042236328,0.88323975,-0.3604126
1601134159151,1215,0.044677734,0.88397217,-0.36553955
1601134161468,1216,0.042236328,0.8847046,-0.36138916
1601134161476,1217,0.041259766,0.8864136,-0.36724854
1601134161476,1218,0.042236328,0.8847046,-0.36138916
1601134161476,1219,0.042236328,0.8847046,-0.36138916
1601134161477,1220,0.042236328,0.8847046,-0.36138916
1601134161477,1221,0.042236328,0.8847046,-0.36138916
1601134161477,1222,0.042236328,0.8847046,-0.36138916
1601134161479,1223,0.041259766,0.8864136,-0.36724854
1601134161479,1224,0.042236328,0.8847046,-0.36138916
1601134161480,1225,0.042236328,0.8847046,-0.36138916
1601134161496,1226,0.041259766,0.8864136,-0.36724854
1601134161496,1227,0.041259766,0.8864136,-0.36724854
1601134161496,1228,0.041259766,0.8864136,-0.36724854
1601134161496,1229,0.042236328,0.8847046,-0.36138916
1601134161497,1230,0.042236328,0.885437,-0.3591919
1601134161497,1231,0.041259766,0.8864136,-0.36724854
1601134161497,1232,0.041259766,0.8864136,-0.36724854
1601134161497,1233,0.041259766,0.8864136,-0.36724854
1601134161497,1234,0.042236328,0.885437,-0.3591919
1601134161497,1235,0.041259766,0.8864136,-0.36724854
1601134161497,1236,0.042236328,0.885437,-0.3591919
1601134161497,1237,0.042236328,0.885437,-0.3591919
1601134161498,1238,0.042236328,0.885437,-0.3591919
1601134161498,1239,0.041748047,0.88323975,-0.364563
1601134161498,1240,0.042236328,0.885437,-0.3591919
1601134161498,1241,0.041748047,0.88323975,-0.364563
1601134161498,1242,0.042236328,0.885437,-0.3591919
1601134161498,1243,0.04296875,0.88323975,-0.36236572
1601134161498,1244,0.041748047,0.88323975,-0.364563
1601134161498,1245,0.042236328,0.885437,-0.3591919
1601134161498,1246,0.04296875,0.88323975,-0.36236572
1601134161498,1247,0.041748047,0.88323975,-0.364563
1601134161513,1248,0.042236328,0.885437,-0.3591919
1601134161513,1249,0.04296875,0.88323975,-0.36236572
1601134161513,1250,0.041748047,0.88323975,-0.364563
1601134161513,1251,0.043945312,0.8859253,-0.36749268
1601134161513,1252,0.042236328,0.8847046,-0.36138916
1601134161514,1253,0.04296875,0.88323975,-0.36236572
1601134161514,1254,0.041748047,0.88323975,-0.364563
1601134161514,1255,0.041748047,0.88323975,-0.364563
1601134161514,1256,0.043945312,0.8859253,-0.36749268
1601134161514,1257,0.04296875,0.88323975,-0.36236572
1601134161514,1258,0.04296875,0.88323975,-0.36236572
1601134161514,1259,0.041748047,0.88323975,-0.364563
1601134161515,1260,0.041748047,0.88323975,-0.364563
1601134161515,1261,0.043945312,0.8859253,-0.36749268
1601134161515,1262,0.040527344,0.88934326,-0.36138916
1601134161515,1263,0.041259766,0.8864136,-0.36724854
1601134161515,1264,0.043945312,0.8859253,-0.36749268
1601134161516,1265,0.04296875,0.88323975,-0.36236572
1601134161516,1266,0.042236328,0.885437,-0.3591919
1601134161516,1267,0.043945312,0.8859253,-0.36749268
1601134161516,1268,0.043945312,0.8859253,-0.36749268
1601134161516,1269,0.041748047,0.88323975,-0.364563
1601134161517,1270,0.040527344,0.88934326,-0.36138916
1601134161517,1271,0.040527344,0.88934326,-0.36138916
1601134161517,1272,0.040527344,0.88934326,-0.36138916
1601134161517,1273,0.04296875,0.88323975,-0.36236572
1601134161518,1274,0.040527344,0.88934326,-0.36138916
1601134161526,1275,0.043945312,0.8859253,-0.36749268
1601134161526,1276,0.040527344,0.88934326,-0.36138916
1601134161526,1277,0.04296875,0.88323975,-0.36236572
1601134161527,1278,0.042236328,0.885437,-0.35284424
1601134161527,1279,0.040527344,0.88934326,-0.36138916
1601134161527,1280,0.042236328,0.885437,-0.35284424
1601134161531,1281,0.042236328,0.885437,-0.35284424
1601134161531,1282,0.043945312,0.8859253,-0.36749268
1601134161531,1283,0.042236328,0.885437,-0.35284424
1601134161531,1284,0.042236328,0.885437,-0.35284424
1601134161531,1285,0.04296875,0.88323975,-0.36236572
1601134161534,1286,0.042236328,0.885437,-0.35284424
1601134161534,1287,0.043945312,0.8859253,-0.36749268
1601134161534,1288,0.044921875,0.8915405,-0.3591919
1601134161535,1289,0.040527344,0.88934326,-0.36138916
1601134161535,1290,0.040527344,0.88934326,-0.36138916
1601134161535,1291,0.044921875,0.8915405,-0.3591919
1601134161535,1292,0.044921875,0.8915405,-0.3591919
1601134161535,1293,0.042236328,0.885437,-0.35284424
1601134161535,1294,0.043945312,0.8859253,-0.36749268
1601134161535,1295,0.044921875,0.8915405,-0.3591919
1601134161562,1296,0.044921875,0.8915405,-0.3591919
1601134161572,1297,0.042236328,0.885437,-0.35284424
1601134161575,1298,0.041503906,0.8866577,-0.35479736
1601134161575,1299,0.042236328,0.885437,-0.35284424
1601134161575,1300,0.044921875,0.8915405,-0.3591919
1601134161575,1301,0.044921875,0.8915405,-0.3591919
1601134161575,1302,0.040527344,0.88934326,-0.36138916
1601134161575,1303,0.044921875,0.8915405,-0.3591919
1601134161575,1304,0.041503906,0.8866577,-0.35479736
1601134161576,1305,0.042236328,0.885437,-0.35284424
1601134161576,1306,0.037353516,0.8859253,-0.35406494
1601134161576,1307,0.041503906,0.8866577,-0.35479736
1601134161576,1308,0.044921875,0.8915405,-0.3591919
1601134161576,1309,0.04272461,0.88861084,-0.3587036
1601134161576,1310,0.041503906,0.8866577,-0.35479736
1601134161576,1311,0.041503906,0.8866577,-0.35479736
1601134161576,1312,0.041503906,0.8866577,-0.35479736
1601134161576,1313,0.041503906,0.8866577,-0.35479736
1601134161576,1314,0.044921875,0.8915405,-0.3591919
1601134161576,1315,0.037353516,0.8859253,-0.35406494
1601134161576,1316,0.037353516,0.8859253,-0.35406494
1601134161576,1317,0.041503906,0.8866577,-0.35479736
1601134161576,1318,0.037353516,0.8859253,-0.35406494
1601134161576,1319,0.045166016,0.8866577,-0.35528564
1601134161577,1320,0.04272461,0.88861084,-0.3587036
1601134161577,1321,0.037353516,0.8859253,-0.35406494
1601134161577,1322,0.045166016,0.8866577,-0.35528564
1601134161577,1323,0.037353516,0.8859253,-0.35406494
1601134161577,1324,0.04272461,0.88861084,-0.3587036
1601134161577,1325,0.041503906,0.8866577,-0.35479736
1601134161577,1326,0.04272461,0.88861084,-0.3587036
1601134161577,1327,0.04272461,0.88861084,-0.3587036
1601134161577,1328,0.041503906,0.8866577,-0.35479736
1601134161577,1329,0.045166016,0.8866577,-0.35528564
1601134161577,1330,0.042236328,0.8883667,-0.35577393
1601134161577,1331,0.037353516,0.8859253,-0.35406494
1601134161577,1332,0.042236328,0.8883667,-0.35577393
1601134161577,1333,0.04272461,0.88861084,-0.3587036
1601134161577,1334,0.037353516,0.8859253,-0.35406494
1601134161577,1335,0.046875,0.8866577,-0.36016846
1601134161577,1336,0.037353516,0.8859253,-0.35406494
1601134161577,1337,0.037353516,0.8859253,-0.35406494
1601134161577,1338,0.045166016,0.8866577,-0.35528564
1601134161577,1339,0.04272461,0.88861084,-0.3587036
1601134161578,1340,0.046875,0.8866577,-0.36016846
1601134161578,1341,0.042236328,0.8883667,-0.35577393
1601134161578,1342,0.045166016,0.8866577,-0.35528564
1601134161578,1343,0.04272461,0.88861084,-0.3587036
1601134161585,1344,0.044921875,0.88494873,-0.35601807
1601134161585,1345,0.045166016,0.8866577,-0.35528564
1601134161585,1346,0.04272461,0.88861084,-0.3587036
1601134161585,1347,0.042236328,0.8883667,-0.35577393
1601134161586,1348,0.045166016,0.8866577,-0.35528564
1601134161586,1349,0.046875,0.8866577,-0.36016846
1601134161586,1350,0.046875,0.8866577,-0.36016846
1601134161586,1351,0.04272461,0.88861084,-0.3587036
1601134161586,1352,0.044921875,0.88494873,-0.35601807
1601134161586,1353,0.042236328,0.8883667,-0.35577393
1601134161586,1354,0.045166016,0.8866577,-0.35528564
1601134161586,1355,0.046875,0.8866577,-0.36016846
1601134161586,1356,0.042236328,0.8883667,-0.35577393
1601134161586,1357,0.045166016,0.8866577,-0.35528564
1601134161586,1358,0.044921875,0.88494873,-0.35601807
1601134161587,1359,0.044921875,0.88494873,-0.35601807
1601134161587,1360,0.046875,0.8866577,-0.36016846
1601134161587,1361,0.043945312,0.887146,-0.35284424
1601134161587,1362,0.043945312,0.887146,-0.35284424
1601134161587,1363,0.042236328,0.8883667,-0.35577393
1601134161587,1364,0.04321289,0.88739014,-0.35308838
1601134161587,1365,0.044921875,0.88494873,-0.35601807
1601134161587,1366,0.043945312,0.887146,-0.35284424
1601134161587,1367,0.04321289,0.88739014,-0.35308838
1601134161587,1368,0.043945312,0.887146,-0.35284424
1601134161587,1369,0.04321289,0.88739014,-0.35308838
1601134161587,1370,0.045166016,0.8866577,-0.35528564
1601134161587,1371,0.042236328,0.8883667,-0.35577393
1601134161588,1372,0.042236328,0.8883667,-0.35577393
1601134161588,1373,0.04663086,0.88616943,-0.35235596
1601134161588,1374,0.046875,0.8866577,-0.36016846
1601134161588,1375,0.046875,0.8866577,-0.36016846
1601134161588,1376,0.044677734,0.88983154,-0.35333252
1601134161588,1377,0.044921875,0.88494873,-0.35601807
1601134161588,1378,0.045410156,0.8883667,-0.35064697
1601134161588,1379,0.043945312,0.887146,-0.35284424
1601134161588,1380,0.044921875,0.88494873,-0.35601807
1601134161594,1381,0.042236328,0.8883667,-0.35577393
1601134161594,1382,0.046875,0.8866577,-0.36016846
1601134161594,1383,0.04663086,0.88616943,-0.35235596
1601134161595,1384,0.046875,0.8866577,-0.36016846
1601134161595,1385,0.044921875,0.88494873,-0.35601807
1601134161595,1386,0.043945312,0.887146,-0.35284424
1601134161595,1387,0.044677734,0.88983154,-0.35333252
1601134161595,1388,0.04321289,0.88739014,-0.35308838
1601134161595,1389,0.04321289,0.88739014,-0.35308838
1601134161595,1390,0.043945312,0.887146,-0.35284424
1601134161595,1391,0.044921875,0.88494873,-0.35601807
1601134161595,1392,0.04321289,0.88739014,-0.35308838
1601134161595,1393,0.042236328,0.88934326,-0.34942627
1601134161595,1394,0.04663086,0.88616943,-0.35235596
1601134161596,1395,0.04321289,0.88739014,-0.35308838
1601134161596,1396,0.043945312,0.887146,-0.35284424
1601134161596,1397,0.045410156,0.8883667,-0.35064697
1601134161596,1398,0.04321289,0.88861084,-0.35430908
1601134161596,1399,0.04663086,0.88616943,-0.35235596
1601134161596,1400,0.044921875,0.88494873,-0.35601807
1601134161596,1401,0.043945312,0.887146,-0.35284424
1601134161596,1402,0.04663086,0.88616943,-0.35235596
1601134161597,1403,0.044677734,0.88983154,-0.35333252
1601134161598,1404,0.04663086,0.88616943,-0.35235596
1601134161598,1405,0.045410156,0.8883667,-0.35064697
1601134161598,1406,0.042236328,0.88934326,-0.34942627
1601134161599,1407,0.044677734,0.88983154,-0.35333252
1601134161599,1408,0.04321289,0.88739014,-0.35308838
1601134161605,1409,0.045410156,0.8883667,-0.35064697
1601134161606,1410,0.04663086,0.88616943,-0.35235596
1601134161606,1411,0.04321289,0.88397217,-0.3477173
1601134161606,1412,0.042236328,0.88934326,-0.34942627
1601134161606,1413,0.042236328,0.88934326,-0.34942627
1601134161606,1414,0.04321289,0.88861084,-0.35430908
1601134161606,1415,0.043945312,0.887146,-0.35284424
1601134161606,1416,0.044677734,0.88983154,-0.35333252
1601134161606,1417,0.04663086,0.88616943,-0.35235596
1601134161606,1418,0.04321289,0.88739014,-0.35308838
1601134161606,1419,0.044677734,0.88983154,-0.35333252
1601134161606,1420,0.044677734,0.88983154,-0.35333252
1601134161607,1421,0.045410156,0.8883667,-0.35064697
1601134161607,1422,0.04321289,0.88861084,-0.35430908
1601134161607,1423,0.042236328,0.88934326,-0.34942627
1601134161607,1424,0.04321289,0.88861084,-0.35430908
1601134161607,1425,0.04321289,0.88861084,-0.35430908
1601134161609,1426,0.04321289,0.88397217,-0.3477173
1601134161609,1427,0.04321289,0.88397217,-0.3477173
1601134161614,1428,0.04663086,0.88616943,-0.35235596
1601134161614,1429,0.044677734,0.88983154,-0.35333252
1601134161615,1430,0.045410156,0.8883667,-0.35064697
1601134161615,1431,0.044677734,0.88983154,-0.35333252
1601134161615,1432,0.045410156,0.8883667,-0.35064697
1601134161615,1433,0.04321289,0.88739014,-0.35308838
1601134161615,1434,0.045410156,0.8883667,-0.35064697
1601134161615,1435,0.043701172,0.8883667,-0.35406494
1601134161615,1436,0.04321289,0.88397217,-0.3477173
1601134161615,1437,0.043945312,0.8903198,-0.3501587
1601134161615,1438,0.04663086,0.88616943,-0.35235596
1601134161615,1439,0.043701172,0.8883667,-0.35406494
1601134161615,1440,0.044677734,0.88983154,-0.35333252
1601134161615,1441,0.042236328,0.88934326,-0.34942627
1601134161616,1442,0.043945312,0.8903198,-0.3501587
1601134161616,1443,0.045410156,0.8883667,-0.35064697
1601134161616,1444,0.044189453,0.887146,-0.3526001
1601134161616,1445,0.042236328,0.88934326,-0.34942627
1601134161628,1446,0.043701172,0.8883667,-0.35406494
1601134161628,1447,0.044189453,0.887146,-0.3526001
1601134161628,1448,0.042236328,0.88934326,-0.34942627
1601134161628,1449,0.045410156,0.8883667,-0.35064697
1601134161628,1450,0.04321289,0.88397217,-0.3477173
1601134161628,1451,0.04321289,0.88861084,-0.35430908
1601134161629,1452,0.043701172,0.8883667,-0.35406494
1601134161629,1453,0.042236328,0.88934326,-0.34942627
1601134161629,1454,0.041748047,0.88934326,-0.35064697
1601134161629,1455,0.04321289,0.88861084,-0.35430908
1601134161629,1456,0.04321289,0.88861084,-0.35430908
1601134161629,1457,0.04321289,0.88397217,-0.3477173
1601134161629,1458,0.04321289,0.88397217,-0.3477173
1601134161629,1459,0.04321289,0.88861084,-0.35430908
1601134161630,1460,0.042236328,0.88934326,-0.34942627
1601134161630,1461,0.043701172,0.8883667,-0.35406494
1601134161630,1462,0.04321289,0.88397217,-0.3477173
1601134161630,1463,0.043945312,0.8903198,-0.3501587
1601134161630,1464,0.04638672,0.8883667,-0.34649658
1601134161630,1465,0.04321289,0.88861084,-0.35430908
1601134161631,1466,0.041748047,0.88934326,-0.35064697
1601134161631,1467,0.043945312,0.8903198,-0.3501587
1601134161631,1468,0.044189453,0.887146,-0.3526001
1601134161632,1469,0.04638672,0.8883667,-0.34649658
1601134161632,1470,0.043701172,0.8883667,-0.35406494
1601134161632,1471,0.044189453,0.887146,-0.3526001
1601134161632,1472,0.043701172,0.8883667,-0.35406494
1601134161632,1473,0.043701172,0.8883667,-0.35406494
1601134161640,1474,0.04321289,0.88397217,-0.3477173
1601134161640,1475,0.041748047,0.88934326,-0.35064697
1601134161641,1476,0.04321289,0.888855,-0.35186768
1601134161641,1477,0.04321289,0.888855,-0.35186768
1601134161641,1478,0.043945312,0.8903198,-0.3501587
1601134161641,1479,0.04248047,0.8866577,-0.34991455
1601134161641,1480,0.041748047,0.88934326,-0.35064697
1601134161641,1481,0.043945312,0.8903198,-0.3501587
1601134161641,1482,0.04321289,0.88397217,-0.3477173
1601134161641,1483,0.04638672,0.8883667,-0.34649658
1601134161641,1484,0.043945312,0.8903198,-0.3501587
1601134161642,1485,0.043701172,0.8883667,-0.35406494
1601134161642,1486,0.043701172,0.8883667,-0.35406494
1601134161642,1487,0.043945312,0.8903198,-0.3501587
1601134161642,1488,0.04248047,0.8866577,-0.34991455
1601134161642,1489,0.044189453,0.887146,-0.3526001
1601134161643,1490,0.044189453,0.887146,-0.3526001
1601134161657,1491,0.04321289,0.888855,-0.35186768
1601134161658,1492,0.04638672,0.8883667,-0.34649658
1601134161658,1493,0.044189453,0.887146,-0.3526001
1601134161658,1494,0.043945312,0.8903198,-0.3501587
1601134161658,1495,0.043945312,0.8903198,-0.3501587
1601134161658,1496,0.044189453,0.887146,-0.3526001
1601134161659,1497,0.043701172,0.89056396,-0.35479736
1601134161659,1498,0.041748047,0.88934326,-0.35064697
1601134161659,1499,0.044189453,0.887146,-0.3526001
1601134161659,1500,0.041748047,0.88934326,-0.35064697
1601134161659,1501,0.041748047,0.88934326,-0.35064697
1601134161659,1502,0.04321289,0.888855,-0.35186768
1601134161659,1503,0.04248047,0.8866577,-0.34991455
1601134161659,1504,0.041748047,0.88934326,-0.35064697
1601134161659,1505,0.043701172,0.89056396,-0.35479736
1601134161659,1506,0.043701172,0.89056396,-0.35479736
1601134161660,1507,0.04638672,0.8883667,-0.34649658
1601134161660,1508,0.04321289,0.888855,-0.35186768
1601134161662,1509,0.04638672,0.8883667,-0.34649658
1601134161669,1510,0.04248047,0.8866577,-0.34991455
1601134161670,1511,0.04638672,0.8883667,-0.34649658
1601134161670,1512,0.044189453,0.887146,-0.3526001
1601134161670,1513,0.041748047,0.88934326,-0.35064697
1601134161670,1514,0.043701172,0.89056396,-0.35479736
1601134161670,1515,0.04638672,0.8883667,-0.34649658
1601134161671,1516,0.04321289,0.888855,-0.35186768
1601134161672,1517,0.04321289,0.888855,-0.35186768
1601134161672,1518,0.04248047,0.8866577,-0.34991455
1601134161672,1519,0.041748047,0.88934326,-0.35064697
1601134161674,1520,0.04248047,0.8866577,-0.34991455
1601134161674,1521,0.04321289,0.888855,-0.35186768
1601134161675,1522,0.043701172,0.89056396,-0.35479736
1601134161675,1523,0.043701172,0.89056396,-0.35479736
1601134161675,1524,0.04248047,0.8866577,-0.34991455
1601134161676,1525,0.04638672,0.8883667,-0.34649658
1601134161679,1526,0.04248047,0.8866577,-0.34991455
1601134161679,1527,0.043701172,0.89056396,-0.35479736
1601134161679,1528,0.043701172,0.89056396,-0.35479736
1601134161680,1529,0.04321289,0.888855,-0.35186768
1601134161682,1530,0.04638672,0.8883667,-0.34649658
1601134161682,1531,0.04248047,0.8866577,-0.34991455
1601134161682,1532,0.043701172,0.89056396,-0.35479736
1601134161682,1533,0.04321289,0.888855,-0.35186768
1601134161686,1534,0.04248047,0.8866577,-0.34991455
1601134161686,1535,0.043701172,0.89056396,-0.35479736
1601134164044,1536,0.03955078,0.8900757,-0.35455322
1601134164045,1537,0.03955078,0.8900757,-0.35455322
1601134164056,1538,0.03955078,0.8900757,-0.35455322
1601134164057,1539,0.03955078,0.8900757,-0.35455322
1601134164057,1540,0.03955078,0.8900757,-0.35455322
1601134164057,1541,0.043945312,0.8859253,-0.35650635
1601134164057,1542,0.03955078,0.8900757,-0.35455322
1601134164058,1543,0.03955078,0.8900757,-0.35455322
1601134164058,1544,0.043701172,0.88690186,-0.35186768
1601134164058,1545,0.043945312,0.8859253,-0.35650635
1601134164058,1546,0.03955078,0.8900757,-0.35455322
1601134164059,1547,0.043945312,0.8859253,-0.35650635
1601134164059,1548,0.03955078,0.8900757,-0.35455322
1601134164060,1549,0.043701172,0.88690186,-0.35186768
1601134164060,1550,0.043945312,0.8859253,-0.35650635
1601134164060,1551,0.041748047,0.8876343,-0.35333252
1601134164060,1552,0.043945312,0.8859253,-0.35650635
1601134164071,1553,0.043945312,0.8859253,-0.35650635
1601134164071,1554,0.03955078,0.8900757,-0.35455322
1601134164071,1555,0.043945312,0.8859253,-0.35650635
1601134164071,1556,0.043701172,0.88690186,-0.35186768
1601134164072,1557,0.043945312,0.8859253,-0.35650635
1601134164072,1558,0.041748047,0.8876343,-0.35333252
1601134164072,1559,0.041748047,0.8876343,-0.35333252
1601134164072,1560,0.043945312,0.8859253,-0.35650635
1601134164072,1561,0.043701172,0.88690186,-0.35186768
1601134164072,1562,0.04272461,0.8883667,-0.3526001
1601134164082,1563,0.04663086,0.8866577,-0.35162354
1601134164082,1564,0.046142578,0.888855,-0.35235596
1601134164082,1565,0.043701172,0.88690186,-0.35186768
1601134164082,1566,0.043945312,0.8859253,-0.35650635
1601134164082,1567,0.04272461,0.8883667,-0.3526001
1601134164082,1568,0.043701172,0.88690186,-0.35186768
1601134164082,1569,0.04272461,0.8883667,-0.3526001
1601134164083,1570,0.041748047,0.8876343,-0.35333252
1601134164083,1571,0.04663086,0.8866577,-0.35162354
1601134164083,1572,0.043701172,0.88690186,-0.35186768
1601134164083,1573,0.046142578,0.888855,-0.35235596
1601134164083,1574,0.043701172,0.88690186,-0.35186768
1601134164083,1575,0.041748047,0.8876343,-0.35333252
1601134164089,1576,0.043701172,0.88690186,-0.35186768
1601134164090,1577,0.04663086,0.8866577,-0.35162354
1601134164090,1578,0.041748047,0.8876343,-0.35333252
1601134164090,1579,0.04663086,0.8876343,-0.3526001
1601134164090,1580,0.04272461,0.8883667,-0.3526001
1601134164090,1581,0.046142578,0.888855,-0.35235596
1601134164090,1582,0.043701172,0.88690186,-0.35186768
1601134164090,1583,0.04663086,0.8876343,-0.3526001
1601134164090,1584,0.04272461,0.8883667,-0.3526001
1601134164090,1585,0.041748047,0.8876343,-0.35333252
1601134164099,1586,0.04272461,0.8883667,-0.3526001
1601134164099,1587,0.041748047,0.8876343,-0.35333252
1601134164099,1588,0.04663086,0.8866577,-0.35162354
1601134164099,1589,0.041748047,0.8876343,-0.35333252
1601134164099,1590,0.04663086,0.8876343,-0.3526001
1601134164099,1591,0.04272461,0.8883667,-0.3526001
1601134164100,1592,0.041748047,0.8876343,-0.35333252
1601134164100,1593,0.04248047,0.8890991,-0.35064697
1601134164100,1594,0.04663086,0.8866577,-0.35162354
1601134164100,1595,0.04663086,0.8866577,-0.35162354
1601134164102,1596,0.045654297,0.8903198,-0.35211182
1601134164102,1597,0.04248047,0.8890991,-0.35064697
1601134164102,1598,0.046142578,0.888855,-0.35235596
1601134164102,1599,0.045654297,0.8903198,-0.35211182
1601134164102,1600,0.04248047,0.8890991,-0.35064697
1601134164102,1601,0.04663086,0.8866577,-0.35162354
1601134164102,1602,0.04272461,0.8883667,-0.3526001
1601134164102,1603,0.04272461,0.8883667,-0.3526001
1601134164102,1604,0.046142578,0.888855,-0.35235596
1601134164103,1605,0.046142578,0.888855,-0.35235596
1601134164107,1606,0.04663086,0.8876343,-0.3526001
1601134164108,1607,0.04345703,0.8912964,-0.3574829
1601134164108,1608,0.04663086,0.8876343,-0.3526001
1601134164109,1609,0.04248047,0.8890991,-0.35064697
1601134164109,1610,0.04663086,0.8866577,-0.35162354
1601134164109,1611,0.04248047,0.8890991,-0.35064697
1601134164109,1612,0.045654297,0.8903198,-0.35211182
1601134164110,1613,0.04345703,0.8912964,-0.3574829
1601134164110,1614,0.046142578,0.888855,-0.35235596
1601134164127,1615,0.045654297,0.8903198,-0.35211182
1601134164127,1616,0.046142578,0.888855,-0.35235596
1601134164127,1617,0.04663086,0.8866577,-0.35162354
1601134164127,1618,0.04296875,0.883728,-0.3394165
1601134164128,1619,0.046142578,0.888855,-0.35235596
1601134164128,1620,0.04345703,0.8912964,-0.3574829
1601134164128,1621,0.04663086,0.8876343,-0.3526001
1601134164128,1622,0.04272461,0.8883667,-0.3526001
1601134164128,1623,0.04296875,0.883728,-0.3394165
1601134164128,1624,0.04663086,0.8876343,-0.3526001
1601134164128,1625,0.04345703,0.88983154,-0.35845947
1601134164128,1626,0.04345703,0.8912964,-0.3574829
1601134164128,1627,0.04663086,0.8876343,-0.3526001
1601134164128,1628,0.04248047,0.8890991,-0.35064697
1601134164129,1629,0.04296875,0.883728,-0.3394165
1601134164130,1630,0.04663086,0.8876343,-0.3526001
1601134164130,1631,0.04345703,0.88983154,-0.35845947
1601134164131,1632,0.04663086,0.8866577,-0.35162354
1601134164131,1633,0.04296875,0.883728,-0.3394165
1601134164131,1634,0.04345703,0.88983154,-0.35845947
1601134164131,1635,0.04272461,0.8876343,-0.3526001
1601134164131,1636,0.046142578,0.888855,-0.35235596
1601134164131,1637,0.04272461,0.8876343,-0.3526001
1601134164132,1638,0.04663086,0.8876343,-0.3526001
1601134164132,1639,0.04248047,0.8890991,-0.35064697
1601134164132,1640,0.041748047,0.8847046,-0.3550415
1601134164132,1641,0.04248047,0.8890991,-0.35064697
1601134164132,1642,0.045654297,0.8903198,-0.35211182
1601134164132,1643,0.045654297,0.8903198,-0.35211182
1601134164132,1644,0.04345703,0.8912964,-0.3574829
1601134164132,1645,0.041748047,0.8847046,-0.3550415
1601134164132,1646,0.04296875,0.883728,-0.3394165
1601134164132,1647,0.045654297,0.8903198,-0.35211182
1601134164133,1648,0.04345703,0.88983154,-0.35845947
1601134164133,1649,0.041992188,0.8900757,-0.3538208
1601134164133,1650,0.041992188,0.8900757,-0.3538208
1601134164134,1651,0.04345703,0.8912964,-0.3574829
1601134164135,1652,0.04248047,0.8890991,-0.35064697
1601134164135,1653,0.04248047,0.8890991,-0.35064697
1601134164135,1654,0.04272461,0.88616943,-0.35699463
1601134164135,1655,0.04345703,0.8912964,-0.3574829
1601134164135,1656,0.045654297,0.8903198,-0.35211182
1601134164135,1657,0.04345703,0.88983154,-0.35845947
1601134164143,1658,0.045654297,0.8903198,-0.35211182
1601134164143,1659,0.04296875,0.883728,-0.3394165
1601134164144,1660,0.04272461,0.8876343,-0.3526001
1601134164144,1661,0.04345703,0.88983154,-0.35845947
1601134164144,1662,0.04296875,0.883728,-0.3394165
1601134164145,1663,0.041748047,0.8847046,-0.3550415
1601134164145,1664,0.04272461,0.88616943,-0.35699463
1601134164145,1665,0.04345703,0.8912964,-0.3574829
1601134164145,1666,0.04272461,0.8876343,-0.3526001
1601134164146,1667,0.041992188,0.8900757,-0.3538208
1601134164146,1668,0.04345703,0.8912964,-0.3574829
1601134164146,1669,0.04272461,0.8876343,-0.3526001
1601134164146,1670,0.04272461,0.8883667,-0.3555298
1601134164146,1671,0.045654297,0.8903198,-0.35211182
1601134164146,1672,0.04272461,0.8876343,-0.3526001
1601134164146,1673,0.042236328,0.8878784,-0.35894775
1601134164146,1674,0.041748047,0.8847046,-0.3550415
1601134164147,1675,0.04296875,0.883728,-0.3394165
1601134164147,1676,0.041992188,0.8900757,-0.3538208
1601134164147,1677,0.04272461,0.8883667,-0.3555298
1601134164147,1678,0.04345703,0.88983154,-0.35845947
1601134164147,1679,0.04272461,0.88616943,-0.35699463
1601134164147,1680,0.04296875,0.883728,-0.3394165
1601134164147,1681,0.04272461,0.8883667,-0.3555298
1601134164148,1682,0.04345703,0.88983154,-0.35845947
1601134164148,1683,0.04345703,0.88983154,-0.35845947
1601134164151,1684,0.04272461,0.88616943,-0.35699463
1601134164151,1685,0.041748047,0.8847046,-0.3550415
1601134164151,1686,0.041748047,0.8847046,-0.3550415
1601134164151,1687,0.042236328,0.8878784,-0.35894775
1601134164151,1688,0.04272461,0.8876343,-0.3526001
1601134164152,1689,0.04345703,0.8912964,-0.3574829
1601134164152,1690,0.04296875,0.8883667,-0.3567505
1601134164152,1691,0.04296875,0.8883667,-0.3567505
1601134164152,1692,0.041748047,0.8847046,-0.3550415
1601134164152,1693,0.04272461,0.8876343,-0.3526001
1601134164152,1694,0.041992188,0.8900757,-0.3538208
1601134164152,1695,0.041748047,0.8847046,-0.3550415
1601134164160,1696,0.041992188,0.8900757,-0.3538208
1601134164160,1697,0.042236328,0.8878784,-0.35894775
1601134164160,1698,0.04296875,0.883728,-0.3394165
1601134164161,1699,0.04272461,0.88616943,-0.35699463
1601134164161,1700,0.04296875,0.8883667,-0.3567505
1601134164161,1701,0.04272461,0.88616943,-0.35699463
1601134164161,1702,0.04272461,0.8883667,-0.3555298
1601134164161,1703,0.041992188,0.8900757,-0.3538208
1601134164161,1704,0.04272461,0.8876343,-0.3526001
1601134164162,1705,0.041992188,0.8900757,-0.3538208
1601134164187,1706,0.042236328,0.88616943,-0.3574829
1601134164187,1707,0.042236328,0.88616943,-0.3574829
1601134164188,1708,0.04345703,0.88983154,-0.35845947
1601134164190,1709,0.04272461,0.8883667,-0.3555298
1601134164190,1710,0.042236328,0.88616943,-0.3574829
1601134164190,1711,0.04272461,0.8883667,-0.3555298
1601134164190,1712,0.045898438,0.88739014,-0.35943604
1601134164191,1713,0.041748047,0.8847046,-0.3550415
1601134164191,1714,0.042236328,0.8878784,-0.35894775
1601134164191,1715,0.04272461,0.88616943,-0.35699463
1601134164192,1716,0.042236328,0.8878784,-0.35894775
1601134164192,1717,0.04296875,0.8883667,-0.3567505
1601134164192,1718,0.045898438,0.88739014,-0.35943604
1601134164192,1719,0.04272461,0.8876343,-0.3526001
1601134164192,1720,0.042236328,0.88616943,-0.3574829
1601134164193,1721,0.041748047,0.8847046,-0.3550415
1601134164193,1722,0.045898438,0.88739014,-0.35943604
1601134164193,1723,0.04296875,0.887146,-0.34942627
1601134164196,1724,0.045898438,0.88739014,-0.35943604
1601134164196,1725,0.041992188,0.8900757,-0.3538208
1601134164196,1726,0.04272461,0.8883667,-0.3555298
1601134164196,1727,0.04272461,0.88616943,-0.35699463
1601134164196,1728,0.04272461,0.88616943,-0.35699463
1601134164196,1729,0.042236328,0.8878784,-0.35894775
1601134164196,1730,0.04296875,0.887146,-0.34942627
1601134164196,1731,0.04296875,0.8883667,-0.3567505
1601134164196,1732,0.04272461,0.8876343,-0.3567505
1601134164196,1733,0.04296875,0.887146,-0.34942627
1601134164197,1734,0.04272461,0.8876343,-0.3567505
1601134164197,1735,0.04296875,0.887146,-0.34942627
1601134164197,1736,0.04296875,0.8883667,-0.3567505
1601134164197,1737,0.04272461,0.8876343,-0.3567505
1601134164197,1738,0.042236328,0.8878784,-0.35894775
1601134164197,1739,0.04272461,0.8876343,-0.3567505
1601134164197,1740,0.04296875,0.8883667,-0.3567505
1601134164197,1741,0.042236328,0.88616943,-0.3574829
1601134164197,1742,0.041992188,0.8900757,-0.3538208
1601134164198,1743,0.045898438,0.88739014,-0.35943604
1601134164198,1744,0.04272461,0.8883667,-0.3555298
1601134164198,1745,0.04296875,0.885437,-0.3587036
1601134164198,1746,0.04272461,0.88616943,-0.35699463
1601134164198,1747,0.04296875,0.887146,-0.34942627
1601134164198,1748,0.04272461,0.8883667,-0.3555298
1601134164198,1749,0.04272461,0.8876343,-0.3567505
1601134164198,1750,0.042236328,0.8878784,-0.35894775
1601134164198,1751,0.044433594,0.888855,-0.3562622
1601134164198,1752,0.04296875,0.885437,-0.3587036
1601134164198,1753,0.04296875,0.885437,-0.3587036
1601134164199,1754,0.04272461,0.8883667,-0.3555298
1601134164199,1755,0.042236328,0.88616943,-0.3574829
1601134164199,1756,0.04296875,0.885437,-0.3587036
1601134164199,1757,0.042236328,0.88616943,-0.3574829
1601134164199,1758,0.042236328,0.8878784,-0.35894775
1601134164199,1759,0.04296875,0.8883667,-0.3567505
1601134164199,1760,0.043701172,0.885437,-0.35723877
1601134164199,1761,0.04296875,0.885437,-0.3587036
1601134164200,1762,0.044433594,0.888855,-0.3562622
1601134164200,1763,0.044433594,0.888855,-0.3562622
1601134164200,1764,0.043701172,0.885437,-0.35723877
1601134164201,1765,0.045898438,0.88739014,-0.35943604
1601134164201,1766,0.044433594,0.888855,-0.3562622
1601134164201,1767,0.04296875,0.8883667,-0.3567505
1601134164201,1768,0.045898438,0.88739014,-0.35943604
1601134164204,1769,0.042236328,0.8851929,-0.3550415
1601134164204,1770,0.043701172,0.885437,-0.35723877
1601134164205,1771,0.042236328,0.8878784,-0.35894775
1601134164206,1772,0.042236328,0.88616943,-0.3574829
1601134164206,1773,0.042236328,0.8851929,-0.3550415
1601134164207,1774,0.04296875,0.887146,-0.34942627
1601134164207,1775,0.044433594,0.8859253,-0.35821533
1601134164207,1776,0.044433594,0.8859253,-0.35821533
1601134164207,1777,0.04296875,0.887146,-0.34942627
1601134164207,1778,0.042236328,0.88616943,-0.3574829
1601134164209,1779,0.042236328,0.8851929,-0.3550415
1601134164209,1780,0.043701172,0.885437,-0.35723877
1601134164209,1781,0.045898438,0.88739014,-0.35943604
1601134164209,1782,0.044433594,0.888855,-0.3562622
1601134164209,1783,0.045166016,0.8859253,-0.35040283
1601134164209,1784,0.04296875,0.8883667,-0.3567505
1601134164209,1785,0.04272461,0.8876343,-0.3567505
1601134164209,1786,0.043701172,0.885437,-0.35723877
1601134164209,1787,0.04272461,0.8876343,-0.3567505
1601134164210,1788,0.045898438,0.88739014,-0.35943604
1601134164210,1789,0.044433594,0.8859253,-0.35821533
1601134164210,1790,0.045166016,0.8859253,-0.35040283
1601134164210,1791,0.04296875,0.887146,-0.34942627
1601134164210,1792,0.04296875,0.885437,-0.3587036
1601134164217,1793,0.04296875,0.885437,-0.3587036
1601134164217,1794,0.042236328,0.88616943,-0.3574829
1601134164217,1795,0.042236328,0.8851929,-0.3550415
1601134164217,1796,0.044433594,0.888855,-0.3562622
1601134164217,1797,0.045166016,0.8859253,-0.35040283
1601134164217,1798,0.042236328,0.8851929,-0.3550415
1601134164218,1799,0.04296875,0.887146,-0.34942627
1601134164218,1800,0.04272461,0.8876343,-0.3567505
1601134164218,1801,0.044921875,0.8864136,-0.35821533
1601134164218,1802,0.04296875,0.885437,-0.3587036
1601134164218,1803,0.044433594,0.888855,-0.3562622
1601134164218,1804,0.04321289,0.8890991,-0.3562622
1601134164218,1805,0.044921875,0.8864136,-0.35821533
1601134164219,1806,0.044433594,0.8859253,-0.35821533
1601134164219,1807,0.044921875,0.8864136,-0.35821533
1601134164219,1808,0.04321289,0.8890991,-0.3562622
1601134164219,1809,0.044433594,0.888855,-0.3562622
1601134164220,1810,0.044433594,0.8859253,-0.35821533
1601134164220,1811,0.045898438,0.88739014,-0.35943604
1601134164223,1812,0.043701172,0.885437,-0.35723877
1601134164223,1813,0.04272461,0.8876343,-0.3567505
1601134164223,1814,0.04321289,0.8890991,-0.3562622
1601134164223,1815,0.043701172,0.885437,-0.35723877
1601134164223,1816,0.045166016,0.8859253,-0.35040283
1601134164223,1817,0.045166016,0.8859253,-0.35040283
1601134164223,1818,0.043701172,0.885437,-0.35723877
1601134164224,1819,0.04296875,0.887146,-0.34942627
1601134164224,1820,0.042236328,0.8851929,-0.3550415
1601134164228,1821,0.04296875,0.885437,-0.3587036
1601134164228,1822,0.042236328,0.8851929,-0.3550415
1601134164228,1823,0.044921875,0.8864136,-0.35821533
1601134164228,1824,0.044433594,0.888855,-0.3562622
1601134164228,1825,0.042236328,0.8851929,-0.3550415
1601134164228,1826,0.04272461,0.8876343,-0.3567505
1601134164230,1827,0.044433594,0.8859253,-0.35821533
1601134164231,1828,0.044921875,0.8864136,-0.35821533
1601134164232,1829,0.044433594,0.8859253,-0.35821533
1601134164232,1830,0.04321289,0.8890991,-0.3562622
1601134164232,1831,0.043701172,0.885437,-0.35723877
1601134164232,1832,0.044433594,0.8859253,-0.35821533
1601134164233,1833,0.045166016,0.8859253,-0.35040283
1601134164234,1834,0.045166016,0.8859253,-0.35040283
1601134164234,1835,0.04296875,0.885437,-0.3587036
1601134164235,1836,0.045166016,0.8859253,-0.35040283
1601134164235,1837,0.042236328,0.8851929,-0.3550415
1601134164235,1838,0.044921875,0.8864136,-0.35821533
1601134164235,1839,0.04321289,0.8890991,-0.3562622
1601134164235,1840,0.044921875,0.8864136,-0.35821533
1601134164237,1841,0.044433594,0.8859253,-0.35821533
1601134164238,1842,0.044433594,0.888855,-0.3562622
1601134164239,1843,0.04321289,0.8890991,-0.3562622
1601134164239,1844,0.045166016,0.8859253,-0.35040283
1601134164239,1845,0.044921875,0.8864136,-0.35821533
1601134164239,1846,0.044921875,0.8864136,-0.35821533
1601134164241,1847,0.04321289,0.8890991,-0.3562622
1601134164241,1848,0.043701172,0.885437,-0.35723877
1601134164241,1849,0.04321289,0.8890991,-0.3562622
1601134164241,1850,0.042236328,0.8851929,-0.3550415
1601134164242,1851,0.044433594,0.8859253,-0.35821533
1601134164242,1852,0.04321289,0.8890991,-0.3562622
1601134164244,1853,0.045166016,0.8859253,-0.35040283
1601134164244,1854,0.044921875,0.8864136,-0.35821533
1601134164244,1855,0.04321289,0.8890991,-0.3562622
1601134166570,1856,0.04296875,0.8883667,-0.35430908
1601134166571,1857,0.04296875,0.8883667,-0.35430908
1601134166571,1858,0.04296875,0.8883667,-0.35430908
1601134166575,1859,0.04296875,0.8883667,-0.35430908
1601134166576,1860,0.04296875,0.8883667,-0.35430908
1601134166576,1861,0.04248047,0.887146,-0.35699463
1601134166576,1862,0.04248047,0.887146,-0.35699463
1601134166577,1863,0.04296875,0.8883667,-0.35430908
1601134166585,1864,0.04296875,0.8883667,-0.35430908
1601134166586,1865,0.04296875,0.8883667,-0.35430908
1601134166586,1866,0.044189453,0.8890991,-0.3526001
1601134166586,1867,0.04296875,0.8883667,-0.35430908
1601134166586,1868,0.044189453,0.8890991,-0.3526001
1601134166586,1869,0.04296875,0.8883667,-0.35430908
1601134166586,1870,0.041503906,0.88983154,-0.35333252
1601134166586,1871,0.04248047,0.887146,-0.35699463
1601134166586,1872,0.04248047,0.887146,-0.35699463
1601134166591,1873,0.04248047,0.887146,-0.35699463
1601134166591,1874,0.04248047,0.887146,-0.35699463
1601134166591,1875,0.044189453,0.8890991,-0.3526001
1601134166594,1876,0.044189453,0.8890991,-0.3526001
1601134166594,1877,0.04248047,0.887146,-0.35699463
1601134166594,1878,0.044189453,0.8890991,-0.3526001
1601134166594,1879,0.041503906,0.88983154,-0.35333252
1601134166594,1880,0.041503906,0.88983154,-0.35333252
1601134166594,1881,0.04248047,0.887146,-0.35699463
1601134166594,1882,0.041503906,0.88983154,-0.35333252
1601134166594,1883,0.044189453,0.8890991,-0.3526001
1601134166594,1884,0.04248047,0.887146,-0.35699463
1601134166603,1885,0.04272461,0.8842163,-0.34918213
1601134166604,1886,0.04272461,0.8842163,-0.34918213
1601134166604,1887,0.04248047,0.887146,-0.35699463
1601134166605,1888,0.041503906,0.88983154,-0.35333252
1601134166605,1889,0.044189453,0.8890991,-0.3526001
1601134166605,1890,0.044189453,0.8890991,-0.3526001
1601134166605,1891,0.041503906,0.88983154,-0.35333252
1601134166605,1892,0.04272461,0.8842163,-0.34918213
1601134166605,1893,0.041503906,0.88983154,-0.35333252
1601134166605,1894,0.04272461,0.8842163,-0.34918213
1601134166605,1895,0.040771484,0.88568115,-0.3538208
1601134166605,1896,0.044189453,0.8890991,-0.3526001
1601134166605,1897,0.041503906,0.88983154,-0.35333252
1601134166605,1898,0.04272461,0.8842163,-0.34918213
1601134166606,1899,0.042236328,0.89056396,-0.3574829
1601134166606,1900,0.044189453,0.8890991,-0.3526001
1601134166606,1901,0.040771484,0.88568115,-0.3538208
1601134166606,1902,0.047607422,0.88690186,-0.35284424
1601134166606,1903,0.040771484,0.88568115,-0.3538208
1601134166606,1904,0.040771484,0.88568115,-0.3538208
1601134166610,1905,0.04272461,0.8842163,-0.34918213
1601134166611,1906,0.04272461,0.8842163,-0.34918213
1601134166611,1907,0.04272461,0.8842163,-0.34918213
1601134166611,1908,0.04638672,0.8864136,-0.35699463
1601134166611,1909,0.041503906,0.88983154,-0.35333252
1601134166611,1910,0.042236328,0.89056396,-0.3574829
1601134166611,1911,0.041503906,0.88983154,-0.35333252
1601134166612,1912,0.040771484,0.88568115,-0.3538208
1601134166612,1913,0.042236328,0.89056396,-0.3574829
1601134166612,1914,0.04272461,0.8842163,-0.34918213
1601134166612,1915,0.042236328,0.89056396,-0.3574829
1601134166612,1916,0.040771484,0.88568115,-0.3538208
1601134166612,1917,0.042236328,0.89056396,-0.3574829
1601134166612,1918,0.04248047,0.887146,-0.35406494
1601134166613,1919,0.04272461,0.8842163,-0.34918213
1601134166614,1920,0.047607422,0.88690186,-0.35284424
1601134166629,1921,0.040771484,0.88568115,-0.3538208
1601134166629,1922,0.040771484,0.88568115,-0.3538208
1601134166629,1923,0.047607422,0.88690186,-0.35284424
1601134166629,1924,0.042236328,0.89056396,-0.3574829
1601134166630,1925,0.047607422,0.88690186,-0.35284424
1601134166630,1926,0.042236328,0.89056396,-0.3574829
1601134166630,1927,0.043701172,0.88934326,-0.35235596
1601134166630,1928,0.040771484,0.88568115,-0.3538208
1601134166630,1929,0.04638672,0.8864136,-0.35699463
1601134166630,1930,0.04638672,0.8864136,-0.35699463
1601134166630,1931,0.04638672,0.8864136,-0.35699463
1601134166630,1932,0.044189453,0.8900757,-0.35333252
1601134166630,1933,0.047607422,0.88690186,-0.35284424
1601134166631,1934,0.047607422,0.88690186,-0.35284424
1601134166631,1935,0.040771484,0.88568115,-0.3538208
1601134166631,1936,0.047607422,0.88690186,-0.35284424
1601134166631,1937,0.042236328,0.89056396,-0.3574829
1601134166631,1938,0.042236328,0.89056396,-0.3574829
1601134166631,1939,0.04248047,0.887146,-0.35406494
1601134166631,1940,0.047607422,0.88690186,-0.35284424
1601134166631,1941,0.04248047,0.887146,-0.35406494
1601134166632,1942,0.043701172,0.88934326,-0.35235596
1601134166632,1943,0.04248047,0.887146,-0.35406494
1601134166632,1944,0.04638672,0.8864136,-0.35699463
1601134166632,1945,0.043701172,0.88934326,-0.35235596
1601134166632,1946,0.04638672,0.8864136,-0.35699463
1601134166632,1947,0.044189453,0.8900757,-0.35333252
1601134166636,1948,0.047607422,0.88690186,-0.35284424
1601134166636,1949,0.04638672,0.8864136,-0.35699463
1601134166636,1950,0.04248047,0.8866577,-0.3513794
1601134166636,1951,0.043701172,0.88934326,-0.35235596
1601134166636,1952,0.042236328,0.89056396,-0.3574829
1601134166636,1953,0.044189453,0.8900757,-0.35333252
1601134166637,1954,0.044189453,0.8864136,-0.35211182
1601134166637,1955,0.04638672,0.8864136,-0.35699463
1601134166637,1956,0.04248047,0.8866577,-0.3513794
1601134166637,1957,0.044189453,0.8900757,-0.35333252
1601134166643,1958,0.04638672,0.8864136,-0.35699463
1601134166643,1959,0.04248047,0.887146,-0.35406494
1601134166643,1960,0.047607422,0.88690186,-0.35284424
1601134166643,1961,0.044677734,0.88739014,-0.35333252
1601134166643,1962,0.04248047,0.887146,-0.35406494
1601134166643,1963,0.04638672,0.8864136,-0.35699463
1601134166643,1964,0.04248047,0.887146,-0.35406494
1601134166644,1965,0.04248047,0.887146,-0.35406494
1601134166644,1966,0.04248047,0.8866577,-0.3513794
1601134166644,1967,0.043701172,0.88934326,-0.35235596
1601134166648,1968,0.043701172,0.88934326,-0.35235596
1601134166648,1969,0.04248047,0.887146,-0.35406494
1601134166649,1970,0.042236328,0.8878784,-0.3579712
1601134166649,1971,0.04248047,0.887146,-0.35406494
1601134166649,1972,0.044189453,0.8864136,-0.35211182
1601134166649,1973,0.043701172,0.88934326,-0.35235596
1601134166649,1974,0.04248047,0.8866577,-0.3513794
1601134166649,1975,0.043701172,0.88934326,-0.35235596
1601134166649,1976,0.044189453,0.8864136,-0.35211182
1601134166649,1977,0.044189453,0.8900757,-0.35333252
1601134166650,1978,0.044189453,0.8900757,-0.35333252
1601134166654,1979,0.043701172,0.88934326,-0.35235596
1601134166655,1980,0.041503906,0.8883667,-0.3538208
1601134166655,1981,0.044677734,0.88739014,-0.35333252
1601134166655,1982,0.044189453,0.8900757,-0.35333252
1601134166655,1983,0.044189453,0.8864136,-0.35211182
1601134166655,1984,0.042236328,0.8878784,-0.3579712
1601134166655,1985,0.04248047,0.8866577,-0.3513794
1601134166656,1986,0.041503906,0.8883667,-0.3538208
1601134166656,1987,0.043701172,0.88934326,-0.35235596
1601134166656,1988,0.041748047,0.88690186,-0.35357666
1601134166671,1989,0.041748047,0.88690186,-0.35357666
1601134166671,1990,0.041259766,0.8866577,-0.3567505
1601134166671,1991,0.041259766,0.8866577,-0.3567505
1601134166671,1992,0.04248047,0.8866577,-0.3513794
1601134166671,1993,0.04296875,0.88494873,-0.34918213
1601134166672,1994,0.044189453,0.8900757,-0.35333252
1601134166672,1995,0.044677734,0.88739014,-0.35333252
1601134166672,1996,0.04248047,0.8866577,-0.3513794
1601134166672,1997,0.044189453,0.8900757,-0.35333252
1601134166672,1998,0.042236328,0.8878784,-0.3579712
1601134166672,1999,0.044189453,0.8900757,-0.35333252
1601134166672,2000,0.044677734,0.88739014,-0.35333252
1601134166673,2001,0.042236328,0.8878784,-0.3579712
1601134166673,2002,0.044189453,0.8864136,-0.35211182
1601134166673,2003,0.041503906,0.8883667,-0.3538208
1601134166673,2004,0.044189453,0.8864136,-0.35211182
1601134166674,2005,0.041748047,0.88690186,-0.35357666
1601134166674,2006,0.044189453,0.88568115,-0.35601807
1601134166674,2007,0.044189453,0.8864136,-0.35211182
1601134166675,2008,0.041259766,0.8866577,-0.3567505
1601134166679,2009,0.04248047,0.8866577,-0.3513794
1601134166679,2010,0.04248047,0.8866577,-0.3513794
1601134166679,2011,0.04296875,0.88494873,-0.34918213
1601134166679,2012,0.044677734,0.88739014,-0.35333252
1601134166680,2013,0.044677734,0.88739014,-0.35333252
1601134166680,2014,0.04248047,0.8866577,-0.3513794
1601134166680,2015,0.044677734,0.88739014,-0.35333252
1601134166680,2016,0.041503906,0.8883667,-0.3538208
1601134166681,2017,0.042236328,0.8878784,-0.3579712
1601134166681,2018,0.044189453,0.8864136,-0.35211182
1601134166681,2019,0.04296875,0.88494873,-0.34918213
1601134166681,2020,0.041503906,0.8883667,-0.3538208
1601134166681,2021,0.044677734,0.88739014,-0.35333252
1601134166681,2022,0.041748047,0.88690186,-0.35357666
1601134166681,2023,0.041259766,0.8829956,-0.35186768
1601134166681,2024,0.042236328,0.8878784,-0.3579712
1601134166683,2025,0.042236328,0.8878784,-0.3579712
1601134166683,2026,0.044189453,0.8864136,-0.35211182
1601134166693,2027,0.041748047,0.88690186,-0.35357666
1601134166694,2028,0.044189453,0.88568115,-0.35601807
1601134166694,2029,0.042236328,0.8878784,-0.3579712
1601134166694,2030,0.041259766,0.8866577,-0.3567505
1601134166694,2031,0.04296875,0.8878784,-0.35235596
1601134166694,2032,0.04296875,0.88494873,-0.34918213
1601134166694,2033,0.041503906,0.8883667,-0.3538208
1601134166694,2034,0.044189453,0.8864136,-0.35211182
1601134166695,2035,0.041503906,0.8883667,-0.3538208
1601134166695,2036,0.044677734,0.88739014,-0.35333252
1601134166695,2037,0.044189453,0.88568115,-0.35601807
1601134166695,2038,0.041259766,0.8866577,-0.3567505
1601134166695,2039,0.041259766,0.8829956,-0.35186768
1601134166695,2040,0.041503906,0.8883667,-0.3538208
1601134166695,2041,0.04345703,0.88983154,-0.3538208
1601134166695,2042,0.044189453,0.88568115,-0.35601807
1601134166696,2043,0.041748047,0.88690186,-0.35357666
1601134166696,2044,0.041259766,0.8829956,-0.35186768
1601134166696,2045,0.042236328,0.8878784,-0.3579712
1601134166696,2046,0.041748047,0.88690186,-0.35357666
1601134166700,2047,0.044677734,0.88739014,-0.35333252
1601134166701,2048,0.041748047,0.88690186,-0.35357666
1601134166701,2049,0.04296875,0.88494873,-0.34918213
1601134166701,2050,0.040527344,0.888855,-0.35064697
1601134166701,2051,0.041259766,0.8866577,-0.3567505
1601134166701,2052,0.04296875,0.8878784,-0.35235596
1601134166701,2053,0.041259766,0.8829956,-0.35186768
1601134166701,2054,0.041503906,0.8883667,-0.3538208
1601134166701,2055,0.041259766,0.8866577,-0.3567505
1601134166702,2056,0.041259766,0.8866577,-0.3567505
1601134166717,2057,0.04296875,0.8878784,-0.35235596
1601134166717,2058,0.042236328,0.8878784,-0.3579712
1601134166717,2059,0.044189453,0.88568115,-0.35601807
1601134166717,2060,0.04345703,0.88983154,-0.3538208
1601134166718,2061,0.041503906,0.8883667,-0.3538208
1601134166718,2062,0.04345703,0.88983154,-0.3538208
1601134166718,2063,0.040527344,0.888855,-0.35064697
1601134166718,2064,0.041748047,0.88690186,-0.35357666
1601134166718,2065,0.04296875,0.88494873,-0.34918213
1601134166721,2066,0.044677734,0.8942261,-0.35235596
1601134166721,2067,0.04296875,0.8878784,-0.35235596
1601134166721,2068,0.044189453,0.88568115,-0.35601807
1601134166722,2069,0.044677734,0.8942261,-0.35235596
1601134166722,2070,0.04296875,0.88494873,-0.34918213
1601134166722,2071,0.041748047,0.88690186,-0.35357666
1601134166722,2072,0.041259766,0.8829956,-0.35186768
1601134166722,2073,0.04296875,0.88494873,-0.34918213
1601134166722,2074,0.041259766,0.8866577,-0.3567505
1601134166722,2075,0.04321289,0.8876343,-0.34259033
1601134166722,2076,0.04345703,0.88983154,-0.3538208
1601134166722,2077,0.04296875,0.8878784,-0.35235596
1601134166722,2078,0.04248047,0.8876343,-0.35040283
1601134166723,2079,0.04321289,0.8876343,-0.34259033
1601134166723,2080,0.04345703,0.88983154,-0.3538208
1601134166723,2081,0.044189453,0.88568115,-0.35601807
1601134166723,2082,0.040527344,0.888855,-0.35064697
1601134166723,2083,0.041259766,0.8829956,-0.35186768
1601134166723,2084,0.041259766,0.8866577,-0.3567505
1601134166723,2085,0.041259766,0.8829956,-0.35186768
1601134166723,2086,0.040527344,0.888855,-0.35064697
1601134166723,2087,0.04296875,0.88494873,-0.34918213
1601134166723,2088,0.040527344,0.888855,-0.35064697
1601134166723,2089,0.044189453,0.88568115,-0.35601807
1601134166723,2090,0.044677734,0.8942261,-0.35235596
1601134166723,2091,0.041259766,0.8829956,-0.35186768
1601134166723,2092,0.044189453,0.88568115,-0.35601807
1601134166723,2093,0.04296875,0.8878784,-0.35235596
1601134166723,2094,0.041259766,0.8829956,-0.35186768
1601134166723,2095,0.04296875,0.88494873,-0.34918213
1601134166723,2096,0.044677734,0.8942261,-0.35235596
1601134166726,2097,0.044677734,0.8942261,-0.35235596
1601134166726,2098,0.04296875,0.8878784,-0.35235596
1601134166726,2099,0.04248047,0.8876343,-0.35040283
1601134166726,2100,0.04321289,0.8876343,-0.34259033
1601134166726,2101,0.04296875,0.8878784,-0.35235596
1601134166726,2102,0.04296875,0.8878784,-0.35235596
1601134166726,2103,0.041503906,0.89227295,-0.3496704
1601134166726,2104,0.041503906,0.89227295,-0.3496704
1601134166726,2105,0.044189453,0.88568115,-0.35601807
1601134166726,2106,0.04321289,0.8876343,-0.34259033
1601134166726,2107,0.041259766,0.8829956,-0.35186768
1601134166726,2108,0.04248047,0.8876343,-0.35040283
1601134166726,2109,0.04321289,0.8876343,-0.34259033
1601134166726,2110,0.04345703,0.88983154,-0.3538208
1601134166726,2111,0.04248047,0.8876343,-0.35040283
1601134166726,2112,0.04345703,0.88983154,-0.3538208
1601134166727,2113,0.041503906,0.89227295,-0.3496704
1601134166727,2114,0.040527344,0.888855,-0.35064697
1601134166727,2115,0.04248047,0.8895874,-0.3550415
1601134166727,2116,0.04296875,0.8878784,-0.35235596
1601134166729,2117,0.041503906,0.89227295,-0.3496704
1601134166730,2118,0.04248047,0.8876343,-0.35040283
1601134166731,2119,0.040527344,0.888855,-0.35064697
1601134166731,2120,0.041503906,0.89227295,-0.3496704
1601134166731,2121,0.04248047,0.8895874,-0.3550415
1601134166731,2122,0.04345703,0.88983154,-0.3538208
1601134166731,2123,0.03930664,0.887146,-0.35162354
1601134166731,2124,0.03930664,0.887146,-0.35162354
1601134166731,2125,0.04345703,0.88983154,-0.3538208
1601134166731,2126,0.04248047,0.8825073,-0.35406494
1601134166734,2127,0.04248047,0.8895874,-0.3550415
1601134166734,2128,0.044677734,0.8942261,-0.35235596
1601134166735,2129,0.040527344,0.888855,-0.35064697
1601134166735,2130,0.04345703,0.88983154,-0.3538208
1601134166736,2131,0.044677734,0.8942261,-0.35235596
1601134166742,2132,0.04248047,0.8895874,-0.3550415
1601134166742,2133,0.04248047,0.8825073,-0.35406494
1601134166742,2134,0.03930664,0.887146,-0.35162354
1601134166743,2135,0.044677734,0.8942261,-0.35235596
1601134166743,2136,0.040527344,0.888855,-0.35064697
1601134166743,2137,0.04321289,0.8876343,-0.34259033
1601134166743,2138,0.04248047,0.8825073,-0.35406494
1601134166743,2139,0.04321289,0.8876343,-0.34259033
1601134166743,2140,0.04248047,0.8876343,-0.35040283
1601134166743,2141,0.044677734,0.8942261,-0.35235596
1601134166743,2142,0.041503906,0.89227295,-0.3496704
1601134166743,2143,0.040527344,0.888855,-0.35064697
1601134166743,2144,0.04248047,0.8895874,-0.3550415
1601134166743,2145,0.04248047,0.8895874,-0.3550415
1601134166743,2146,0.03930664,0.887146,-0.35162354
1601134166743,2147,0.04248047,0.8876343,-0.35040283
1601134166744,2148,0.04248047,0.8825073,-0.35406494
1601134166744,2149,0.03930664,0.887146,-0.35162354
1601134166744,2150,0.03930664,0.887146,-0.35162354
1601134166744,2151,0.04321289,0.8876343,-0.34259033
1601134166744,2152,0.04321289,0.8876343,-0.34259033
1601134166744,2153,0.044677734,0.8942261,-0.35235596
1601134166750,2154,0.04248047,0.8825073,-0.35406494
1601134166750,2155,0.041503906,0.89227295,-0.3496704
1601134166751,2156,0.04248047,0.8825073,-0.35406494
1601134166751,2157,0.04248047,0.8876343,-0.35040283
1601134166751,2158,0.04248047,0.8876343,-0.35040283
1601134166751,2159,0.04321289,0.8876343,-0.34259033
1601134166751,2160,0.041503906,0.89227295,-0.3496704
1601134166755,2161,0.041503906,0.89227295,-0.3496704
1601134166756,2162,0.04248047,0.8876343,-0.35040283
1601134166756,2163,0.04248047,0.8895874,-0.3550415
1601134166757,2164,0.041503906,0.89227295,-0.3496704
1601134166757,2165,0.04248047,0.8895874,-0.3550415
1601134166757,2166,0.03930664,0.887146,-0.35162354
1601134166757,2167,0.04248047,0.8895874,-0.3550415
1601134166757,2168,0.04248047,0.8895874,-0.3550415
1601134166757,2169,0.03930664,0.887146,-0.35162354
1601134166757,2170,0.03930664,0.887146,-0.35162354
1601134166757,2171,0.04248047,0.8825073,-0.35406494
1601134166757,2172,0.03930664,0.887146,-0.35162354
1601134166757,2173,0.04248047,0.8825073,-0.35406494
1601134166757,2174,0.04248047,0.8825073,-0.35406494
1601134166758,2175,0.04248047,0.8825073,-0.35406494
1601134169111,2176,0.043945312,0.8925171,-0.3567505
1601134169111,2177,0.043945312,0.8925171,-0.3567505
1601134169111,2178,0.043945312,0.8925171,-0.3567505
1601134169111,2179,0.043945312,0.8925171,-0.3567505
1601134169125,2180,0.043945312,0.8925171,-0.3567505
1601134169125,2181,0.043945312,0.8925171,-0.3567505
1601134169125,2182,0.046142578,0.8864136,-0.35577393
1601134169125,2183,0.046142578,0.8864136,-0.35577393
1601134169125,2184,0.043945312,0.8925171,-0.3567505
1601134169125,2185,0.04296875,0.8859253,-0.3526001
1601134169125,2186,0.046142578,0.8864136,-0.35577393
1601134169126,2187,0.043945312,0.8925171,-0.3567505
1601134169126,2188,0.04296875,0.8859253,-0.3526001
1601134169126,2189,0.04345703,0.88983154,-0.3501587
1601134169126,2190,0.043945312,0.8925171,-0.3567505
1601134169126,2191,0.046142578,0.8864136,-0.35577393
1601134169126,2192,0.046142578,0.8864136,-0.35577393
1601134169126,2193,0.04296875,0.8859253,-0.3526001
1601134169126,2194,0.04296875,0.8859253,-0.3526001
1601134169136,2195,0.046142578,0.8864136,-0.35577393
1601134169136,2196,0.046142578,0.8864136,-0.35577393
1601134169137,2197,0.04345703,0.88983154,-0.3501587
1601134169137,2198,0.046142578,0.8864136,-0.35577393
1601134169140,2199,0.040527344,0.8890991,-0.35455322
1601134169141,2200,0.046142578,0.8864136,-0.35577393
1601134169141,2201,0.04296875,0.8859253,-0.3526001
1601134169141,2202,0.043945312,0.8925171,-0.3567505
1601134169141,2203,0.04345703,0.88983154,-0.3501587
1601134169141,2204,0.046142578,0.8864136,-0.35577393
1601134169143,2205,0.040527344,0.8890991,-0.35455322
1601134169143,2206,0.04296875,0.8859253,-0.3526001
1601134169143,2207,0.040527344,0.8890991,-0.35455322
1601134169144,2208,0.04663086,0.88446045,-0.35357666
1601134169144,2209,0.04663086,0.88446045,-0.35357666
1601134169145,2210,0.04345703,0.88983154,-0.3501587
1601134169145,2211,0.04345703,0.88983154,-0.3501587
1601134169145,2212,0.04296875,0.8859253,-0.3526001
1601134169145,2213,0.04296875,0.8859253,-0.3526001
1601134169145,2214,0.04345703,0.88983154,-0.3501587
1601134169146,2215,0.040527344,0.8890991,-0.35455322
1601134169146,2216,0.041992188,0.88861084,-0.3538208
1601134169154,2217,0.040527344,0.8890991,-0.35455322
1601134169154,2218,0.040527344,0.8890991,-0.35455322
1601134169155,2219,0.04345703,0.88983154,-0.3501587
1601134169155,2220,0.04663086,0.88446045,-0.35357666
1601134169155,2221,0.04345703,0.88983154,-0.3501587
1601134169155,2222,0.04296875,0.8859253,-0.3526001
1601134169155,2223,0.04663086,0.88446045,-0.35357666
1601134169155,2224,0.041992188,0.88861084,-0.3538208
1601134169155,2225,0.044433594,0.8903198,-0.35772705
1601134169155,2226,0.041992188,0.88861084,-0.3538208
1601134169159,2227,0.04663086,0.88446045,-0.35357666
1601134169159,2228,0.040527344,0.8890991,-0.35455322
1601134169161,2229,0.04296875,0.8859253,-0.3526001
1601134169161,2230,0.040527344,0.8890991,-0.35455322
1601134169161,2231,0.041992188,0.88861084,-0.3538208
1601134169161,2232,0.04345703,0.88983154,-0.3501587
1601134169161,2233,0.04663086,0.88446045,-0.35357666
1601134169161,2234,0.044433594,0.8903198,-0.35772705
1601134169161,2235,0.044433594,0.8903198,-0.35772705
1601134169161,2236,0.040527344,0.8890991,-0.35455322
1601134169161,2237,0.041259766,0.8866577,-0.3508911
1601134169174,2238,0.04663086,0.88446045,-0.35357666
1601134169175,2239,0.04345703,0.88983154,-0.3501587
1601134169176,2240,0.04663086,0.88446045,-0.35357666
1601134169176,2241,0.041992188,0.88861084,-0.3538208
1601134169176,2242,0.040527344,0.8890991,-0.35455322
1601134169177,2243,0.041992188,0.88861084,-0.3538208
1601134169177,2244,0.041259766,0.8866577,-0.3508911
1601134169177,2245,0.044433594,0.8903198,-0.35772705
1601134169177,2246,0.04663086,0.88446045,-0.35357666
1601134169177,2247,0.041259766,0.8883667,-0.35650635
1601134169177,2248,0.041259766,0.8866577,-0.3508911
1601134169177,2249,0.041992188,0.88861084,-0.3538208
1601134169177,2250,0.04663086,0.88446045,-0.35357666
1601134169177,2251,0.041259766,0.8866577,-0.3508911
1601134169177,2252,0.041992188,0.88861084,-0.3538208
1601134169177,2253,0.044433594,0.8903198,-0.35772705
1601134169177,2254,0.044433594,0.8903198,-0.35772705
1601134169177,2255,0.041992188,0.88861084,-0.3538208
1601134169177,2256,0.044433594,0.8903198,-0.35772705
1601134169177,2257,0.041259766,0.8883667,-0.35650635
1601134169177,2258,0.041992188,0.88861084,-0.3538208
1601134169177,2259,0.041259766,0.8883667,-0.35650635
1601134169178,2260,0.044433594,0.8903198,-0.35772705
1601134169178,2261,0.041259766,0.8866577,-0.3508911
1601134169178,2262,0.040527344,0.8851929,-0.35357666
1601134169183,2263,0.041259766,0.8866577,-0.3508911
1601134169183,2264,0.041259766,0.8866577,-0.3508911
1601134169183,2265,0.041259766,0.8883667,-0.35650635
1601134169183,2266,0.044433594,0.8903198,-0.35772705
1601134169183,2267,0.040527344,0.8851929,-0.35357666
1601134169183,2268,0.041259766,0.8866577,-0.3508911
1601134169183,2269,0.044433594,0.8903198,-0.35772705
1601134169183,2270,0.041259766,0.8883667,-0.35650635
1601134169183,2271,0.040527344,0.8851929,-0.35357666
1601134169183,2272,0.045410156,0.89349365,-0.3591919
1601134169184,2273,0.041259766,0.8883667,-0.35650635
1601134169184,2274,0.040527344,0.8851929,-0.35357666
1601134169188,2275,0.045410156,0.89349365,-0.3591919
1601134169188,2276,0.041259766,0.8883667,-0.35650635
1601134169188,2277,0.041259766,0.8866577,-0.3508911
1601134169189,2278,0.040527344,0.8851929,-0.35357666
1601134169189,2279,0.040527344,0.8851929,-0.35357666
1601134169189,2280,0.045410156,0.89349365,-0.3591919
1601134169189,2281,0.041259766,0.8883667,-0.35650635
1601134169189,2282,0.041259766,0.8883667,-0.35650635
1601134169189,2283,0.041259766,0.8866577,-0.3508911
1601134169189,2284,0.045410156,0.89349365,-0.3591919
1601134169190,2285,0.044677734,0.88446045,-0.34552002
1601134169201,2286,0.040527344,0.8851929,-0.35357666
1601134169201,2287,0.045410156,0.89349365,-0.3591919
1601134169202,2288,0.044677734,0.88446045,-0.34552002
1601134169202,2289,0.044677734,0.88446045,-0.34552002
1601134169202,2290,0.045410156,0.89349365,-0.3591919
1601134169202,2291,0.044677734,0.88446045,-0.34552002
1601134169202,2292,0.044677734,0.88446045,-0.34552002
1601134169202,2293,0.041259766,0.8883667,-0.35650635
1601134169202,2294,0.045410156,0.89349365,-0.3591919
1601134169203,2295,0.04296875,0.89178467,-0.34625244
1601134169203,2296,0.044677734,0.88446045,-0.34552002
1601134169203,2297,0.040527344,0.8851929,-0.35357666
1601134169203,2298,0.04296875,0.89178467,-0.34625244
1601134169203,2299,0.04296875,0.89178467,-0.34625244
1601134169204,2300,0.04296875,0.89178467,-0.34625244
1601134169204,2301,0.04296875,0.8912964,-0.34454346
1601134169204,2302,0.044677734,0.88446045,-0.34552002
1601134169204,2303,0.04296875,0.89178467,-0.34625244
1601134169205,2304,0.041259766,0.8900757,-0.34552002
1601134169205,2305,0.04296875,0.8912964,-0.34454346
