# Sensor position: Chest
# Sensor side: Right
# Activity type: Climbing stairs
# Activity code: 12
# Subject id: s1735229
timestamp,seq,accel_x,accel_y,accel_z
1601138179487,0,0.18457031,-1.2302856,-0.06011963
1601138179487,1,0.25683594,-1.0120239,-0.007873535
1601138179487,2,0.23999023,-1.0501099,-0.042541504
1601138179487,3,0.23999023,-1.0501099,-0.042541504
1601138179487,4,-0.0043945312,-0.92852783,-0.09503174
1601138179488,5,-0.00390625,-0.96832275,0.058288574
1601138179488,6,-0.026123047,-0.9273071,0.017028809
1601138179488,7,-0.026123047,-0.9273071,0.017028809
1601138179488,8,-0.00390625,-0.96832275,0.058288574
1601138179488,9,0.045410156,-0.9319458,0.1149292
1601138179488,10,0.18457031,-1.2302856,-0.06011963
1601138179493,11,0.18457031,-1.2302856,-0.06011963
1601138179493,12,0.23999023,-1.0501099,-0.042541504
1601138179494,13,-0.00390625,-0.96832275,0.058288574
1601138179494,14,0.18457031,-1.2302856,-0.06011963
1601138179494,15,0.040039062,-0.897522,0.07293701
1601138179494,16,-0.00390625,-0.96832275,0.058288574
1601138179494,17,0.040039062,-0.897522,0.07293701
1601138179494,18,-0.34838867,-0.9036255,-0.77789307
1601138179494,19,0.040039062,-0.897522,0.07293701
1601138179495,20,0.045410156,-0.9319458,0.1149292
1601138179495,21,-0.00390625,-0.96832275,0.058288574
1601138179495,22,-0.0043945312,-0.92852783,-0.09503174
1601138179496,23,-0.0043945312,-0.92852783,-0.09503174
1601138179496,24,0.107666016,-1.0027466,0.08782959
1601138179496,25,0.045410156,-0.9319458,0.1149292
1601138179496,26,0.040039062,-0.897522,0.07293701
1601138179496,27,0.045410156,-0.9319458,0.1149292
1601138179496,28,-0.0043945312,-0.92852783,-0.09503174
1601138179498,29,-0.34838867,-0.9036255,-0.77789307
1601138179498,30,-0.026123047,-0.9273071,0.017028809
1601138179508,31,0.22802734,-1.2481079,0.11273193
1601138179508,32,-0.0043945312,-0.92852783,-0.09503174
1601138179508,33,-0.026123047,-0.9273071,0.017028809
1601138179508,34,0.045410156,-0.9319458,0.1149292
1601138179508,35,-0.026123047,-0.9273071,0.017028809
1601138179508,36,-0.00390625,-0.96832275,0.058288574
1601138179508,37,0.107666016,-1.0027466,0.08782959
1601138179509,38,0.040039062,-0.897522,0.07293701
1601138179510,39,-0.00390625,-0.96832275,0.058288574
1601138179511,40,-0.026123047,-0.9273071,0.017028809
1601138179511,41,-0.34838867,-0.9036255,-0.77789307
1601138179511,42,-0.34838867,-0.9036255,-0.77789307
1601138179511,43,0.040039062,-0.897522,0.07293701
1601138179511,44,-0.00390625,-0.96832275,0.058288574
1601138179511,45,-0.34838867,-0.9036255,-0.77789307
1601138179511,46,0.22802734,-1.2481079,0.11273193
1601138179511,47,0.045410156,-0.9319458,0.1149292
1601138179511,48,0.0769043,-1.1238403,-0.31256104
1601138179511,49,-0.00390625,-0.96832275,0.058288574
1601138179511,50,-0.34838867,-0.9036255,-0.77789307
1601138179511,51,0.15649414,-0.87213135,-0.2937622
1601138179511,52,0.107666016,-1.0027466,0.08782959
1601138179511,53,0.107666016,-1.0027466,0.08782959
1601138179517,54,0.0769043,-1.1238403,-0.31256104
1601138179517,55,0.045410156,-0.9319458,0.1149292
1601138179517,56,0.15649414,-0.87213135,-0.2937622
1601138179517,57,0.040039062,-0.897522,0.07293701
1601138179517,58,0.10473633,-1.0652466,-0.113586426
1601138179518,59,0.107666016,-1.0027466,0.08782959
1601138179518,60,0.22802734,-1.2481079,0.11273193
1601138179518,61,0.22802734,-1.2481079,0.11273193
1601138179518,62,0.040039062,-0.897522,0.07293701
1601138179518,63,0.10473633,-1.0652466,-0.113586426
1601138179519,64,0.040039062,-0.897522,0.07293701
1601138179519,65,0.107666016,-1.0027466,0.08782959
1601138179519,66,0.0769043,-1.1238403,-0.31256104
1601138179519,67,-0.34838867,-0.9036255,-0.77789307
1601138179519,68,0.045410156,-0.9319458,0.1149292
1601138179519,69,0.107666016,-1.0027466,0.08782959
1601138179519,70,0.22802734,-1.2481079,0.11273193
1601138179519,71,0.045410156,-0.9319458,0.1149292
1601138179519,72,0.22802734,-1.2481079,0.11273193
1601138179519,73,0.0769043,-1.1238403,-0.31256104
1601138179519,74,0.22583008,-0.8599243,-0.18145752
1601138179519,75,0.15649414,-0.87213135,-0.2937622
1601138179519,76,0.22802734,-1.2481079,0.11273193
1601138179535,77,-0.34838867,-0.9036255,-0.77789307
1601138179535,78,-0.34838867,-0.9036255,-0.77789307
1601138179538,79,0.107666016,-1.0027466,0.08782959
1601138179538,80,0.0769043,-1.1238403,-0.31256104
1601138179538,81,0.0769043,-1.1238403,-0.31256104
1601138179538,82,0.15649414,-0.87213135,-0.2937622
1601138179538,83,0.22583008,-0.8599243,-0.18145752
1601138179538,84,0.10473633,-1.0652466,-0.113586426
1601138179538,85,0.045410156,-0.9319458,0.1149292
1601138179539,86,0.16748047,-0.9404907,-0.059631348
1601138179539,87,0.0769043,-1.1238403,-0.31256104
1601138179539,88,0.22802734,-1.2481079,0.11273193
1601138179539,89,0.22583008,-0.8599243,-0.18145752
1601138179539,90,-0.34838867,-0.9036255,-0.77789307
1601138179539,91,0.16748047,-0.9404907,-0.059631348
1601138179539,92,0.15649414,-0.87213135,-0.2937622
1601138179539,93,0.10473633,-1.0652466,-0.113586426
1601138179539,94,0.2421875,-0.9356079,0.014587402
1601138179539,95,0.16748047,-0.9404907,-0.059631348
1601138179539,96,0.10473633,-1.0652466,-0.113586426
1601138179539,97,0.15649414,-0.87213135,-0.2937622
1601138179539,98,0.2421875,-0.9356079,0.014587402
1601138179539,99,0.2421875,-0.9356079,0.014587402
1601138179539,100,0.107666016,-1.0027466,0.08782959
1601138179539,101,0.26757812,-0.9692993,0.0018920898
1601138179539,102,0.15649414,-0.87213135,-0.2937622
1601138179540,103,0.26757812,-0.9692993,0.0018920898
1601138179540,104,0.0769043,-1.1238403,-0.31256104
1601138179540,105,0.22583008,-0.8599243,-0.18145752
1601138179540,106,0.26757812,-0.9692993,0.0018920898
1601138179540,107,0.16748047,-0.9404907,-0.059631348
1601138179540,108,0.22583008,-0.8599243,-0.18145752
1601138179540,109,0.22802734,-1.2481079,0.11273193
1601138179540,110,0.2421875,-0.9356079,0.014587402
1601138179540,111,0.20703125,-1.321106,0.019958496
1601138179540,112,0.20703125,-1.321106,0.019958496
1601138179540,113,0.10473633,-1.0652466,-0.113586426
1601138179540,114,0.107666016,-1.0027466,0.08782959
1601138179540,115,-0.01171875,-1.11969,-0.04473877
1601138179540,116,0.10473633,-1.0652466,-0.113586426
1601138179540,117,0.16748047,-0.9404907,-0.059631348
1601138179540,118,0.15649414,-0.87213135,-0.2937622
1601138179543,119,0.26757812,-0.9692993,0.0018920898
1601138179544,120,0.20703125,-1.321106,0.019958496
1601138179544,121,0.22583008,-0.8599243,-0.18145752
1601138179544,122,-0.01171875,-1.11969,-0.04473877
1601138179544,123,-0.01171875,-1.11969,-0.04473877
1601138179544,124,0.040527344,-0.892395,-0.07330322
1601138179544,125,0.2421875,-0.9356079,0.014587402
1601138179544,126,0.22583008,-0.8599243,-0.18145752
1601138179544,127,0.0769043,-1.1238403,-0.31256104
1601138179544,128,0.16748047,-0.9404907,-0.059631348
1601138179549,129,0.20703125,-1.321106,0.019958496
1601138179549,130,0.2421875,-0.9356079,0.014587402
1601138179549,131,0.03540039,-1.0696411,0.0993042
1601138179549,132,0.040527344,-0.892395,-0.07330322
1601138179549,133,0.16748047,-0.9404907,-0.059631348
1601138179549,134,0.0053710938,-0.8694458,0.11029053
1601138179550,135,-0.01171875,-1.11969,-0.04473877
1601138179550,136,0.10473633,-1.0652466,-0.113586426
1601138179550,137,0.15649414,-0.87213135,-0.2937622
1601138179550,138,0.040527344,-0.892395,-0.07330322
1601138179550,139,0.22802734,-1.2481079,0.11273193
1601138179550,140,0.03540039,-1.0696411,0.0993042
1601138179550,141,0.040527344,-0.892395,-0.07330322
1601138179550,142,0.0053710938,-0.8694458,0.11029053
1601138179550,143,0.10473633,-1.0652466,-0.113586426
1601138179550,144,0.26757812,-0.9692993,0.0018920898
1601138179550,145,0.076660156,-0.95269775,0.1227417
1601138179550,146,0.22583008,-0.8599243,-0.18145752
1601138179556,147,0.26757812,-0.9692993,0.0018920898
1601138179556,148,0.0769043,-1.1238403,-0.31256104
1601138179557,149,0.03540039,-1.0696411,0.0993042
1601138179557,150,0.03540039,-1.0696411,0.0993042
1601138179557,151,0.22583008,-0.8599243,-0.18145752
1601138179557,152,0.076660156,-0.95269775,0.1227417
1601138179557,153,0.2421875,-0.9356079,0.014587402
1601138179557,154,0.20703125,-1.321106,0.019958496
1601138179557,155,0.15625,-0.90997314,0.15423584
1601138179557,156,0.16748047,-0.9404907,-0.059631348
1601138179557,157,0.26757812,-0.9692993,0.0018920898
1601138179557,158,-0.01171875,-1.11969,-0.04473877
1601138179559,159,0.2421875,-0.9356079,0.014587402
1601138179559,160,0.15625,-0.90997314,0.15423584
1601138179560,161,0.0053710938,-0.8694458,0.11029053
1601138179560,162,0.20703125,-1.321106,0.019958496
1601138179560,163,0.1496582,-0.9834595,0.19940186
1601138179571,164,0.1496582,-0.9834595,0.19940186
1601138179571,165,0.040527344,-0.892395,-0.07330322
1601138179571,166,0.22729492,-1.1358032,0.15545654
1601138179571,167,0.0053710938,-0.8694458,0.11029053
1601138179571,168,0.15649414,-0.87213135,-0.2937622
1601138179571,169,0.03540039,-1.0696411,0.0993042
1601138179571,170,0.20703125,-1.321106,0.019958496
1601138179571,171,-0.01171875,-1.11969,-0.04473877
1601138179572,172,0.22729492,-1.1358032,0.15545654
1601138179572,173,-0.01171875,-1.11969,-0.04473877
1601138179572,174,0.16748047,-0.9404907,-0.059631348
1601138179572,175,0.26757812,-0.9692993,0.0018920898
1601138179572,176,0.24658203,-1.2778931,-0.18170166
1601138179572,177,0.076660156,-0.95269775,0.1227417
1601138179572,178,0.20703125,-1.321106,0.019958496
1601138179572,179,0.0053710938,-0.8694458,0.11029053
1601138179572,180,0.15625,-0.90997314,0.15423584
1601138179572,181,-0.01171875,-1.11969,-0.04473877
1601138179572,182,0.24658203,-1.2778931,-0.18170166
1601138179572,183,0.040527344,-0.892395,-0.07330322
1601138179572,184,0.21899414,-0.80670166,-0.07745361
1601138179573,185,0.21899414,-0.80670166,-0.07745361
1601138179573,186,0.2421875,-0.9356079,0.014587402
1601138179578,187,0.040527344,-0.892395,-0.07330322
1601138179579,188,0.10473633,-1.0652466,-0.113586426
1601138179579,189,0.040527344,-0.892395,-0.07330322
1601138179579,190,0.03540039,-1.0696411,0.0993042
1601138179579,191,0.076660156,-0.95269775,0.1227417
1601138179579,192,0.076660156,-0.95269775,0.1227417
1601138179579,193,0.26757812,-0.9692993,0.0018920898
1601138179579,194,0.0053710938,-0.8694458,0.11029053
1601138179579,195,0.03540039,-1.0696411,0.0993042
1601138179579,196,0.03540039,-1.0696411,0.0993042
1601138179579,197,0.15625,-0.90997314,0.15423584
1601138179579,198,0.15625,-0.90997314,0.15423584
1601138179586,199,0.20703125,-1.321106,0.019958496
1601138179588,200,0.22583008,-0.8599243,-0.18145752
1601138179588,201,0.1496582,-0.9834595,0.19940186
1601138179588,202,-0.01171875,-1.11969,-0.04473877
1601138179588,203,0.16748047,-0.9404907,-0.059631348
1601138179588,204,0.1496582,-0.9834595,0.19940186
1601138179588,205,0.1496582,-0.9834595,0.19940186
1601138179588,206,0.2421875,-0.9356079,0.014587402
1601138179588,207,0.076660156,-0.95269775,0.1227417
1601138179588,208,0.22729492,-1.1358032,0.15545654
1601138179588,209,0.0053710938,-0.8694458,0.11029053
1601138179588,210,0.0053710938,-0.8694458,0.11029053
1601138179588,211,0.22729492,-1.1358032,0.15545654
1601138179588,212,0.24658203,-1.2778931,-0.18170166
1601138179588,213,0.26757812,-0.9692993,0.0018920898
1601138179589,214,0.21899414,-0.80670166,-0.07745361
1601138179589,215,0.040527344,-0.892395,-0.07330322
1601138179589,216,0.076660156,-0.95269775,0.1227417
1601138179589,217,0.20703125,-1.321106,0.019958496
1601138179589,218,0.15625,-0.90997314,0.15423584
1601138179589,219,0.15625,-0.90997314,0.15423584
1601138179589,220,0.24658203,-1.2778931,-0.18170166
1601138179597,221,0.03540039,-1.0696411,0.0993042
1601138179597,222,0.076660156,-0.95269775,0.1227417
1601138179597,223,0.22729492,-1.1358032,0.15545654
1601138179597,224,0.1496582,-0.9834595,0.19940186
1601138179597,225,-0.01171875,-1.11969,-0.04473877
1601138179597,226,0.21899414,-0.80670166,-0.07745361
1601138179597,227,0.1496582,-0.9834595,0.19940186
1601138179597,228,0.22729492,-1.1358032,0.15545654
1601138179598,229,0.0053710938,-0.8694458,0.11029053
1601138179600,230,0.15625,-0.90997314,0.15423584
1601138179600,231,0.24658203,-1.2778931,-0.18170166
1601138179600,232,0.24658203,-1.2778931,-0.18170166
1601138179600,233,0.076660156,-0.95269775,0.1227417
1601138179600,234,0.040527344,-0.892395,-0.07330322
1601138179600,235,0.15625,-0.90997314,0.15423584
1601138179601,236,0.21899414,-0.80670166,-0.07745361
1601138179601,237,0.21899414,-0.80670166,-0.07745361
1601138179601,238,0.22729492,-1.1358032,0.15545654
1601138179602,239,0.24658203,-1.2778931,-0.18170166
1601138179602,240,0.1496582,-0.9834595,0.19940186
1601138179602,241,0.03540039,-1.0696411,0.0993042
1601138179607,242,0.21899414,-0.80670166,-0.07745361
1601138179609,243,0.22729492,-1.1358032,0.15545654
1601138179610,244,0.0053710938,-0.8694458,0.11029053
1601138179610,245,0.1496582,-0.9834595,0.19940186
1601138179612,246,0.076660156,-0.95269775,0.1227417
1601138179612,247,0.24658203,-1.2778931,-0.18170166
1601138179612,248,0.15625,-0.90997314,0.15423584
1601138179612,249,0.22729492,-1.1358032,0.15545654
1601138179616,250,0.24658203,-1.2778931,-0.18170166
1601138179616,251,0.1496582,-0.9834595,0.19940186
1601138179616,252,0.21899414,-0.80670166,-0.07745361
1601138179616,253,0.22729492,-1.1358032,0.15545654
1601138179616,254,0.21899414,-0.80670166,-0.07745361
1601138179616,255,0.24658203,-1.2778931,-0.18170166
1601138179618,256,0.21899414,-0.80670166,-0.07745361
1601138181803,257,0.17089844,-1.0462036,-0.043762207
1601138181804,258,0.17089844,-1.0462036,-0.043762207
1601138181804,259,0.17089844,-1.0462036,-0.043762207
1601138181804,260,0.17089844,-1.0462036,-0.043762207
1601138181804,261,0.17089844,-1.0462036,-0.043762207
1601138181804,262,0.28979492,-0.9553833,-0.059631348
1601138181838,263,0.28979492,-0.9553833,-0.059631348
1601138181838,264,0.28979492,-0.9553833,-0.059631348
1601138181839,265,0.17089844,-1.0462036,-0.043762207
1601138181839,266,0.33007812,-0.89141846,-0.058166504
1601138181839,267,0.17089844,-1.0462036,-0.043762207
1601138181839,268,0.3161621,-0.9475708,0.009460449
1601138181839,269,0.17089844,-1.0462036,-0.043762207
1601138181839,270,0.3828125,-0.9807739,0.051452637
1601138181839,271,0.28979492,-0.9553833,-0.059631348
1601138181840,272,0.28979492,-0.9553833,-0.059631348
1601138181840,273,0.33007812,-0.89141846,-0.058166504
1601138181840,274,0.33007812,-0.89141846,-0.058166504
1601138181840,275,0.3161621,-0.9475708,0.009460449
1601138181840,276,0.3828125,-0.9807739,0.051452637
1601138181851,277,0.28979492,-0.9553833,-0.059631348
1601138181852,278,0.33007812,-0.89141846,-0.058166504
1601138181852,279,0.17089844,-1.0462036,-0.043762207
1601138181852,280,0.35009766,-0.8858032,0.0138549805
1601138181852,281,0.3161621,-0.9475708,0.009460449
1601138181852,282,0.33007812,-0.89141846,-0.058166504
1601138181852,283,0.28979492,-0.9553833,-0.059631348
1601138181852,284,0.3828125,-0.9807739,0.051452637
1601138181852,285,0.28979492,-0.9553833,-0.059631348
1601138181852,286,0.35009766,-0.8858032,0.0138549805
1601138181852,287,0.35009766,-0.8858032,0.0138549805
1601138181852,288,0.3425293,-0.9055786,0.043884277
1601138181853,289,0.3161621,-0.9475708,0.009460449
1601138181853,290,0.3425293,-0.9055786,0.043884277
1601138181853,291,0.17089844,-1.0462036,-0.043762207
1601138181853,292,0.3161621,-0.9475708,0.009460449
1601138181853,293,0.28979492,-0.9553833,-0.059631348
1601138181853,294,0.28979492,-0.9553833,-0.059631348
1601138181854,295,0.33007812,-0.89141846,-0.058166504
1601138181854,296,0.32421875,-0.9627075,0.09246826
1601138181857,297,0.3388672,-0.94903564,0.094177246
1601138181863,298,0.3828125,-0.9807739,0.051452637
1601138181863,299,0.3701172,-0.864563,0.08074951
1601138181863,300,0.33007812,-0.89141846,-0.058166504
1601138181863,301,0.25,-1.2996216,-0.004211426
1601138181864,302,0.33007812,-0.89141846,-0.058166504
1601138181864,303,0.3161621,-0.9475708,0.009460449
1601138181864,304,0.3161621,-0.9475708,0.009460449
1601138181864,305,0.32421875,-0.9627075,0.09246826
1601138181864,306,0.3828125,-0.9807739,0.051452637
1601138181866,307,0.33007812,-0.89141846,-0.058166504
1601138181868,308,0.33007812,-0.89141846,-0.058166504
1601138181878,309,0.3828125,-0.9807739,0.051452637
1601138181878,310,0.3425293,-0.9055786,0.043884277
1601138181878,311,0.3161621,-0.9475708,0.009460449
1601138181878,312,0.3161621,-0.9475708,0.009460449
1601138181878,313,0.3828125,-0.9807739,0.051452637
1601138181879,314,0.35009766,-0.8858032,0.0138549805
1601138181879,315,0.35009766,-0.8858032,0.0138549805
1601138181879,316,0.022460938,-0.9505005,-0.06866455
1601138181880,317,0.3425293,-0.9055786,0.043884277
1601138181880,318,0.35009766,-0.8858032,0.0138549805
1601138181880,319,0.3425293,-0.9055786,0.043884277
1601138181880,320,0.32421875,-0.9627075,0.09246826
1601138181880,321,0.3828125,-0.9807739,0.051452637
1601138181880,322,0.3388672,-0.94903564,0.094177246
1601138181880,323,0.3828125,-0.9807739,0.051452637
1601138181880,324,0.3701172,-0.864563,0.08074951
1601138181881,325,0.35009766,-0.8858032,0.0138549805
1601138181881,326,0.3161621,-0.9475708,0.009460449
1601138181886,327,0.3425293,-0.9055786,0.043884277
1601138181886,328,0.3388672,-0.94903564,0.094177246
1601138181886,329,0.35009766,-0.8858032,0.0138549805
1601138181886,330,0.3701172,-0.864563,0.08074951
1601138181886,331,0.32421875,-0.9627075,0.09246826
1601138181886,332,0.25,-1.2996216,-0.004211426
1601138181887,333,-0.012451172,-0.99102783,-0.04449463
1601138181887,334,0.3388672,-0.94903564,0.094177246
1601138181887,335,0.022460938,-0.9505005,-0.06866455
1601138181887,336,0.3828125,-0.9807739,0.051452637
1601138181891,337,0.32421875,-0.9627075,0.09246826
1601138181891,338,0.35009766,-0.8858032,0.0138549805
1601138181892,339,0.3425293,-0.9055786,0.043884277
1601138181892,340,0.25,-1.2996216,-0.004211426
1601138181892,341,0.3425293,-0.9055786,0.043884277
1601138181892,342,0.32421875,-0.9627075,0.09246826
1601138181892,343,-0.049560547,-1.2022095,-0.024719238
1601138181892,344,0.3701172,-0.864563,0.08074951
1601138181892,345,-0.012451172,-0.99102783,-0.04449463
1601138181892,346,0.35009766,-0.8858032,0.0138549805
1601138181892,347,0.3388672,-0.94903564,0.094177246
1601138181893,348,0.3425293,-0.9055786,0.043884277
1601138181893,349,0.32421875,-0.9627075,0.09246826
1601138181894,350,0.25,-1.2996216,-0.004211426
1601138181899,351,0.3425293,-0.9055786,0.043884277
1601138181899,352,-0.049560547,-1.2022095,-0.024719238
1601138181899,353,0.32421875,-0.9627075,0.09246826
1601138181900,354,0.022460938,-0.9505005,-0.06866455
1601138181900,355,0.3701172,-0.864563,0.08074951
1601138181900,356,0.3388672,-0.94903564,0.094177246
1601138181900,357,0.3388672,-0.94903564,0.094177246
1601138181900,358,0.3388672,-0.94903564,0.094177246
1601138181900,359,-0.052490234,-0.96539307,0.0446167
1601138181900,360,0.3701172,-0.864563,0.08074951
1601138181900,361,0.32421875,-0.9627075,0.09246826
1601138181917,362,-0.012451172,-0.99102783,-0.04449463
1601138181920,363,0.25,-1.2996216,-0.004211426
1601138181925,364,-0.052490234,-0.96539307,0.0446167
1601138181925,365,0.3701172,-0.864563,0.08074951
1601138181925,366,0.022460938,-0.9505005,-0.06866455
1601138181926,367,0.3701172,-0.864563,0.08074951
1601138181926,368,-0.012451172,-0.99102783,-0.04449463
1601138181926,369,0.25,-1.2996216,-0.004211426
1601138181926,370,0.32421875,-0.9627075,0.09246826
1601138181926,371,-0.049560547,-1.2022095,-0.024719238
1601138181926,372,0.3388672,-0.94903564,0.094177246
1601138181926,373,-0.049560547,-1.2022095,-0.024719238
1601138181926,374,0.3701172,-0.864563,0.08074951
1601138181926,375,0.022460938,-0.9505005,-0.06866455
1601138181926,376,0.115478516,-1.0264282,0.054870605
1601138181926,377,-0.052490234,-0.96539307,0.0446167
1601138181926,378,0.25,-1.2996216,-0.004211426
1601138181926,379,0.25,-1.2996216,-0.004211426
1601138181926,380,-0.012451172,-0.99102783,-0.04449463
1601138181926,381,0.022460938,-0.9505005,-0.06866455
1601138181926,382,-0.052490234,-0.96539307,0.0446167
1601138181927,383,0.115478516,-1.0264282,0.054870605
1601138181927,384,0.25,-1.2996216,-0.004211426
1601138181927,385,0.12719727,-0.9734497,0.09124756
1601138181927,386,0.115478516,-1.0264282,0.054870605
1601138181927,387,0.060302734,-0.96539307,0.20306396
1601138181927,388,-0.012451172,-0.99102783,-0.04449463
1601138181927,389,0.022460938,-0.9505005,-0.06866455
1601138181927,390,0.115478516,-1.0264282,0.054870605
1601138181927,391,0.022460938,-0.9505005,-0.06866455
1601138181927,392,0.12719727,-0.9734497,0.09124756
1601138181927,393,-0.012451172,-0.99102783,-0.04449463
1601138181927,394,0.022460938,-0.9505005,-0.06866455
1601138181927,395,0.12719727,-0.9734497,0.09124756
1601138181927,396,0.3388672,-0.94903564,0.094177246
1601138181928,397,0.059814453,-0.9338989,0.184021
1601138181928,398,-0.049560547,-1.2022095,-0.024719238
1601138181928,399,0.3701172,-0.864563,0.08074951
1601138181928,400,-0.012451172,-0.99102783,-0.04449463
1601138181928,401,0.060302734,-0.96539307,0.20306396
1601138181928,402,-0.049560547,-1.2022095,-0.024719238
1601138181928,403,0.059814453,-0.9338989,0.184021
1601138181928,404,-0.049560547,-1.2022095,-0.024719238
1601138181928,405,-0.012451172,-0.99102783,-0.04449463
1601138181928,406,0.12719727,-0.9734497,0.09124756
1601138181928,407,0.06542969,-0.9729614,0.1918335
1601138181929,408,-0.049560547,-1.2022095,-0.024719238
1601138181933,409,-0.052490234,-0.96539307,0.0446167
1601138181934,410,0.06542969,-0.9729614,0.1918335
1601138181934,411,-0.052490234,-0.96539307,0.0446167
1601138181934,412,-0.049560547,-1.2022095,-0.024719238
1601138181934,413,-0.052490234,-0.96539307,0.0446167
1601138181934,414,0.060302734,-0.96539307,0.20306396
1601138181934,415,0.25,-1.2996216,-0.004211426
1601138181934,416,0.08520508,-0.96466064,0.1798706
1601138181934,417,0.060302734,-0.96539307,0.20306396
1601138181934,418,-0.052490234,-0.96539307,0.0446167
1601138181945,419,0.115478516,-1.0264282,0.054870605
1601138181945,420,0.08520508,-0.96466064,0.1798706
1601138181946,421,0.115478516,-1.0264282,0.054870605
1601138181946,422,-0.052490234,-0.96539307,0.0446167
1601138181946,423,0.115478516,-1.0264282,0.054870605
1601138181946,424,0.12719727,-0.9734497,0.09124756
1601138181946,425,0.022460938,-0.9505005,-0.06866455
1601138181946,426,0.018066406,-1.024231,0.06463623
1601138181946,427,0.059814453,-0.9338989,0.184021
1601138181946,428,0.115478516,-1.0264282,0.054870605
1601138181947,429,0.1574707,-1.010315,0.07171631
1601138181947,430,0.12719727,-0.9734497,0.09124756
1601138181947,431,0.12719727,-0.9734497,0.09124756
1601138181947,432,0.059814453,-0.9338989,0.184021
1601138181947,433,0.115478516,-1.0264282,0.054870605
1601138181947,434,-0.012451172,-0.99102783,-0.04449463
1601138181947,435,0.12719727,-0.9734497,0.09124756
1601138181947,436,-0.049560547,-1.2022095,-0.024719238
1601138181947,437,0.06542969,-0.9729614,0.1918335
1601138181947,438,-0.052490234,-0.96539307,0.0446167
1601138181947,439,0.043945312,-1.1072388,0.07171631
1601138181947,440,0.08520508,-0.96466064,0.1798706
1601138181947,441,0.060302734,-0.96539307,0.20306396
1601138181947,442,0.018066406,-1.024231,0.06463623
1601138181947,443,0.06542969,-0.9729614,0.1918335
1601138181948,444,0.12719727,-0.9734497,0.09124756
1601138181948,445,0.060302734,-0.96539307,0.20306396
1601138181948,446,0.060302734,-0.96539307,0.20306396
1601138181948,447,0.060302734,-0.96539307,0.20306396
1601138181948,448,0.115478516,-1.0264282,0.054870605
1601138181948,449,0.09472656,-1.3328247,-0.0029907227
1601138181950,450,0.060302734,-0.96539307,0.20306396
1601138181951,451,0.018066406,-1.024231,0.06463623
1601138181966,452,0.059814453,-0.9338989,0.184021
1601138181966,453,0.059814453,-0.9338989,0.184021
1601138181967,454,0.1574707,-1.010315,0.07171631
1601138181969,455,0.12719727,-0.9734497,0.09124756
1601138181969,456,0.1574707,-1.010315,0.07171631
1601138181969,457,0.13500977,-1.303772,-0.058166504
1601138181970,458,0.060302734,-0.96539307,0.20306396
1601138181970,459,0.059814453,-0.9338989,0.184021
1601138181970,460,0.043945312,-1.1072388,0.07171631
1601138181970,461,0.059814453,-0.9338989,0.184021
1601138181970,462,0.059814453,-0.9338989,0.184021
1601138181970,463,0.06542969,-0.9729614,0.1918335
1601138181970,464,0.09472656,-1.3328247,-0.0029907227
1601138181970,465,0.08520508,-0.96466064,0.1798706
1601138181970,466,0.08520508,-0.96466064,0.1798706
1601138181970,467,0.09790039,-0.8892212,-0.31378174
1601138181970,468,0.13500977,-1.303772,-0.058166504
1601138181970,469,0.018066406,-1.024231,0.06463623
1601138181970,470,0.06542969,-0.9729614,0.1918335
1601138181970,471,0.018066406,-1.024231,0.06463623
1601138181970,472,0.08520508,-0.96466064,0.1798706
1601138181970,473,0.06542969,-0.9729614,0.1918335
1601138181970,474,0.1574707,-1.010315,0.07171631
1601138181970,475,0.043945312,-1.1072388,0.07171631
1601138181970,476,0.059814453,-0.9338989,0.184021
1601138181971,477,0.06347656,-0.9487915,-0.26104736
1601138181971,478,0.06542969,-0.9729614,0.1918335
1601138181971,479,0.09790039,-0.8892212,-0.31378174
1601138181971,480,0.1574707,-1.010315,0.07171631
1601138181971,481,0.06542969,-0.9729614,0.1918335
1601138181971,482,0.06347656,-0.9487915,-0.26104736
1601138181971,483,0.08520508,-0.96466064,0.1798706
1601138181971,484,0.043945312,-1.1072388,0.07171631
1601138181971,485,0.09887695,-0.956604,-0.16973877
1601138181971,486,0.018066406,-1.024231,0.06463623
1601138181971,487,0.06542969,-0.9729614,0.1918335
1601138181971,488,0.09887695,-0.956604,-0.16973877
1601138181971,489,0.08520508,-0.96466064,0.1798706
1601138181971,490,0.12109375,-0.96954346,-0.1272583
1601138181971,491,0.08520508,-0.96466064,0.1798706
1601138181977,492,0.018066406,-1.024231,0.06463623
1601138181977,493,0.09472656,-1.3328247,-0.0029907227
1601138181977,494,0.1574707,-1.010315,0.07171631
1601138181977,495,0.12109375,-0.96954346,-0.1272583
1601138181977,496,0.08520508,-0.96466064,0.1798706
1601138181978,497,0.13500977,-1.303772,-0.058166504
1601138181978,498,0.14868164,-0.9404907,-0.12164307
1601138181978,499,0.018066406,-1.024231,0.06463623
1601138181978,500,0.09790039,-0.8892212,-0.31378174
1601138181978,501,0.18603516,-0.92193604,-0.08477783
1601138181978,502,0.018066406,-1.024231,0.06463623
1601138181978,503,0.06347656,-0.9487915,-0.26104736
1601138181978,504,0.043945312,-1.1072388,0.07171631
1601138181978,505,0.1574707,-1.010315,0.07171631
1601138181978,506,0.018066406,-1.024231,0.06463623
1601138181978,507,0.09472656,-1.3328247,-0.0029907227
1601138181978,508,0.14868164,-0.9404907,-0.12164307
1601138181978,509,0.1574707,-1.010315,0.07171631
1601138181980,510,0.1574707,-1.010315,0.07171631
1601138181981,511,0.09887695,-0.956604,-0.16973877
1601138181981,512,0.09472656,-1.3328247,-0.0029907227
1601138181982,513,0.13500977,-1.303772,-0.058166504
1601138181982,514,0.12109375,-0.96954346,-0.1272583
1601138181982,515,0.18603516,-0.92193604,-0.08477783
1601138181982,516,0.043945312,-1.1072388,0.07171631
1601138181982,517,0.09790039,-0.8892212,-0.31378174
1601138181982,518,0.043945312,-1.1072388,0.07171631
1601138181983,519,0.1574707,-1.010315,0.07171631
1601138181991,520,0.043945312,-1.1072388,0.07171631
1601138181991,521,0.09472656,-1.3328247,-0.0029907227
1601138181991,522,0.06347656,-0.9487915,-0.26104736
1601138181991,523,0.09472656,-1.3328247,-0.0029907227
1601138181991,524,0.13500977,-1.303772,-0.058166504
1601138181991,525,0.043945312,-1.1072388,0.07171631
1601138181991,526,0.09472656,-1.3328247,-0.0029907227
1601138181991,527,0.09472656,-1.3328247,-0.0029907227
1601138181991,528,0.043945312,-1.1072388,0.07171631
1601138181991,529,0.14868164,-0.9404907,-0.12164307
1601138181991,530,0.13500977,-1.303772,-0.058166504
1601138181991,531,0.09472656,-1.3328247,-0.0029907227
1601138181991,532,0.09887695,-0.956604,-0.16973877
1601138181992,533,0.09790039,-0.8892212,-0.31378174
1601138181996,534,0.13500977,-1.303772,-0.058166504
1601138181997,535,0.13500977,-1.303772,-0.058166504
1601138181997,536,0.13500977,-1.303772,-0.058166504
1601138181997,537,0.18603516,-0.92193604,-0.08477783
1601138181997,538,0.09790039,-0.8892212,-0.31378174
1601138181997,539,0.13500977,-1.303772,-0.058166504
1601138181997,540,0.06347656,-0.9487915,-0.26104736
1601138181997,541,0.06347656,-0.9487915,-0.26104736
1601138181998,542,0.09790039,-0.8892212,-0.31378174
1601138181998,543,0.09790039,-0.8892212,-0.31378174
1601138182002,544,0.09887695,-0.956604,-0.16973877
1601138182002,545,0.09887695,-0.956604,-0.16973877
1601138182003,546,0.09790039,-0.8892212,-0.31378174
1601138182003,547,0.09790039,-0.8892212,-0.31378174
1601138182003,548,0.12109375,-0.96954346,-0.1272583
1601138182003,549,0.06347656,-0.9487915,-0.26104736
1601138182003,550,0.06347656,-0.9487915,-0.26104736
1601138182003,551,0.12109375,-0.96954346,-0.1272583
1601138182007,552,0.06347656,-0.9487915,-0.26104736
1601138182007,553,0.06347656,-0.9487915,-0.26104736
1601138182007,554,0.14868164,-0.9404907,-0.12164307
1601138182007,555,0.09887695,-0.956604,-0.16973877
1601138182007,556,0.09887695,-0.956604,-0.16973877
1601138182007,557,0.12109375,-0.96954346,-0.1272583
1601138182009,558,0.14868164,-0.9404907,-0.12164307
1601138182009,559,0.09887695,-0.956604,-0.16973877
1601138182009,560,0.09887695,-0.956604,-0.16973877
1601138182010,561,0.12109375,-0.96954346,-0.1272583
1601138182010,562,0.18603516,-0.92193604,-0.08477783
1601138182010,563,0.12109375,-0.96954346,-0.1272583
1601138182018,564,0.14868164,-0.9404907,-0.12164307
1601138182018,565,0.12109375,-0.96954346,-0.1272583
1601138182018,566,0.18603516,-0.92193604,-0.08477783
1601138182018,567,0.18603516,-0.92193604,-0.08477783
1601138182018,568,0.14868164,-0.9404907,-0.12164307
1601138182018,569,0.14868164,-0.9404907,-0.12164307
1601138182018,570,0.18603516,-0.92193604,-0.08477783
1601138182019,571,0.14868164,-0.9404907,-0.12164307
1601138182019,572,0.12109375,-0.96954346,-0.1272583
1601138182019,573,0.14868164,-0.9404907,-0.12164307
1601138182019,574,0.18603516,-0.92193604,-0.08477783
1601138182019,575,0.18603516,-0.92193604,-0.08477783
1601138182020,576,0.18603516,-0.92193604,-0.08477783
1601138184338,577,0.21069336,-0.9390259,-0.05303955
1601138184339,578,0.21069336,-0.9390259,-0.05303955
1601138184340,579,0.21069336,-0.9390259,-0.05303955
1601138184349,580,0.21069336,-0.9390259,-0.05303955
1601138184349,581,0.21069336,-0.9390259,-0.05303955
1601138184350,582,0.21069336,-0.9390259,-0.05303955
1601138184350,583,0.21069336,-0.9390259,-0.05303955
1601138184351,584,0.21069336,-0.9390259,-0.05303955
1601138184351,585,0.21069336,-0.9390259,-0.05303955
1601138184352,586,0.24267578,-0.944397,1.8310547E-4
1601138184353,587,0.24267578,-0.944397,1.8310547E-4
1601138184353,588,0.24267578,-0.944397,1.8310547E-4
1601138184353,589,0.24267578,-0.944397,1.8310547E-4
1601138184353,590,0.24267578,-0.944397,1.8310547E-4
1601138184358,591,0.24267578,-0.944397,1.8310547E-4
1601138184360,592,0.24267578,-0.944397,1.8310547E-4
1601138184360,593,0.24267578,-0.944397,1.8310547E-4
1601138184361,594,0.24023438,-0.98321533,-0.07330322
1601138184361,595,0.24023438,-0.98321533,-0.07330322
1601138184361,596,0.24267578,-0.944397,1.8310547E-4
1601138184361,597,0.24023438,-0.98321533,-0.07330322
1601138184384,598,0.24023438,-0.98321533,-0.07330322
1601138184384,599,0.29956055,-0.973938,-0.047424316
1601138184384,600,0.29956055,-0.973938,-0.047424316
1601138184384,601,0.24023438,-0.98321533,-0.07330322
1601138184384,602,0.24023438,-0.98321533,-0.07330322
1601138184384,603,0.21069336,-0.9390259,-0.05303955
1601138184385,604,0.24023438,-0.98321533,-0.07330322
1601138184385,605,0.29956055,-0.973938,-0.047424316
1601138184385,606,0.29956055,-0.973938,-0.047424316
1601138184385,607,0.24023438,-0.98321533,-0.07330322
1601138184385,608,0.2722168,-0.9663696,-0.04498291
1601138184385,609,0.24023438,-0.98321533,-0.07330322
1601138184385,610,0.2722168,-0.9663696,-0.04498291
1601138184386,611,0.29956055,-0.973938,-0.047424316
1601138184386,612,0.2722168,-0.9663696,-0.04498291
1601138184386,613,0.29956055,-0.973938,-0.047424316
1601138184386,614,0.2722168,-0.9663696,-0.04498291
1601138184386,615,0.2722168,-0.9663696,-0.04498291
1601138184387,616,0.21142578,-1.0576782,-0.085754395
1601138184387,617,0.29956055,-0.973938,-0.047424316
1601138184387,618,0.21142578,-1.0576782,-0.085754395
1601138184387,619,0.21142578,-1.0576782,-0.085754395
1601138184388,620,0.29956055,-0.973938,-0.047424316
1601138184388,621,0.21142578,-1.0576782,-0.085754395
1601138184388,622,0.24267578,-0.944397,1.8310547E-4
1601138184388,623,0.21142578,-1.0576782,-0.085754395
1601138184388,624,0.2722168,-0.9663696,-0.04498291
1601138184388,625,0.2722168,-0.9663696,-0.04498291
1601138184388,626,0.18823242,-1.1316528,-0.089416504
1601138184389,627,0.2722168,-0.9663696,-0.04498291
1601138184389,628,0.18823242,-1.1316528,-0.089416504
1601138184389,629,0.18823242,-1.1316528,-0.089416504
1601138184389,630,0.1105957,-1.2886353,-0.17437744
1601138184389,631,0.24023438,-0.98321533,-0.07330322
1601138184389,632,0.21142578,-1.0576782,-0.085754395
1601138184389,633,0.18823242,-1.1316528,-0.089416504
1601138184392,634,0.18823242,-1.1316528,-0.089416504
1601138184395,635,0.1105957,-1.2886353,-0.17437744
1601138184395,636,0.29956055,-0.973938,-0.047424316
1601138184395,637,0.29956055,-0.973938,-0.047424316
1601138184397,638,-0.09716797,-1.18927,-0.14361572
1601138184410,639,0.2722168,-0.9663696,-0.04498291
1601138184411,640,0.1105957,-1.2886353,-0.17437744
1601138184411,641,0.21142578,-1.0576782,-0.085754395
1601138184411,642,0.1105957,-1.2886353,-0.17437744
1601138184411,643,0.21142578,-1.0576782,-0.085754395
1601138184411,644,-0.09716797,-1.18927,-0.14361572
1601138184411,645,0.1105957,-1.2886353,-0.17437744
1601138184411,646,0.18823242,-1.1316528,-0.089416504
1601138184411,647,0.21142578,-1.0576782,-0.085754395
1601138184411,648,-0.18774414,-1.0054321,-0.097961426
1601138184412,649,-0.09716797,-1.18927,-0.14361572
1601138184412,650,-0.118896484,-0.9607544,-0.057678223
1601138184412,651,-0.18774414,-1.0054321,-0.097961426
1601138184412,652,-0.18774414,-1.0054321,-0.097961426
1601138184412,653,-0.09716797,-1.18927,-0.14361572
1601138184412,654,0.2722168,-0.9663696,-0.04498291
1601138184412,655,-0.118896484,-0.9607544,-0.057678223
1601138184412,656,0.18823242,-1.1316528,-0.089416504
1601138184413,657,0.18823242,-1.1316528,-0.089416504
1601138184418,658,0.18823242,-1.1316528,-0.089416504
1601138184418,659,0.1105957,-1.2886353,-0.17437744
1601138184439,660,0.21142578,-1.0576782,-0.085754395
1601138184440,661,-0.09716797,-1.18927,-0.14361572
1601138184440,662,0.1105957,-1.2886353,-0.17437744
1601138184440,663,-0.18774414,-1.0054321,-0.097961426
1601138184441,664,0.1105957,-1.2886353,-0.17437744
1601138184441,665,-0.09716797,-1.18927,-0.14361572
1601138184441,666,-0.118896484,-0.9607544,-0.057678223
1601138184441,667,-0.1472168,-0.89019775,-0.02130127
1601138184442,668,0.1105957,-1.2886353,-0.17437744
1601138184442,669,-0.18774414,-1.0054321,-0.097961426
1601138184442,670,-0.1472168,-0.89019775,-0.02130127
1601138184442,671,-0.118896484,-0.9607544,-0.057678223
1601138184442,672,-0.15014648,-0.8858032,0.041931152
1601138184442,673,-0.09716797,-1.18927,-0.14361572
1601138184442,674,-0.118896484,-0.9607544,-0.057678223
1601138184443,675,-0.1472168,-0.89019775,-0.02130127
1601138184443,676,-0.09716797,-1.18927,-0.14361572
1601138184443,677,-0.1472168,-0.89019775,-0.02130127
1601138184443,678,-0.15014648,-0.8858032,0.041931152
1601138184443,679,-0.18774414,-1.0054321,-0.097961426
1601138184443,680,-0.068847656,-0.90631104,0.020446777
1601138184443,681,-0.118896484,-0.9607544,-0.057678223
1601138184443,682,-0.1472168,-0.89019775,-0.02130127
1601138184444,683,-0.15014648,-0.8858032,0.041931152
1601138184444,684,-0.15014648,-0.8858032,0.041931152
1601138184444,685,-0.068847656,-0.90631104,0.020446777
1601138184444,686,-0.068847656,-0.90631104,0.020446777
1601138184444,687,-0.18774414,-1.0054321,-0.097961426
1601138184444,688,-0.103027344,-1.0230103,0.08074951
1601138184451,689,-0.09814453,-0.97320557,0.11639404
1601138184451,690,-0.18774414,-1.0054321,-0.097961426
1601138184451,691,-0.13500977,-0.9873657,0.1515503
1601138184452,692,-0.15014648,-0.8858032,0.041931152
1601138184452,693,-0.106933594,-1.0007935,0.10882568
1601138184452,694,-0.118896484,-0.9607544,-0.057678223
1601138184452,695,0.18823242,-1.1316528,-0.089416504
1601138184452,696,-0.1472168,-0.89019775,-0.02130127
1601138184452,697,-0.09716797,-1.18927,-0.14361572
1601138184452,698,-0.15014648,-0.8858032,0.041931152
1601138184458,699,0.1105957,-1.2886353,-0.17437744
1601138184458,700,-0.068847656,-0.90631104,0.020446777
1601138184458,701,-0.103027344,-1.0230103,0.08074951
1601138184458,702,-0.103027344,-1.0230103,0.08074951
1601138184458,703,-0.019042969,-1.0464478,0.07635498
1601138184458,704,-0.118896484,-0.9607544,-0.057678223
1601138184459,705,-0.09814453,-0.97320557,0.11639404
1601138184459,706,-0.1472168,-0.89019775,-0.02130127
1601138184459,707,-0.18774414,-1.0054321,-0.097961426
1601138184469,708,-0.09716797,-1.18927,-0.14361572
1601138184471,709,-0.103027344,-1.0230103,0.08074951
1601138184471,710,-0.068847656,-0.90631104,0.020446777
1601138184471,711,-0.09814453,-0.97320557,0.11639404
1601138184471,712,-0.13500977,-0.9873657,0.1515503
1601138184471,713,-0.106933594,-1.0007935,0.10882568
1601138184471,714,-0.13500977,-0.9873657,0.1515503
1601138184471,715,-0.15014648,-0.8858032,0.041931152
1601138184472,716,-0.056640625,-1.1609497,-0.04937744
1601138184472,717,-0.118896484,-0.9607544,-0.057678223
1601138184497,718,-0.18774414,-1.0054321,-0.097961426
1601138184497,719,-0.09814453,-0.97320557,0.11639404
1601138184498,720,-0.1472168,-0.89019775,-0.02130127
1601138184499,721,-0.103027344,-1.0230103,0.08074951
1601138184499,722,-0.118896484,-0.9607544,-0.057678223
1601138184499,723,-0.068847656,-0.90631104,0.020446777
1601138184500,724,-0.106933594,-1.0007935,0.10882568
1601138184500,725,-0.068847656,-0.90631104,0.020446777
1601138184500,726,-0.019042969,-1.0464478,0.07635498
1601138184500,727,-0.103027344,-1.0230103,0.08074951
1601138184500,728,-0.1472168,-0.89019775,-0.02130127
1601138184500,729,-0.019042969,-1.0464478,0.07635498
1601138184500,730,-0.1472168,-0.89019775,-0.02130127
1601138184500,731,-0.09814453,-0.97320557,0.11639404
1601138184500,732,-0.15014648,-0.8858032,0.041931152
1601138184500,733,-0.13500977,-0.9873657,0.1515503
1601138184500,734,-0.13500977,-0.9873657,0.1515503
1601138184501,735,-0.068847656,-0.90631104,0.020446777
1601138184501,736,-0.09814453,-0.97320557,0.11639404
1601138184501,737,-0.056640625,-1.1609497,-0.04937744
1601138184501,738,-0.15014648,-0.8858032,0.041931152
1601138184502,739,-0.13500977,-0.9873657,0.1515503
1601138184502,740,-0.103027344,-1.0230103,0.08074951
1601138184502,741,-0.068847656,-0.90631104,0.020446777
1601138184502,742,-0.15014648,-0.8858032,0.041931152
1601138184503,743,0.039794922,-1.2739868,-0.09429932
1601138184503,744,-0.106933594,-1.0007935,0.10882568
1601138184503,745,-0.106933594,-1.0007935,0.10882568
1601138184503,746,0.052734375,-1.1587524,-0.12261963
1601138184503,747,-0.019042969,-1.0464478,0.07635498
1601138184503,748,-0.056640625,-1.1609497,-0.04937744
1601138184503,749,0.111083984,-1.0293579,-0.25738525
1601138184503,750,-0.056640625,-1.1609497,-0.04937744
1601138184512,751,-0.103027344,-1.0230103,0.08074951
1601138184512,752,-0.106933594,-1.0007935,0.10882568
1601138184512,753,-0.103027344,-1.0230103,0.08074951
1601138184512,754,-0.09814453,-0.97320557,0.11639404
1601138184512,755,-0.068847656,-0.90631104,0.020446777
1601138184512,756,-0.09814453,-0.97320557,0.11639404
1601138184513,757,-0.019042969,-1.0464478,0.07635498
1601138184513,758,-0.13500977,-0.9873657,0.1515503
1601138184513,759,0.12011719,-0.98150635,-0.20855713
1601138184513,760,-0.09814453,-0.97320557,0.11639404
1601138184513,761,0.039794922,-1.2739868,-0.09429932
1601138184513,762,-0.13500977,-0.9873657,0.1515503
1601138184513,763,-0.13500977,-0.9873657,0.1515503
1601138184514,764,0.039794922,-1.2739868,-0.09429932
1601138184514,765,0.052734375,-1.1587524,-0.12261963
1601138184514,766,-0.019042969,-1.0464478,0.07635498
1601138184514,767,-0.056640625,-1.1609497,-0.04937744
1601138184514,768,-0.106933594,-1.0007935,0.10882568
1601138184520,769,-0.106933594,-1.0007935,0.10882568
1601138184521,770,-0.103027344,-1.0230103,0.08074951
1601138184521,771,0.123535156,-0.8904419,-0.16436768
1601138184521,772,0.052734375,-1.1587524,-0.12261963
1601138184521,773,-0.106933594,-1.0007935,0.10882568
1601138184521,774,0.19384766,-0.88238525,-0.13604736
1601138184521,775,0.039794922,-1.2739868,-0.09429932
1601138184521,776,0.111083984,-1.0293579,-0.25738525
1601138184522,777,0.21386719,-0.848938,-0.11090088
1601138184523,778,-0.056640625,-1.1609497,-0.04937744
1601138184523,779,0.039794922,-1.2739868,-0.09429932
1601138184523,780,-0.09814453,-0.97320557,0.11639404
1601138184524,781,0.052734375,-1.1587524,-0.12261963
1601138184526,782,-0.019042969,-1.0464478,0.07635498
1601138184527,783,0.2434082,-0.9324341,-0.07696533
1601138184535,784,-0.019042969,-1.0464478,0.07635498
1601138184535,785,-0.056640625,-1.1609497,-0.04937744
1601138184535,786,0.052734375,-1.1587524,-0.12261963
1601138184536,787,0.111083984,-1.0293579,-0.25738525
1601138184536,788,-0.13500977,-0.9873657,0.1515503
1601138184536,789,0.039794922,-1.2739868,-0.09429932
1601138184536,790,-0.019042969,-1.0464478,0.07635498
1601138184536,791,0.12011719,-0.98150635,-0.20855713
1601138184536,792,0.26611328,-0.972229,-0.058410645
1601138184537,793,0.039794922,-1.2739868,-0.09429932
1601138184539,794,0.052734375,-1.1587524,-0.12261963
1601138184540,795,0.111083984,-1.0293579,-0.25738525
1601138184542,796,0.111083984,-1.0293579,-0.25738525
1601138184544,797,-0.056640625,-1.1609497,-0.04937744
1601138184544,798,0.33618164,-0.9873657,-0.112854004
1601138184544,799,-0.106933594,-1.0007935,0.10882568
1601138184557,800,0.039794922,-1.2739868,-0.09429932
1601138184558,801,-0.019042969,-1.0464478,0.07635498
1601138184558,802,0.12011719,-0.98150635,-0.20855713
1601138184558,803,0.052734375,-1.1587524,-0.12261963
1601138184558,804,-0.056640625,-1.1609497,-0.04937744
1601138184558,805,-0.056640625,-1.1609497,-0.04937744
1601138184558,806,0.25878906,-0.92388916,0.023132324
1601138184558,807,0.052734375,-1.1587524,-0.12261963
1601138184558,808,0.111083984,-1.0293579,-0.25738525
1601138184558,809,0.21020508,-0.89678955,-0.0044555664
1601138184558,810,0.123535156,-0.8904419,-0.16436768
1601138184559,811,0.123535156,-0.8904419,-0.16436768
1601138184559,812,0.111083984,-1.0293579,-0.25738525
1601138184559,813,0.12011719,-0.98150635,-0.20855713
1601138184559,814,0.039794922,-1.2739868,-0.09429932
1601138184559,815,0.12011719,-0.98150635,-0.20855713
1601138184561,816,0.111083984,-1.0293579,-0.25738525
1601138184563,817,0.19384766,-0.88238525,-0.13604736
1601138184564,818,0.19384766,-0.88238525,-0.13604736
1601138184566,819,0.12011719,-0.98150635,-0.20855713
1601138184578,820,0.123535156,-0.8904419,-0.16436768
1601138184578,821,0.21386719,-0.848938,-0.11090088
1601138184578,822,0.12011719,-0.98150635,-0.20855713
1601138184578,823,0.12011719,-0.98150635,-0.20855713
1601138184579,824,0.2434082,-0.9324341,-0.07696533
1601138184579,825,0.26611328,-0.972229,-0.058410645
1601138184579,826,0.123535156,-0.8904419,-0.16436768
1601138184579,827,0.052734375,-1.1587524,-0.12261963
1601138184616,828,0.19384766,-0.88238525,-0.13604736
1601138184616,829,0.111083984,-1.0293579,-0.25738525
1601138184616,830,0.19384766,-0.88238525,-0.13604736
1601138184617,831,0.21386719,-0.848938,-0.11090088
1601138184617,832,0.123535156,-0.8904419,-0.16436768
1601138184621,833,0.21386719,-0.848938,-0.11090088
1601138184621,834,0.12011719,-0.98150635,-0.20855713
1601138184621,835,0.33618164,-0.9873657,-0.112854004
1601138184621,836,0.123535156,-0.8904419,-0.16436768
1601138184621,837,0.25878906,-0.92388916,0.023132324
1601138184621,838,0.123535156,-0.8904419,-0.16436768
1601138184622,839,0.21020508,-0.89678955,-0.0044555664
1601138184622,840,0.19384766,-0.88238525,-0.13604736
1601138184622,841,0.19384766,-0.88238525,-0.13604736
1601138184622,842,0.2434082,-0.9324341,-0.07696533
1601138184622,843,0.19384766,-0.88238525,-0.13604736
1601138184622,844,0.123535156,-0.8904419,-0.16436768
1601138184622,845,0.039794922,-1.2739868,-0.09429932
1601138184622,846,0.2434082,-0.9324341,-0.07696533
1601138184622,847,0.26611328,-0.972229,-0.058410645
1601138184622,848,0.26611328,-0.972229,-0.058410645
1601138184623,849,0.19384766,-0.88238525,-0.13604736
1601138184623,850,0.33618164,-0.9873657,-0.112854004
1601138184623,851,0.21386719,-0.848938,-0.11090088
1601138184623,852,0.052734375,-1.1587524,-0.12261963
1601138184623,853,0.25878906,-0.92388916,0.023132324
1601138184623,854,0.21386719,-0.848938,-0.11090088
1601138184623,855,0.21386719,-0.848938,-0.11090088
1601138184623,856,0.21386719,-0.848938,-0.11090088
1601138184623,857,0.2434082,-0.9324341,-0.07696533
1601138184623,858,0.21386719,-0.848938,-0.11090088
1601138184623,859,0.2434082,-0.9324341,-0.07696533
1601138184624,860,0.111083984,-1.0293579,-0.25738525
1601138184624,861,0.26611328,-0.972229,-0.058410645
1601138184624,862,0.2434082,-0.9324341,-0.07696533
1601138184624,863,0.12011719,-0.98150635,-0.20855713
1601138184624,864,0.21020508,-0.89678955,-0.0044555664
1601138184624,865,0.2434082,-0.9324341,-0.07696533
1601138184625,866,0.2434082,-0.9324341,-0.07696533
1601138184625,867,0.26611328,-0.972229,-0.058410645
1601138184631,868,0.33618164,-0.9873657,-0.112854004
1601138184631,869,0.33618164,-0.9873657,-0.112854004
1601138184631,870,0.26611328,-0.972229,-0.058410645
1601138184631,871,0.123535156,-0.8904419,-0.16436768
1601138184631,872,0.26611328,-0.972229,-0.058410645
1601138184631,873,0.26611328,-0.972229,-0.058410645
1601138184631,874,0.33618164,-0.9873657,-0.112854004
1601138184631,875,0.25878906,-0.92388916,0.023132324
1601138184636,876,0.25878906,-0.92388916,0.023132324
1601138184636,877,0.33618164,-0.9873657,-0.112854004
1601138184636,878,0.21020508,-0.89678955,-0.0044555664
1601138184636,879,0.21020508,-0.89678955,-0.0044555664
1601138184636,880,0.33618164,-0.9873657,-0.112854004
1601138184636,881,0.25878906,-0.92388916,0.023132324
1601138184640,882,0.33618164,-0.9873657,-0.112854004
1601138184640,883,0.19384766,-0.88238525,-0.13604736
1601138184640,884,0.25878906,-0.92388916,0.023132324
1601138184640,885,0.21386719,-0.848938,-0.11090088
1601138184640,886,0.25878906,-0.92388916,0.023132324
1601138184640,887,0.21020508,-0.89678955,-0.0044555664
1601138184644,888,0.25878906,-0.92388916,0.023132324
1601138184644,889,0.21020508,-0.89678955,-0.0044555664
1601138184648,890,0.21020508,-0.89678955,-0.0044555664
1601138184649,891,0.21020508,-0.89678955,-0.0044555664
1601138184649,892,0.2434082,-0.9324341,-0.07696533
1601138184649,893,0.26611328,-0.972229,-0.058410645
1601138184649,894,0.33618164,-0.9873657,-0.112854004
1601138184650,895,0.25878906,-0.92388916,0.023132324
1601138184651,896,0.21020508,-0.89678955,-0.0044555664
1601138186909,897,0.24267578,-0.97247314,-0.02545166
1601138186909,898,0.24267578,-0.97247314,-0.02545166
1601138186909,899,0.24267578,-0.97247314,-0.02545166
1601138186909,900,0.24267578,-0.97247314,-0.02545166
1601138186909,901,0.24267578,-0.97247314,-0.02545166
1601138186909,902,0.27905273,-1.08844,-0.05987549
1601138186909,903,0.27905273,-1.08844,-0.05987549
1601138186909,904,0.24267578,-0.97247314,-0.02545166
1601138186912,905,0.24267578,-0.97247314,-0.02545166
1601138186912,906,0.27905273,-1.08844,-0.05987549
1601138186912,907,0.2705078,-1.0620728,-0.0029907227
1601138186912,908,0.27905273,-1.08844,-0.05987549
1601138186912,909,0.2705078,-1.0620728,-0.0029907227
1601138186912,910,0.24267578,-0.97247314,-0.02545166
1601138186912,911,0.2705078,-1.0620728,-0.0029907227
1601138186912,912,0.24267578,-0.97247314,-0.02545166
1601138186912,913,0.25561523,-0.9573364,-0.046936035
1601138186913,914,0.27905273,-1.08844,-0.05987549
1601138186913,915,0.27905273,-1.08844,-0.05987549
1601138186913,916,0.23706055,-0.99713135,-0.0413208
1601138186913,917,0.27905273,-1.08844,-0.05987549
1601138186913,918,0.23657227,-1.0288696,-0.004211426
1601138186913,919,0.24267578,-0.97247314,-0.02545166
1601138186913,920,0.27905273,-1.08844,-0.05987549
1601138186913,921,0.2705078,-1.0620728,-0.0029907227
1601138186913,922,0.2705078,-1.0620728,-0.0029907227
1601138186913,923,0.25561523,-0.9573364,-0.046936035
1601138186913,924,0.27905273,-1.08844,-0.05987549
1601138186913,925,0.25561523,-0.9573364,-0.046936035
1601138186913,926,0.25317383,-0.9939575,0.010437012
1601138186913,927,0.2705078,-1.0620728,-0.0029907227
1601138186913,928,0.25561523,-0.9573364,-0.046936035
1601138186913,929,0.2705078,-1.0620728,-0.0029907227
1601138186913,930,0.23706055,-0.99713135,-0.0413208
1601138186913,931,0.23657227,-1.0288696,-0.004211426
1601138186913,932,0.23706055,-0.99713135,-0.0413208
1601138186913,933,0.25317383,-0.9939575,0.010437012
1601138186914,934,0.25561523,-0.9573364,-0.046936035
1601138186914,935,0.22802734,-0.9607544,0.0014038086
1601138186914,936,0.2705078,-1.0620728,-0.0029907227
1601138186914,937,0.23706055,-0.99713135,-0.0413208
1601138186914,938,0.22802734,-0.9607544,0.0014038086
1601138186914,939,0.23706055,-0.99713135,-0.0413208
1601138186914,940,0.23657227,-1.0288696,-0.004211426
1601138186914,941,0.25561523,-0.9573364,-0.046936035
1601138186914,942,0.23657227,-1.0288696,-0.004211426
1601138186914,943,0.25317383,-0.9939575,0.010437012
1601138186914,944,0.2705078,-1.0620728,-0.0029907227
1601138186914,945,0.26708984,-0.93536377,0.0033569336
1601138186914,946,0.27905273,-1.08844,-0.05987549
1601138186914,947,0.23657227,-1.0288696,-0.004211426
1601138186914,948,0.26708984,-0.93536377,0.0033569336
1601138186914,949,0.25561523,-0.9573364,-0.046936035
1601138186915,950,0.25683594,-0.9636841,0.03704834
1601138186915,951,0.25561523,-0.9573364,-0.046936035
1601138186915,952,0.23706055,-0.99713135,-0.0413208
1601138186915,953,0.25317383,-0.9939575,0.010437012
1601138186915,954,0.25317383,-0.9939575,0.010437012
1601138186916,955,0.22802734,-0.9607544,0.0014038086
1601138186926,956,0.2705078,-1.0620728,-0.0029907227
1601138186926,957,0.23706055,-0.99713135,-0.0413208
1601138186926,958,0.25561523,-0.9573364,-0.046936035
1601138186926,959,0.25561523,-0.9573364,-0.046936035
1601138186926,960,0.23657227,-1.0288696,-0.004211426
1601138186927,961,0.25683594,-0.9636841,0.03704834
1601138186927,962,0.23706055,-0.99713135,-0.0413208
1601138186927,963,0.25976562,-1.0007935,-5.493164E-4
1601138186927,964,0.25976562,-1.0007935,-5.493164E-4
1601138186927,965,0.28076172,-1.1340942,-0.013977051
1601138186927,966,0.26708984,-0.93536377,0.0033569336
1601138186927,967,0.19165039,-1.1345825,-0.03717041
1601138186927,968,0.23706055,-0.99713135,-0.0413208
1601138186927,969,0.23706055,-0.99713135,-0.0413208
1601138186927,970,0.22802734,-0.9607544,0.0014038086
1601138186927,971,0.25317383,-0.9939575,0.010437012
1601138186927,972,0.23657227,-1.0288696,-0.004211426
1601138186928,973,0.26708984,-0.93536377,0.0033569336
1601138186928,974,0.22802734,-0.9607544,0.0014038086
1601138186928,975,0.23657227,-1.0288696,-0.004211426
1601138186928,976,0.22802734,-0.9607544,0.0014038086
1601138186928,977,0.25317383,-0.9939575,0.010437012
1601138186928,978,0.25683594,-0.9636841,0.03704834
1601138186928,979,0.23657227,-1.0288696,-0.004211426
1601138186928,980,0.28076172,-1.1340942,-0.013977051
1601138186928,981,0.23657227,-1.0288696,-0.004211426
1601138186928,982,0.25317383,-0.9939575,0.010437012
1601138186928,983,0.25683594,-0.9636841,0.03704834
1601138186928,984,0.25317383,-0.9939575,0.010437012
1601138186929,985,0.046875,-1.2254028,-0.0869751
1601138186929,986,0.22802734,-0.9607544,0.0014038086
1601138186929,987,0.26708984,-0.93536377,0.0033569336
1601138186929,988,-0.045654297,-0.989563,-0.1609497
1601138186930,989,0.19165039,-1.1345825,-0.03717041
1601138186930,990,0.25976562,-1.0007935,-5.493164E-4
1601138186931,991,0.25317383,-0.9939575,0.010437012
1601138186931,992,-0.19116211,-1.000061,-0.12701416
1601138186931,993,0.26708984,-0.93536377,0.0033569336
1601138186931,994,0.22802734,-0.9607544,0.0014038086
1601138186931,995,0.22802734,-0.9607544,0.0014038086
1601138186931,996,0.26708984,-0.93536377,0.0033569336
1601138186931,997,0.25976562,-1.0007935,-5.493164E-4
1601138186933,998,0.22802734,-0.9607544,0.0014038086
1601138186933,999,0.26708984,-0.93536377,0.0033569336
1601138186933,1000,0.28076172,-1.1340942,-0.013977051
1601138186933,1001,0.26708984,-0.93536377,0.0033569336
1601138186934,1002,0.25683594,-0.9636841,0.03704834
1601138186934,1003,0.25683594,-0.9636841,0.03704834
1601138186934,1004,0.25683594,-0.9636841,0.03704834
1601138186934,1005,0.25976562,-1.0007935,-5.493164E-4
1601138186934,1006,0.28076172,-1.1340942,-0.013977051
1601138186934,1007,-0.16235352,-1.0315552,-0.08795166
1601138186934,1008,0.25683594,-0.9636841,0.03704834
1601138186948,1009,0.26708984,-0.93536377,0.0033569336
1601138186948,1010,0.25976562,-1.0007935,-5.493164E-4
1601138186948,1011,0.046875,-1.2254028,-0.0869751
1601138186949,1012,0.25683594,-0.9636841,0.03704834
1601138186949,1013,0.25976562,-1.0007935,-5.493164E-4
1601138186949,1014,0.28076172,-1.1340942,-0.013977051
1601138186949,1015,0.28076172,-1.1340942,-0.013977051
1601138186949,1016,0.19165039,-1.1345825,-0.03717041
1601138186949,1017,0.25976562,-1.0007935,-5.493164E-4
1601138186949,1018,0.19165039,-1.1345825,-0.03717041
1601138186949,1019,0.19165039,-1.1345825,-0.03717041
1601138186949,1020,0.046875,-1.2254028,-0.0869751
1601138186949,1021,-0.045654297,-0.989563,-0.1609497
1601138186950,1022,0.25976562,-1.0007935,-5.493164E-4
1601138186950,1023,0.046875,-1.2254028,-0.0869751
1601138186950,1024,-0.08935547,-0.9602661,-0.050354004
1601138186950,1025,0.19165039,-1.1345825,-0.03717041
1601138186958,1026,0.28076172,-1.1340942,-0.013977051
1601138186958,1027,0.046875,-1.2254028,-0.0869751
1601138186958,1028,-0.045654297,-0.989563,-0.1609497
1601138186958,1029,-0.19116211,-1.000061,-0.12701416
1601138186958,1030,-0.19116211,-1.000061,-0.12701416
1601138186958,1031,0.25683594,-0.9636841,0.03704834
1601138186959,1032,0.28076172,-1.1340942,-0.013977051
1601138186959,1033,-0.16235352,-1.0315552,-0.08795166
1601138186959,1034,0.046875,-1.2254028,-0.0869751
1601138186959,1035,-0.045654297,-0.989563,-0.1609497
1601138186972,1036,-0.045654297,-0.989563,-0.1609497
1601138186973,1037,-0.045654297,-0.989563,-0.1609497
1601138186973,1038,-0.10107422,-0.9343872,-0.04425049
1601138186973,1039,-0.16235352,-1.0315552,-0.08795166
1601138186973,1040,0.25976562,-1.0007935,-5.493164E-4
1601138186973,1041,0.19165039,-1.1345825,-0.03717041
1601138186974,1042,-0.08935547,-0.9602661,-0.050354004
1601138186974,1043,0.19165039,-1.1345825,-0.03717041
1601138186974,1044,0.28076172,-1.1340942,-0.013977051
1601138186974,1045,0.046875,-1.2254028,-0.0869751
1601138186986,1046,-0.19116211,-1.000061,-0.12701416
1601138186987,1047,-0.19116211,-1.000061,-0.12701416
1601138186987,1048,-0.05078125,-0.93756104,-0.06866455
1601138186987,1049,0.28076172,-1.1340942,-0.013977051
1601138186987,1050,-0.079833984,-0.98565674,0.007507324
1601138186987,1051,-0.08935547,-0.9602661,-0.050354004
1601138186987,1052,-0.10107422,-0.9343872,-0.04425049
1601138186987,1053,0.19165039,-1.1345825,-0.03717041
1601138186987,1054,-0.10107422,-0.9343872,-0.04425049
1601138186987,1055,0.046875,-1.2254028,-0.0869751
1601138186989,1056,-0.16235352,-1.0315552,-0.08795166
1601138187000,1057,-0.099121094,-1.0032349,0.04168701
1601138187001,1058,0.19165039,-1.1345825,-0.03717041
1601138187001,1059,-0.19116211,-1.000061,-0.12701416
1601138187001,1060,-0.045654297,-0.989563,-0.1609497
1601138187001,1061,0.046875,-1.2254028,-0.0869751
1601138187001,1062,-0.045654297,-0.989563,-0.1609497
1601138187001,1063,-0.05078125,-0.93756104,-0.06866455
1601138187001,1064,-0.16235352,-1.0315552,-0.08795166
1601138187001,1065,-0.19116211,-1.000061,-0.12701416
1601138187002,1066,-0.08935547,-0.9602661,-0.050354004
1601138187013,1067,-0.043701172,-1.0303345,0.019226074
1601138187014,1068,-0.16235352,-1.0315552,-0.08795166
1601138187014,1069,0.046875,-1.2254028,-0.0869751
1601138187014,1070,-0.19116211,-1.000061,-0.12701416
1601138187014,1071,-0.08935547,-0.9602661,-0.050354004
1601138187014,1072,-0.045654297,-0.989563,-0.1609497
1601138187014,1073,-0.05078125,-0.93756104,-0.06866455
1601138187014,1074,-0.08935547,-0.9602661,-0.050354004
1601138187014,1075,-0.16235352,-1.0315552,-0.08795166
1601138187014,1076,-0.10107422,-0.9343872,-0.04425049
1601138187014,1077,-0.079833984,-0.98565674,0.007507324
1601138187014,1078,-0.06323242,-0.9939575,0.014831543
1601138187014,1079,-0.08935547,-0.9602661,-0.050354004
1601138187016,1080,-0.079833984,-0.98565674,0.007507324
1601138187016,1081,-0.045654297,-0.989563,-0.1609497
1601138187016,1082,-0.16235352,-1.0315552,-0.08795166
1601138187016,1083,-0.10107422,-0.9343872,-0.04425049
1601138187016,1084,-0.099121094,-1.0032349,0.04168701
1601138187016,1085,-0.19116211,-1.000061,-0.12701416
1601138187016,1086,-0.05078125,-0.93756104,-0.06866455
1601138187016,1087,0.012207031,-1.0244751,-0.041809082
1601138187022,1088,-0.10107422,-0.9343872,-0.04425049
1601138187023,1089,-0.043701172,-1.0303345,0.019226074
1601138187023,1090,-0.10107422,-0.9343872,-0.04425049
1601138187023,1091,-0.099121094,-1.0032349,0.04168701
1601138187023,1092,-0.19116211,-1.000061,-0.12701416
1601138187023,1093,-0.16235352,-1.0315552,-0.08795166
1601138187023,1094,-0.08935547,-0.9602661,-0.050354004
1601138187023,1095,-0.021972656,-1.2805786,-0.07867432
1601138187024,1096,-0.079833984,-0.98565674,0.007507324
1601138187024,1097,-0.05078125,-0.93756104,-0.06866455
1601138187024,1098,-0.06323242,-0.9939575,0.014831543
1601138187024,1099,-0.099121094,-1.0032349,0.04168701
1601138187024,1100,-0.05078125,-0.93756104,-0.06866455
1601138187024,1101,-0.107177734,-1.3477173,-0.077941895
1601138187024,1102,-0.043701172,-1.0303345,0.019226074
1601138187032,1103,-0.08935547,-0.9602661,-0.050354004
1601138187032,1104,-0.10107422,-0.9343872,-0.04425049
1601138187032,1105,-0.05078125,-0.93756104,-0.06866455
1601138187032,1106,-0.05078125,-0.93756104,-0.06866455
1601138187032,1107,-0.043701172,-1.0303345,0.019226074
1601138187033,1108,-0.16235352,-1.0315552,-0.08795166
1601138187033,1109,0.012207031,-1.0244751,-0.041809082
1601138187033,1110,0.071777344,-1.0205688,-0.17828369
1601138187034,1111,-0.079833984,-0.98565674,0.007507324
1601138187034,1112,-0.021972656,-1.2805786,-0.07867432
1601138187034,1113,0.064453125,-0.925354,-0.2991333
1601138187034,1114,-0.10107422,-0.9343872,-0.04425049
1601138187035,1115,0.11230469,-0.91607666,-0.15460205
1601138187035,1116,-0.107177734,-1.3477173,-0.077941895
1601138187035,1117,0.13232422,-0.92071533,-0.14508057
1601138187035,1118,-0.06323242,-0.9939575,0.014831543
1601138187035,1119,0.16137695,-0.9324341,-0.08892822
1601138187035,1120,-0.079833984,-0.98565674,0.007507324
1601138187047,1121,-0.05078125,-0.93756104,-0.06866455
1601138187047,1122,-0.099121094,-1.0032349,0.04168701
1601138187047,1123,-0.079833984,-0.98565674,0.007507324
1601138187047,1124,-0.08935547,-0.9602661,-0.050354004
1601138187047,1125,0.071777344,-1.0205688,-0.17828369
1601138187047,1126,0.012207031,-1.0244751,-0.041809082
1601138187047,1127,-0.06323242,-0.9939575,0.014831543
1601138187047,1128,-0.079833984,-0.98565674,0.007507324
1601138187047,1129,0.064453125,-0.925354,-0.2991333
1601138187047,1130,0.012207031,-1.0244751,-0.041809082
1601138187047,1131,-0.043701172,-1.0303345,0.019226074
1601138187047,1132,-0.079833984,-0.98565674,0.007507324
1601138187047,1133,-0.06323242,-0.9939575,0.014831543
1601138187048,1134,-0.021972656,-1.2805786,-0.07867432
1601138187048,1135,-0.10107422,-0.9343872,-0.04425049
1601138187048,1136,-0.099121094,-1.0032349,0.04168701
1601138187048,1137,-0.05078125,-0.93756104,-0.06866455
1601138187048,1138,-0.099121094,-1.0032349,0.04168701
1601138187048,1139,0.11230469,-0.91607666,-0.15460205
1601138187048,1140,-0.021972656,-1.2805786,-0.07867432
1601138187048,1141,-0.099121094,-1.0032349,0.04168701
1601138187048,1142,-0.099121094,-1.0032349,0.04168701
1601138187049,1143,-0.107177734,-1.3477173,-0.077941895
1601138187049,1144,0.012207031,-1.0244751,-0.041809082
1601138187049,1145,-0.043701172,-1.0303345,0.019226074
1601138187057,1146,-0.06323242,-0.9939575,0.014831543
1601138187058,1147,-0.043701172,-1.0303345,0.019226074
1601138187058,1148,0.012207031,-1.0244751,-0.041809082
1601138187058,1149,0.13232422,-0.92071533,-0.14508057
1601138187058,1150,-0.043701172,-1.0303345,0.019226074
1601138187058,1151,-0.021972656,-1.2805786,-0.07867432
1601138187058,1152,0.071777344,-1.0205688,-0.17828369
1601138187058,1153,-0.079833984,-0.98565674,0.007507324
1601138187058,1154,-0.043701172,-1.0303345,0.019226074
1601138187058,1155,-0.099121094,-1.0032349,0.04168701
1601138187058,1156,-0.107177734,-1.3477173,-0.077941895
1601138187058,1157,-0.021972656,-1.2805786,-0.07867432
1601138187058,1158,-0.107177734,-1.3477173,-0.077941895
1601138187058,1159,0.16137695,-0.9324341,-0.08892822
1601138187058,1160,-0.06323242,-0.9939575,0.014831543
1601138187058,1161,0.064453125,-0.925354,-0.2991333
1601138187059,1162,0.11230469,-0.91607666,-0.15460205
1601138187061,1163,-0.06323242,-0.9939575,0.014831543
1601138187070,1164,-0.107177734,-1.3477173,-0.077941895
1601138187071,1165,0.071777344,-1.0205688,-0.17828369
1601138187071,1166,0.064453125,-0.925354,-0.2991333
1601138187071,1167,0.012207031,-1.0244751,-0.041809082
1601138187071,1168,0.13232422,-0.92071533,-0.14508057
1601138187073,1169,-0.043701172,-1.0303345,0.019226074
1601138187073,1170,-0.06323242,-0.9939575,0.014831543
1601138187073,1171,0.071777344,-1.0205688,-0.17828369
1601138187074,1172,0.012207031,-1.0244751,-0.041809082
1601138187074,1173,0.071777344,-1.0205688,-0.17828369
1601138187074,1174,-0.06323242,-0.9939575,0.014831543
1601138187088,1175,-0.021972656,-1.2805786,-0.07867432
1601138187088,1176,0.012207031,-1.0244751,-0.041809082
1601138187088,1177,0.064453125,-0.925354,-0.2991333
1601138187088,1178,0.11230469,-0.91607666,-0.15460205
1601138187088,1179,-0.021972656,-1.2805786,-0.07867432
1601138187089,1180,-0.021972656,-1.2805786,-0.07867432
1601138187089,1181,0.13232422,-0.92071533,-0.14508057
1601138187089,1182,0.012207031,-1.0244751,-0.041809082
1601138187089,1183,0.16137695,-0.9324341,-0.08892822
1601138187089,1184,-0.107177734,-1.3477173,-0.077941895
1601138187089,1185,-0.021972656,-1.2805786,-0.07867432
1601138187089,1186,0.064453125,-0.925354,-0.2991333
1601138187089,1187,0.071777344,-1.0205688,-0.17828369
1601138187089,1188,0.16137695,-0.9324341,-0.08892822
1601138187089,1189,-0.107177734,-1.3477173,-0.077941895
1601138187090,1190,-0.107177734,-1.3477173,-0.077941895
1601138187093,1191,-0.107177734,-1.3477173,-0.077941895
1601138187093,1192,0.064453125,-0.925354,-0.2991333
1601138187093,1193,0.11230469,-0.91607666,-0.15460205
1601138187093,1194,0.071777344,-1.0205688,-0.17828369
1601138187093,1195,0.11230469,-0.91607666,-0.15460205
1601138187093,1196,0.071777344,-1.0205688,-0.17828369
1601138187093,1197,0.071777344,-1.0205688,-0.17828369
1601138187102,1198,0.064453125,-0.925354,-0.2991333
1601138187103,1199,0.064453125,-0.925354,-0.2991333
1601138187104,1200,0.064453125,-0.925354,-0.2991333
1601138187104,1201,0.13232422,-0.92071533,-0.14508057
1601138187106,1202,0.11230469,-0.91607666,-0.15460205
1601138187106,1203,0.11230469,-0.91607666,-0.15460205
1601138187106,1204,0.11230469,-0.91607666,-0.15460205
1601138187106,1205,0.13232422,-0.92071533,-0.14508057
1601138187106,1206,0.11230469,-0.91607666,-0.15460205
1601138187106,1207,0.16137695,-0.9324341,-0.08892822
1601138187107,1208,0.13232422,-0.92071533,-0.14508057
1601138187107,1209,0.16137695,-0.9324341,-0.08892822
1601138187107,1210,0.13232422,-0.92071533,-0.14508057
1601138187107,1211,0.13232422,-0.92071533,-0.14508057
1601138187107,1212,0.16137695,-0.9324341,-0.08892822
1601138187107,1213,0.13232422,-0.92071533,-0.14508057
1601138187107,1214,0.16137695,-0.9324341,-0.08892822
1601138187108,1215,0.16137695,-0.9324341,-0.08892822
1601138187110,1216,0.16137695,-0.9324341,-0.08892822
1601138189411,1217,0.18969727,-0.9277954,-0.07745361
1601138189419,1218,0.24902344,-0.9456177,-0.066467285
1601138189420,1219,0.18969727,-0.9277954,-0.07745361
1601138189420,1220,0.18969727,-0.9277954,-0.07745361
1601138189420,1221,0.18969727,-0.9277954,-0.07745361
1601138189421,1222,0.18969727,-0.9277954,-0.07745361
1601138189434,1223,0.27392578,-0.9619751,-0.059143066
1601138189434,1224,0.24902344,-0.9456177,-0.066467285
1601138189434,1225,0.24902344,-0.9456177,-0.066467285
1601138189434,1226,0.18969727,-0.9277954,-0.07745361
1601138189434,1227,0.18969727,-0.9277954,-0.07745361
1601138189434,1228,0.27392578,-0.9619751,-0.059143066
1601138189435,1229,0.18969727,-0.9277954,-0.07745361
1601138189435,1230,0.18969727,-0.9277954,-0.07745361
1601138189436,1231,0.24902344,-0.9456177,-0.066467285
1601138189436,1232,0.24902344,-0.9456177,-0.066467285
1601138189436,1233,0.27172852,-0.9541626,-0.022766113
1601138189437,1234,0.27392578,-0.9619751,-0.059143066
1601138189437,1235,0.27172852,-0.9541626,-0.022766113
1601138189437,1236,0.24902344,-0.9456177,-0.066467285
1601138189438,1237,0.24902344,-0.9456177,-0.066467285
1601138189438,1238,0.26342773,-0.9585571,-0.015197754
1601138189438,1239,0.18969727,-0.9277954,-0.07745361
1601138189438,1240,0.27392578,-0.9619751,-0.059143066
1601138189445,1241,0.27172852,-0.9541626,-0.022766113
1601138189445,1242,0.24902344,-0.9456177,-0.066467285
1601138189445,1243,0.27392578,-0.9619751,-0.059143066
1601138189446,1244,0.27392578,-0.9619751,-0.059143066
1601138189446,1245,0.24902344,-0.9456177,-0.066467285
1601138189446,1246,0.27392578,-0.9619751,-0.059143066
1601138189446,1247,0.26342773,-0.9585571,-0.015197754
1601138189446,1248,0.26416016,-0.97369385,-0.055725098
1601138189446,1249,0.27392578,-0.9619751,-0.059143066
1601138189446,1250,0.27172852,-0.9541626,-0.022766113
1601138189446,1251,0.26416016,-0.97369385,-0.055725098
1601138189446,1252,0.27392578,-0.9619751,-0.059143066
1601138189446,1253,0.27172852,-0.9541626,-0.022766113
1601138189447,1254,0.26342773,-0.9585571,-0.015197754
1601138189456,1255,0.27172852,-0.9541626,-0.022766113
1601138189456,1256,0.20507812,-1.0230103,0.019226074
1601138189457,1257,0.26342773,-0.9585571,-0.015197754
1601138189457,1258,0.26342773,-0.9585571,-0.015197754
1601138189457,1259,0.26416016,-0.97369385,-0.055725098
1601138189457,1260,0.1784668,-1.000061,-0.04107666
1601138189457,1261,0.26342773,-0.9585571,-0.015197754
1601138189458,1262,0.20507812,-1.0230103,0.019226074
1601138189458,1263,0.27172852,-0.9541626,-0.022766113
1601138189458,1264,0.26416016,-0.97369385,-0.055725098
1601138189458,1265,0.20507812,-1.0230103,0.019226074
1601138189458,1266,0.24902344,-0.9456177,-0.066467285
1601138189458,1267,0.1784668,-1.000061,-0.04107666
1601138189458,1268,0.26342773,-0.9585571,-0.015197754
1601138189458,1269,0.1784668,-1.000061,-0.04107666
1601138189458,1270,0.26416016,-0.97369385,-0.055725098
1601138189473,1271,0.26416016,-0.97369385,-0.055725098
1601138189473,1272,0.20507812,-1.0230103,0.019226074
1601138189474,1273,0.27172852,-0.9541626,-0.022766113
1601138189474,1274,0.27172852,-0.9541626,-0.022766113
1601138189474,1275,0.17041016,-1.1843872,-0.09454346
1601138189474,1276,0.27392578,-0.9619751,-0.059143066
1601138189474,1277,0.26342773,-0.9585571,-0.015197754
1601138189474,1278,0.17041016,-1.1843872,-0.09454346
1601138189474,1279,0.26416016,-0.97369385,-0.055725098
1601138189474,1280,0.20507812,-1.0230103,0.019226074
1601138189474,1281,0.0847168,-1.2026978,-0.097961426
1601138189477,1282,0.26342773,-0.9585571,-0.015197754
1601138189478,1283,0.27172852,-0.9541626,-0.022766113
1601138189486,1284,0.26416016,-0.97369385,-0.055725098
1601138189486,1285,0.0847168,-1.2026978,-0.097961426
1601138189487,1286,0.1784668,-1.000061,-0.04107666
1601138189487,1287,0.20507812,-1.0230103,0.019226074
1601138189487,1288,-0.07714844,-1.1902466,-0.18707275
1601138189487,1289,0.20507812,-1.0230103,0.019226074
1601138189488,1290,0.1784668,-1.000061,-0.04107666
1601138189488,1291,0.26416016,-0.97369385,-0.055725098
1601138189488,1292,0.17041016,-1.1843872,-0.09454346
1601138189488,1293,0.26342773,-0.9585571,-0.015197754
1601138189488,1294,0.0847168,-1.2026978,-0.097961426
1601138189488,1295,0.20507812,-1.0230103,0.019226074
1601138189488,1296,0.17041016,-1.1843872,-0.09454346
1601138189493,1297,0.1784668,-1.000061,-0.04107666
1601138189493,1298,0.1784668,-1.000061,-0.04107666
1601138189493,1299,-0.07714844,-1.1902466,-0.18707275
1601138189493,1300,0.17041016,-1.1843872,-0.09454346
1601138189493,1301,-0.07714844,-1.1902466,-0.18707275
1601138189493,1302,-0.17919922,-0.97979736,-0.109436035
1601138189494,1303,0.1784668,-1.000061,-0.04107666
1601138189494,1304,-0.17919922,-0.97979736,-0.109436035
1601138189494,1305,-0.14575195,-0.9451294,-0.12042236
1601138189514,1306,0.17041016,-1.1843872,-0.09454346
1601138189514,1307,0.17041016,-1.1843872,-0.09454346
1601138189514,1308,0.26416016,-0.97369385,-0.055725098
1601138189515,1309,0.0847168,-1.2026978,-0.097961426
1601138189515,1310,0.20507812,-1.0230103,0.019226074
1601138189515,1311,0.20507812,-1.0230103,0.019226074
1601138189517,1312,0.0847168,-1.2026978,-0.097961426
1601138189517,1313,0.0847168,-1.2026978,-0.097961426
1601138189517,1314,0.0847168,-1.2026978,-0.097961426
1601138189517,1315,-0.13867188,-0.9783325,-0.093811035
1601138189517,1316,-0.17919922,-0.97979736,-0.109436035
1601138189517,1317,-0.07714844,-1.1902466,-0.18707275
1601138189517,1318,-0.1796875,-0.97198486,-0.054748535
1601138189517,1319,0.1784668,-1.000061,-0.04107666
1601138189518,1320,0.1784668,-1.000061,-0.04107666
1601138189518,1321,0.17041016,-1.1843872,-0.09454346
1601138189518,1322,0.17041016,-1.1843872,-0.09454346
1601138189527,1323,-0.07714844,-1.1902466,-0.18707275
1601138189528,1324,-0.14575195,-0.9451294,-0.12042236
1601138189528,1325,-0.07714844,-1.1902466,-0.18707275
1601138189528,1326,-0.14575195,-0.9451294,-0.12042236
1601138189528,1327,-0.17919922,-0.97979736,-0.109436035
1601138189528,1328,0.17041016,-1.1843872,-0.09454346
1601138189528,1329,-0.21118164,-0.9854126,-0.074523926
1601138189528,1330,-0.07714844,-1.1902466,-0.18707275
1601138189528,1331,0.0847168,-1.2026978,-0.097961426
1601138189528,1332,-0.17919922,-0.97979736,-0.109436035
1601138189529,1333,-0.14575195,-0.9451294,-0.12042236
1601138189539,1334,-0.13867188,-0.9783325,-0.093811035
1601138189539,1335,-0.17919922,-0.97979736,-0.109436035
1601138189539,1336,-0.17919922,-0.97979736,-0.109436035
1601138189539,1337,-0.1796875,-0.97198486,-0.054748535
1601138189539,1338,0.0847168,-1.2026978,-0.097961426
1601138189540,1339,-0.13867188,-0.9783325,-0.093811035
1601138189540,1340,0.0847168,-1.2026978,-0.097961426
1601138189540,1341,-0.21118164,-0.9854126,-0.074523926
1601138189540,1342,-0.14575195,-0.9451294,-0.12042236
1601138189540,1343,-0.07714844,-1.1902466,-0.18707275
1601138189540,1344,-0.13867188,-0.9783325,-0.093811035
1601138189540,1345,-0.14575195,-0.9451294,-0.12042236
1601138189543,1346,-0.087402344,-1.0105591,-0.081604004
1601138189543,1347,-0.07714844,-1.1902466,-0.18707275
1601138189543,1348,-0.13867188,-0.9783325,-0.093811035
1601138189543,1349,-0.1796875,-0.97198486,-0.054748535
1601138189543,1350,-0.08862305,-1.0132446,0.011413574
1601138189543,1351,-0.087402344,-1.0105591,-0.081604004
1601138189543,1352,-0.21118164,-0.9854126,-0.074523926
1601138189544,1353,-0.17919922,-0.97979736,-0.109436035
1601138189544,1354,-0.13867188,-0.9783325,-0.093811035
1601138189544,1355,-0.17919922,-0.97979736,-0.109436035
1601138189545,1356,-0.07714844,-1.1902466,-0.18707275
1601138189550,1357,-0.1796875,-0.97198486,-0.054748535
1601138189551,1358,-0.087402344,-1.0105591,-0.081604004
1601138189555,1359,-0.08862305,-1.0132446,0.011413574
1601138189555,1360,-0.1796875,-0.97198486,-0.054748535
1601138189556,1361,-0.115722656,-0.99591064,0.019714355
1601138189556,1362,-0.1796875,-0.97198486,-0.054748535
1601138189556,1363,-0.115722656,-0.99591064,0.019714355
1601138189556,1364,-0.17919922,-0.97979736,-0.109436035
1601138189557,1365,-0.08862305,-1.0132446,0.011413574
1601138189557,1366,-0.21118164,-0.9854126,-0.074523926
1601138189557,1367,-0.14575195,-0.9451294,-0.12042236
1601138189557,1368,-0.14575195,-0.9451294,-0.12042236
1601138189557,1369,-0.13867188,-0.9783325,-0.093811035
1601138189557,1370,-0.21118164,-0.9854126,-0.074523926
1601138189564,1371,-0.087402344,-1.0105591,-0.081604004
1601138189565,1372,-0.14575195,-0.9451294,-0.12042236
1601138189565,1373,-0.08862305,-1.0132446,0.011413574
1601138189565,1374,-0.087402344,-1.0105591,-0.081604004
1601138189565,1375,-0.13867188,-0.9783325,-0.093811035
1601138189565,1376,-0.115722656,-0.99591064,0.019714355
1601138189565,1377,-0.13867188,-0.9783325,-0.093811035
1601138189565,1378,-0.1796875,-0.97198486,-0.054748535
1601138189565,1379,-0.1796875,-0.97198486,-0.054748535
1601138189565,1380,-0.21118164,-0.9854126,-0.074523926
1601138189565,1381,-0.21118164,-0.9854126,-0.074523926
1601138189565,1382,-0.21118164,-0.9854126,-0.074523926
1601138189566,1383,-0.10131836,-0.9854126,0.043884277
1601138189566,1384,-0.10131836,-0.9854126,0.043884277
1601138189566,1385,-0.115722656,-0.99591064,0.019714355
1601138189566,1386,-0.087402344,-1.0105591,-0.081604004
1601138189566,1387,-0.1796875,-0.97198486,-0.054748535
1601138189566,1388,-0.087402344,-1.0105591,-0.081604004
1601138189567,1389,-0.087402344,-1.0105591,-0.081604004
1601138189573,1390,-0.10131836,-0.9854126,0.043884277
1601138189573,1391,-0.08862305,-1.0132446,0.011413574
1601138189573,1392,-0.14575195,-0.9451294,-0.12042236
1601138189573,1393,-0.10131836,-0.9854126,0.043884277
1601138189573,1394,-0.08862305,-1.0132446,0.011413574
1601138189573,1395,-0.0847168,-0.9741821,0.030944824
1601138189573,1396,-0.21118164,-0.9854126,-0.074523926
1601138189573,1397,-0.13867188,-0.9783325,-0.093811035
1601138189573,1398,-0.08862305,-1.0132446,0.011413574
1601138189578,1399,-0.0847168,-0.9741821,0.030944824
1601138189586,1400,-0.115722656,-0.99591064,0.019714355
1601138189586,1401,-0.0014648438,-0.9837036,0.018981934
1601138189586,1402,-0.08862305,-1.0132446,0.011413574
1601138189586,1403,-0.115722656,-0.99591064,0.019714355
1601138189586,1404,-0.0847168,-0.9741821,0.030944824
1601138189586,1405,-0.087402344,-1.0105591,-0.081604004
1601138189586,1406,-0.115722656,-0.99591064,0.019714355
1601138189587,1407,-0.1796875,-0.97198486,-0.054748535
1601138189587,1408,-0.0847168,-0.9741821,0.030944824
1601138189587,1409,-0.115722656,-0.99591064,0.019714355
1601138189587,1410,-0.0014648438,-0.9837036,0.018981934
1601138189587,1411,-0.10131836,-0.9854126,0.043884277
1601138189587,1412,0.033935547,-1.0430298,0.07537842
1601138189601,1413,-0.21118164,-0.9854126,-0.074523926
1601138189601,1414,-0.10131836,-0.9854126,0.043884277
1601138189601,1415,-0.0014648438,-0.9837036,0.018981934
1601138189601,1416,-0.10131836,-0.9854126,0.043884277
1601138189601,1417,-0.08862305,-1.0132446,0.011413574
1601138189602,1418,-0.0014648438,-0.9837036,0.018981934
1601138189602,1419,0.033935547,-1.0430298,0.07537842
1601138189602,1420,-0.0847168,-0.9741821,0.030944824
1601138189602,1421,-0.10131836,-0.9854126,0.043884277
1601138189602,1422,-0.0043945312,-1.0613403,0.03778076
1601138189602,1423,-0.0847168,-0.9741821,0.030944824
1601138189602,1424,-0.0847168,-0.9741821,0.030944824
1601138189612,1425,-0.087402344,-1.0105591,-0.081604004
1601138189616,1426,-0.0847168,-0.9741821,0.030944824
1601138189618,1427,0.033935547,-1.0430298,0.07537842
1601138189627,1428,-0.0043945312,-1.0613403,0.03778076
1601138189627,1429,0.033935547,-1.0430298,0.07537842
1601138189627,1430,-0.0014648438,-0.9837036,0.018981934
1601138189627,1431,-0.0043945312,-1.0613403,0.03778076
1601138189627,1432,0.080322266,-1.0755005,-0.012512207
1601138189627,1433,0.080322266,-1.0755005,-0.012512207
1601138189628,1434,0.080322266,-1.0755005,-0.012512207
1601138189628,1435,-0.0014648438,-0.9837036,0.018981934
1601138189628,1436,-0.115722656,-0.99591064,0.019714355
1601138189628,1437,-0.0043945312,-1.0613403,0.03778076
1601138189628,1438,0.033935547,-1.0430298,0.07537842
1601138189628,1439,-0.0043945312,-1.0613403,0.03778076
1601138189628,1440,0.080322266,-1.0755005,-0.012512207
1601138189628,1441,0.06958008,-1.2559204,-0.15045166
1601138189628,1442,-0.08862305,-1.0132446,0.011413574
1601138189628,1443,0.033203125,-1.236145,-0.14068604
1601138189628,1444,-0.0014648438,-0.9837036,0.018981934
1601138189628,1445,0.06958008,-1.2559204,-0.15045166
1601138189628,1446,-0.115722656,-0.99591064,0.019714355
1601138189628,1447,0.033935547,-1.0430298,0.07537842
1601138189628,1448,-0.0014648438,-0.9837036,0.018981934
1601138189629,1449,-0.10131836,-0.9854126,0.043884277
1601138189629,1450,-0.0043945312,-1.0613403,0.03778076
1601138189629,1451,0.080322266,-1.0755005,-0.012512207
1601138189629,1452,0.068115234,-0.95806885,-0.2510376
1601138189629,1453,0.080322266,-1.0755005,-0.012512207
1601138189629,1454,0.06958008,-1.2559204,-0.15045166
1601138189637,1455,0.033203125,-1.236145,-0.14068604
1601138189637,1456,0.033935547,-1.0430298,0.07537842
1601138189637,1457,-0.0043945312,-1.0613403,0.03778076
1601138189638,1458,0.033935547,-1.0430298,0.07537842
1601138189638,1459,-0.0847168,-0.9741821,0.030944824
1601138189638,1460,-0.0043945312,-1.0613403,0.03778076
1601138189638,1461,0.075927734,-0.9824829,-0.19293213
1601138189638,1462,0.06958008,-1.2559204,-0.15045166
1601138189638,1463,0.033203125,-1.236145,-0.14068604
1601138189638,1464,-0.0014648438,-0.9837036,0.018981934
1601138189638,1465,0.06958008,-1.2559204,-0.15045166
1601138189638,1466,0.068115234,-0.95806885,-0.2510376
1601138189638,1467,0.080322266,-1.0755005,-0.012512207
1601138189638,1468,0.080322266,-1.0755005,-0.012512207
1601138189638,1469,0.033203125,-1.236145,-0.14068604
1601138189638,1470,0.075927734,-0.9824829,-0.19293213
1601138189639,1471,-0.10131836,-0.9854126,0.043884277
1601138189640,1472,0.10473633,-0.9026489,-0.19415283
1601138189644,1473,0.06958008,-1.2559204,-0.15045166
1601138189644,1474,0.06958008,-1.2559204,-0.15045166
1601138189644,1475,0.06958008,-1.2559204,-0.15045166
1601138189644,1476,0.068115234,-0.95806885,-0.2510376
1601138189644,1477,0.10473633,-0.9026489,-0.19415283
1601138189644,1478,0.068115234,-0.95806885,-0.2510376
1601138189644,1479,-0.0847168,-0.9741821,0.030944824
1601138189644,1480,0.033935547,-1.0430298,0.07537842
1601138189644,1481,0.033203125,-1.236145,-0.14068604
1601138189649,1482,0.13989258,-0.9014282,-0.18121338
1601138189649,1483,0.033203125,-1.236145,-0.14068604
1601138189650,1484,0.1862793,-0.9121704,-0.17022705
1601138189650,1485,0.033203125,-1.236145,-0.14068604
1601138189650,1486,0.075927734,-0.9824829,-0.19293213
1601138189650,1487,-0.0043945312,-1.0613403,0.03778076
1601138189650,1488,0.10473633,-0.9026489,-0.19415283
1601138189651,1489,0.068115234,-0.95806885,-0.2510376
1601138189651,1490,0.068115234,-0.95806885,-0.2510376
1601138189652,1491,0.075927734,-0.9824829,-0.19293213
1601138189660,1492,-0.0014648438,-0.9837036,0.018981934
1601138189661,1493,0.080322266,-1.0755005,-0.012512207
1601138189661,1494,0.10473633,-0.9026489,-0.19415283
1601138189661,1495,0.13989258,-0.9014282,-0.18121338
1601138189661,1496,0.06958008,-1.2559204,-0.15045166
1601138189661,1497,0.068115234,-0.95806885,-0.2510376
1601138189661,1498,0.033935547,-1.0430298,0.07537842
1601138189661,1499,0.075927734,-0.9824829,-0.19293213
1601138189661,1500,0.13989258,-0.9014282,-0.18121338
1601138189662,1501,0.075927734,-0.9824829,-0.19293213
1601138189662,1502,0.075927734,-0.9824829,-0.19293213
1601138189662,1503,0.10473633,-0.9026489,-0.19415283
1601138189662,1504,0.033203125,-1.236145,-0.14068604
1601138189662,1505,-0.0043945312,-1.0613403,0.03778076
1601138189662,1506,0.10473633,-0.9026489,-0.19415283
1601138189662,1507,0.033203125,-1.236145,-0.14068604
1601138189662,1508,0.1862793,-0.9121704,-0.17022705
1601138189662,1509,0.1862793,-0.9121704,-0.17022705
1601138189662,1510,0.13989258,-0.9014282,-0.18121338
1601138189663,1511,0.13989258,-0.9014282,-0.18121338
1601138189663,1512,0.080322266,-1.0755005,-0.012512207
1601138189665,1513,0.1862793,-0.9121704,-0.17022705
1601138189665,1514,0.10473633,-0.9026489,-0.19415283
1601138189666,1515,0.1862793,-0.9121704,-0.17022705
1601138189666,1516,0.06958008,-1.2559204,-0.15045166
1601138189666,1517,0.033203125,-1.236145,-0.14068604
1601138189666,1518,0.068115234,-0.95806885,-0.2510376
1601138189669,1519,0.075927734,-0.9824829,-0.19293213
1601138189669,1520,0.13989258,-0.9014282,-0.18121338
1601138189669,1521,0.13989258,-0.9014282,-0.18121338
1601138189670,1522,0.068115234,-0.95806885,-0.2510376
1601138189672,1523,0.075927734,-0.9824829,-0.19293213
1601138189672,1524,0.1862793,-0.9121704,-0.17022705
1601138189672,1525,0.068115234,-0.95806885,-0.2510376
1601138189672,1526,0.10473633,-0.9026489,-0.19415283
1601138189672,1527,0.1862793,-0.9121704,-0.17022705
1601138189673,1528,0.10473633,-0.9026489,-0.19415283
1601138189674,1529,0.075927734,-0.9824829,-0.19293213
1601138189684,1530,0.13989258,-0.9014282,-0.18121338
1601138189684,1531,0.13989258,-0.9014282,-0.18121338
1601138189684,1532,0.10473633,-0.9026489,-0.19415283
1601138189684,1533,0.1862793,-0.9121704,-0.17022705
1601138189692,1534,0.1862793,-0.9121704,-0.17022705
1601138189692,1535,0.13989258,-0.9014282,-0.18121338
1601138189694,1536,0.1862793,-0.9121704,-0.17022705
1601138191913,1537,0.21386719,-0.96759033,-0.15045166
1601138191913,1538,0.21386719,-0.96759033,-0.15045166
1601138191914,1539,0.19067383,-0.99053955,-0.078186035
1601138191919,1540,0.21386719,-0.96759033,-0.15045166
1601138191919,1541,0.21386719,-0.96759033,-0.15045166
1601138191919,1542,0.19067383,-0.99053955,-0.078186035
1601138191919,1543,0.21386719,-0.96759033,-0.15045166
1601138191919,1544,0.19067383,-0.99053955,-0.078186035
1601138191919,1545,0.2163086,-0.94415283,-0.058410645
1601138191919,1546,0.19067383,-0.99053955,-0.078186035
1601138191919,1547,0.2163086,-0.94415283,-0.058410645
1601138191920,1548,0.25683594,-0.97540283,-0.08062744
1601138191926,1549,0.25683594,-0.97540283,-0.08062744
1601138191926,1550,0.21386719,-0.96759033,-0.15045166
1601138191926,1551,0.2163086,-0.94415283,-0.058410645
1601138191926,1552,0.21948242,-0.9841919,-0.022521973
1601138191926,1553,0.19067383,-0.99053955,-0.078186035
1601138191927,1554,0.21386719,-0.96759033,-0.15045166
1601138191927,1555,0.2163086,-0.94415283,-0.058410645
1601138191927,1556,0.21386719,-0.96759033,-0.15045166
1601138191927,1557,0.19067383,-0.99053955,-0.078186035
1601138191928,1558,0.21386719,-0.96759033,-0.15045166
1601138191928,1559,0.11669922,-1.1047974,-0.03375244
1601138191928,1560,0.19067383,-0.99053955,-0.078186035
1601138191928,1561,0.21948242,-0.9841919,-0.022521973
1601138191929,1562,0.25683594,-0.97540283,-0.08062744
1601138191934,1563,0.21386719,-0.96759033,-0.15045166
1601138191934,1564,0.2163086,-0.94415283,-0.058410645
1601138191934,1565,0.19067383,-0.99053955,-0.078186035
1601138191934,1566,0.19067383,-0.99053955,-0.078186035
1601138191934,1567,0.10595703,-1.2459106,0.0072631836
1601138191935,1568,0.25683594,-0.97540283,-0.08062744
1601138191935,1569,0.2163086,-0.94415283,-0.058410645
1601138191935,1570,0.21948242,-0.9841919,-0.022521973
1601138191935,1571,0.2163086,-0.94415283,-0.058410645
1601138191935,1572,0.21948242,-0.9841919,-0.022521973
1601138191935,1573,0.19067383,-0.99053955,-0.078186035
1601138191937,1574,0.2163086,-0.94415283,-0.058410645
1601138191943,1575,0.25683594,-0.97540283,-0.08062744
1601138191943,1576,-0.0026855469,-1.2393188,-0.24420166
1601138191943,1577,0.25683594,-0.97540283,-0.08062744
1601138191943,1578,0.11669922,-1.1047974,-0.03375244
1601138191943,1579,0.25683594,-0.97540283,-0.08062744
1601138191943,1580,0.11669922,-1.1047974,-0.03375244
1601138191943,1581,0.21948242,-0.9841919,-0.022521973
1601138191943,1582,0.2163086,-0.94415283,-0.058410645
1601138191944,1583,0.21948242,-0.9841919,-0.022521973
1601138191944,1584,0.10595703,-1.2459106,0.0072631836
1601138191944,1585,0.11669922,-1.1047974,-0.03375244
1601138191944,1586,0.25683594,-0.97540283,-0.08062744
1601138191944,1587,-0.15649414,-1.0640259,-0.20831299
1601138191944,1588,0.25683594,-0.97540283,-0.08062744
1601138191949,1589,0.2163086,-0.94415283,-0.058410645
1601138191949,1590,0.11669922,-1.1047974,-0.03375244
1601138191949,1591,0.21948242,-0.9841919,-0.022521973
1601138191949,1592,0.25683594,-0.97540283,-0.08062744
1601138191949,1593,-0.0026855469,-1.2393188,-0.24420166
1601138191950,1594,0.10595703,-1.2459106,0.0072631836
1601138191950,1595,-0.15649414,-1.0640259,-0.20831299
1601138191950,1596,-0.22998047,-0.9746704,-0.003479004
1601138191950,1597,-0.0026855469,-1.2393188,-0.24420166
1601138191950,1598,0.21948242,-0.9841919,-0.022521973
1601138191951,1599,-0.15649414,-1.0640259,-0.20831299
1601138191956,1600,0.11669922,-1.1047974,-0.03375244
1601138191956,1601,0.10595703,-1.2459106,0.0072631836
1601138191956,1602,0.21948242,-0.9841919,-0.022521973
1601138191956,1603,0.21948242,-0.9841919,-0.022521973
1601138191956,1604,-0.22998047,-0.9746704,-0.003479004
1601138191957,1605,0.11669922,-1.1047974,-0.03375244
1601138191957,1606,-0.16357422,-0.97076416,-0.022033691
1601138191957,1607,0.11669922,-1.1047974,-0.03375244
1601138191957,1608,-0.16357422,-0.97076416,-0.022033691
1601138191957,1609,0.11669922,-1.1047974,-0.03375244
1601138191965,1610,0.10595703,-1.2459106,0.0072631836
1601138191966,1611,-0.0026855469,-1.2393188,-0.24420166
1601138191966,1612,-0.0026855469,-1.2393188,-0.24420166
1601138191966,1613,-0.22998047,-0.9746704,-0.003479004
1601138191966,1614,-0.15649414,-1.0640259,-0.20831299
1601138191966,1615,-0.15649414,-1.0640259,-0.20831299
1601138191966,1616,-0.12011719,-0.9314575,-0.07940674
1601138191966,1617,0.10595703,-1.2459106,0.0072631836
1601138191967,1618,0.10595703,-1.2459106,0.0072631836
1601138191967,1619,-0.12011719,-0.9314575,-0.07940674
1601138191967,1620,-0.13232422,-0.93878174,0.016540527
1601138191967,1621,-0.0026855469,-1.2393188,-0.24420166
1601138191967,1622,0.11669922,-1.1047974,-0.03375244
1601138191967,1623,0.10595703,-1.2459106,0.0072631836
1601138191967,1624,-0.22998047,-0.9746704,-0.003479004
1601138191967,1625,0.10595703,-1.2459106,0.0072631836
1601138191968,1626,-0.16357422,-0.97076416,-0.022033691
1601138191968,1627,-0.0026855469,-1.2393188,-0.24420166
1601138191973,1628,0.10595703,-1.2459106,0.0072631836
1601138191973,1629,-0.12548828,-0.9241333,0.058044434
1601138191973,1630,-0.0026855469,-1.2393188,-0.24420166
1601138191973,1631,-0.1171875,-0.9824829,0.0602417
1601138191973,1632,-0.22998047,-0.9746704,-0.003479004
1601138191974,1633,-0.12158203,-0.9973755,0.16912842
1601138191974,1634,-0.16357422,-0.97076416,-0.022033691
1601138191974,1635,-0.07763672,-0.95635986,0.13909912
1601138191974,1636,-0.12011719,-0.9314575,-0.07940674
1601138191975,1637,-0.15649414,-1.0640259,-0.20831299
1601138191975,1638,-0.13232422,-0.93878174,0.016540527
1601138191977,1639,-0.15649414,-1.0640259,-0.20831299
1601138191983,1640,-0.0026855469,-1.2393188,-0.24420166
1601138191983,1641,-0.15649414,-1.0640259,-0.20831299
1601138191983,1642,-0.12011719,-0.9314575,-0.07940674
1601138191983,1643,-0.039794922,-0.9668579,0.11810303
1601138191983,1644,-0.13232422,-0.93878174,0.016540527
1601138191983,1645,-0.15649414,-1.0640259,-0.20831299
1601138191984,1646,-0.12548828,-0.9241333,0.058044434
1601138191984,1647,-0.042236328,-1.0071411,0.15814209
1601138191984,1648,-0.16357422,-0.97076416,-0.022033691
1601138191984,1649,-0.22998047,-0.9746704,-0.003479004
1601138191984,1650,-0.22998047,-0.9746704,-0.003479004
1601138191984,1651,-0.22998047,-0.9746704,-0.003479004
1601138191984,1652,-0.12011719,-0.9314575,-0.07940674
1601138191984,1653,-0.22998047,-0.9746704,-0.003479004
1601138191985,1654,-0.13232422,-0.93878174,0.016540527
1601138191985,1655,-0.16357422,-0.97076416,-0.022033691
1601138191985,1656,-0.0026855469,-0.96466064,0.16082764
1601138191990,1657,-0.1171875,-0.9824829,0.0602417
1601138191990,1658,-0.13232422,-0.93878174,0.016540527
1601138191990,1659,-0.0026855469,-1.2393188,-0.24420166
1601138191991,1660,-0.12158203,-0.9973755,0.16912842
1601138191991,1661,-0.12548828,-0.9241333,0.058044434
1601138191991,1662,-0.07763672,-0.95635986,0.13909912
1601138191991,1663,-0.12548828,-0.9241333,0.058044434
1601138191991,1664,-0.039794922,-0.9668579,0.11810303
1601138191991,1665,-0.1171875,-0.9824829,0.0602417
1601138191993,1666,-0.016113281,-0.99591064,0.10394287
1601138191994,1667,-0.12011719,-0.9314575,-0.07940674
1601138192008,1668,-0.15649414,-1.0640259,-0.20831299
1601138192008,1669,-0.16357422,-0.97076416,-0.022033691
1601138192008,1670,-0.16357422,-0.97076416,-0.022033691
1601138192008,1671,-0.1171875,-0.9824829,0.0602417
1601138192008,1672,-0.12011719,-0.9314575,-0.07940674
1601138192008,1673,-0.22998047,-0.9746704,-0.003479004
1601138192008,1674,-0.16357422,-0.97076416,-0.022033691
1601138192008,1675,-0.12158203,-0.9973755,0.16912842
1601138192009,1676,-0.072753906,-1.1052856,0.02947998
1601138192009,1677,-0.12548828,-0.9241333,0.058044434
1601138192009,1678,-0.13232422,-0.93878174,0.016540527
1601138192009,1679,-0.042236328,-1.0071411,0.15814209
1601138192009,1680,-0.1027832,-1.0779419,0.042175293
1601138192009,1681,-0.12158203,-0.9973755,0.16912842
1601138192009,1682,-0.13232422,-0.93878174,0.016540527
1601138192009,1683,-0.07763672,-0.95635986,0.13909912
1601138192009,1684,-0.07763672,-0.95635986,0.13909912
1601138192009,1685,-0.039794922,-0.9668579,0.11810303
1601138192009,1686,-0.16357422,-0.97076416,-0.022033691
1601138192010,1687,-0.042236328,-1.0071411,0.15814209
1601138192010,1688,-0.12548828,-0.9241333,0.058044434
1601138192010,1689,-0.0026855469,-0.96466064,0.16082764
1601138192010,1690,-0.1171875,-0.9824829,0.0602417
1601138192010,1691,-0.0026855469,-0.96466064,0.16082764
1601138192019,1692,-0.12548828,-0.9241333,0.058044434
1601138192019,1693,-0.12011719,-0.9314575,-0.07940674
1601138192019,1694,-0.039794922,-0.9668579,0.11810303
1601138192019,1695,-0.042236328,-1.0071411,0.15814209
1601138192019,1696,-0.12011719,-0.9314575,-0.07940674
1601138192019,1697,-0.021972656,-1.2781372,0.023132324
1601138192020,1698,-0.1171875,-0.9824829,0.0602417
1601138192020,1699,-0.016113281,-0.99591064,0.10394287
1601138192020,1700,-0.12158203,-0.9973755,0.16912842
1601138192020,1701,-0.016113281,-0.99591064,0.10394287
1601138192021,1702,-0.1171875,-0.9824829,0.0602417
1601138192021,1703,-0.12011719,-0.9314575,-0.07940674
1601138192028,1704,-0.13232422,-0.93878174,0.016540527
1601138192028,1705,-0.12158203,-0.9973755,0.16912842
1601138192028,1706,0.057861328,-1.1870728,-0.062316895
1601138192028,1707,-0.072753906,-1.1052856,0.02947998
1601138192029,1708,-0.07763672,-0.95635986,0.13909912
1601138192029,1709,-0.07763672,-0.95635986,0.13909912
1601138192030,1710,-0.13232422,-0.93878174,0.016540527
1601138192030,1711,-0.12158203,-0.9973755,0.16912842
1601138192030,1712,-0.13232422,-0.93878174,0.016540527
1601138192030,1713,-0.0026855469,-0.96466064,0.16082764
1601138192039,1714,0.0715332,-1.0942993,-0.10845947
1601138192039,1715,-0.1027832,-1.0779419,0.042175293
1601138192039,1716,-0.072753906,-1.1052856,0.02947998
1601138192040,1717,-0.039794922,-0.9668579,0.11810303
1601138192040,1718,0.0769043,-0.9639282,-0.19830322
1601138192040,1719,-0.12548828,-0.9241333,0.058044434
1601138192041,1720,-0.042236328,-1.0071411,0.15814209
1601138192041,1721,-0.021972656,-1.2781372,0.023132324
1601138192042,1722,-0.1171875,-0.9824829,0.0602417
1601138192042,1723,-0.016113281,-0.99591064,0.10394287
1601138192044,1724,-0.12548828,-0.9241333,0.058044434
1601138192044,1725,-0.1027832,-1.0779419,0.042175293
1601138192044,1726,-0.072753906,-1.1052856,0.02947998
1601138192045,1727,-0.12158203,-0.9973755,0.16912842
1601138192046,1728,-0.021972656,-1.2781372,0.023132324
1601138192046,1729,0.15307617,-0.9439087,-0.10064697
1601138192046,1730,-0.07763672,-0.95635986,0.13909912
1601138192047,1731,0.057861328,-1.1870728,-0.062316895
1601138192053,1732,-0.12548828,-0.9241333,0.058044434
1601138192053,1733,-0.07763672,-0.95635986,0.13909912
1601138192053,1734,-0.1171875,-0.9824829,0.0602417
1601138192054,1735,-0.1027832,-1.0779419,0.042175293
1601138192054,1736,0.20336914,-0.97198486,-0.049621582
1601138192054,1737,-0.12158203,-0.9973755,0.16912842
1601138192054,1738,0.16699219,-0.92559814,-0.06842041
1601138192054,1739,-0.039794922,-0.9668579,0.11810303
1601138192054,1740,-0.039794922,-0.9668579,0.11810303
1601138192054,1741,0.0715332,-1.0942993,-0.10845947
1601138192054,1742,-0.1171875,-0.9824829,0.0602417
1601138192054,1743,-0.021972656,-1.2781372,0.023132324
1601138192054,1744,0.057861328,-1.1870728,-0.062316895
1601138192055,1745,-0.039794922,-0.9668579,0.11810303
1601138192055,1746,0.057861328,-1.1870728,-0.062316895
1601138192055,1747,-0.07763672,-0.95635986,0.13909912
1601138192055,1748,-0.0026855469,-0.96466064,0.16082764
1601138192055,1749,-0.039794922,-0.9668579,0.11810303
1601138192055,1750,-0.042236328,-1.0071411,0.15814209
1601138192055,1751,0.0769043,-0.9639282,-0.19830322
1601138192056,1752,-0.0026855469,-0.96466064,0.16082764
1601138192056,1753,0.0715332,-1.0942993,-0.10845947
1601138192056,1754,-0.016113281,-0.99591064,0.10394287
1601138192056,1755,-0.042236328,-1.0071411,0.15814209
1601138192056,1756,-0.072753906,-1.1052856,0.02947998
1601138192057,1757,-0.042236328,-1.0071411,0.15814209
1601138192057,1758,-0.042236328,-1.0071411,0.15814209
1601138192063,1759,-0.12158203,-0.9973755,0.16912842
1601138192063,1760,-0.0026855469,-0.96466064,0.16082764
1601138192063,1761,0.15307617,-0.9439087,-0.10064697
1601138192064,1762,-0.07763672,-0.95635986,0.13909912
1601138192064,1763,0.0715332,-1.0942993,-0.10845947
1601138192064,1764,-0.039794922,-0.9668579,0.11810303
1601138192064,1765,-0.1027832,-1.0779419,0.042175293
1601138192065,1766,0.0769043,-0.9639282,-0.19830322
1601138192065,1767,-0.016113281,-0.99591064,0.10394287
1601138192065,1768,0.15307617,-0.9439087,-0.10064697
1601138192065,1769,-0.042236328,-1.0071411,0.15814209
1601138192065,1770,-0.021972656,-1.2781372,0.023132324
1601138192065,1771,-0.0026855469,-0.96466064,0.16082764
1601138192066,1772,0.20336914,-0.97198486,-0.049621582
1601138192066,1773,0.0769043,-0.9639282,-0.19830322
1601138192066,1774,0.057861328,-1.1870728,-0.062316895
1601138192066,1775,0.16699219,-0.92559814,-0.06842041
1601138192066,1776,-0.072753906,-1.1052856,0.02947998
1601138192066,1777,0.15307617,-0.9439087,-0.10064697
1601138192067,1778,-0.0026855469,-0.96466064,0.16082764
1601138192083,1779,-0.016113281,-0.99591064,0.10394287
1601138192083,1780,0.27246094,-0.8875122,-0.065979004
1601138192084,1781,-0.0026855469,-0.96466064,0.16082764
1601138192084,1782,-0.072753906,-1.1052856,0.02947998
1601138192084,1783,0.0715332,-1.0942993,-0.10845947
1601138192084,1784,0.2709961,-0.8948364,-0.0068969727
1601138192084,1785,0.20336914,-0.97198486,-0.049621582
1601138192084,1786,-0.1027832,-1.0779419,0.042175293
1601138192084,1787,-0.016113281,-0.99591064,0.10394287
1601138192084,1788,-0.016113281,-0.99591064,0.10394287
1601138192084,1789,-0.021972656,-1.2781372,0.023132324
1601138192084,1790,0.20336914,-0.97198486,-0.049621582
1601138192084,1791,-0.1027832,-1.0779419,0.042175293
1601138192084,1792,0.27246094,-0.8875122,-0.065979004
1601138192085,1793,0.2709961,-0.8948364,-0.0068969727
1601138192085,1794,-0.016113281,-0.99591064,0.10394287
1601138192085,1795,-0.072753906,-1.1052856,0.02947998
1601138192085,1796,-0.072753906,-1.1052856,0.02947998
1601138192085,1797,0.16699219,-0.92559814,-0.06842041
1601138192087,1798,0.057861328,-1.1870728,-0.062316895
1601138192087,1799,-0.1027832,-1.0779419,0.042175293
1601138192087,1800,0.16699219,-0.92559814,-0.06842041
1601138192087,1801,0.0769043,-0.9639282,-0.19830322
1601138192087,1802,-0.072753906,-1.1052856,0.02947998
1601138192087,1803,-0.021972656,-1.2781372,0.023132324
1601138192087,1804,-0.1027832,-1.0779419,0.042175293
1601138192087,1805,0.057861328,-1.1870728,-0.062316895
1601138192087,1806,0.0715332,-1.0942993,-0.10845947
1601138192090,1807,0.27246094,-0.8875122,-0.065979004
1601138192090,1808,-0.1027832,-1.0779419,0.042175293
1601138192090,1809,0.27246094,-0.8875122,-0.065979004
1601138192094,1810,-0.021972656,-1.2781372,0.023132324
1601138192094,1811,0.0769043,-0.9639282,-0.19830322
1601138192094,1812,0.2709961,-0.8948364,-0.0068969727
1601138192097,1813,0.0715332,-1.0942993,-0.10845947
1601138192098,1814,0.15307617,-0.9439087,-0.10064697
1601138192098,1815,0.15307617,-0.9439087,-0.10064697
1601138192099,1816,0.057861328,-1.1870728,-0.062316895
1601138192108,1817,0.20336914,-0.97198486,-0.049621582
1601138192108,1818,0.0769043,-0.9639282,-0.19830322
1601138192108,1819,0.16699219,-0.92559814,-0.06842041
1601138192108,1820,-0.021972656,-1.2781372,0.023132324
1601138192109,1821,0.2709961,-0.8948364,-0.0068969727
1601138192110,1822,0.20336914,-0.97198486,-0.049621582
1601138192110,1823,0.057861328,-1.1870728,-0.062316895
1601138192110,1824,0.0715332,-1.0942993,-0.10845947
1601138192110,1825,0.27246094,-0.8875122,-0.065979004
1601138192110,1826,0.0769043,-0.9639282,-0.19830322
1601138192110,1827,0.15307617,-0.9439087,-0.10064697
1601138192110,1828,-0.021972656,-1.2781372,0.023132324
1601138192110,1829,0.16699219,-0.92559814,-0.06842041
1601138192110,1830,0.20336914,-0.97198486,-0.049621582
1601138192111,1831,0.15307617,-0.9439087,-0.10064697
1601138192118,1832,0.2709961,-0.8948364,-0.0068969727
1601138192118,1833,0.057861328,-1.1870728,-0.062316895
1601138192118,1834,0.27246094,-0.8875122,-0.065979004
1601138192118,1835,0.16699219,-0.92559814,-0.06842041
1601138192119,1836,0.2709961,-0.8948364,-0.0068969727
1601138192119,1837,0.0715332,-1.0942993,-0.10845947
1601138192119,1838,0.0715332,-1.0942993,-0.10845947
1601138192119,1839,0.27246094,-0.8875122,-0.065979004
1601138192128,1840,0.20336914,-0.97198486,-0.049621582
1601138192128,1841,0.2709961,-0.8948364,-0.0068969727
1601138192128,1842,0.0769043,-0.9639282,-0.19830322
1601138192129,1843,0.16699219,-0.92559814,-0.06842041
1601138192129,1844,0.0769043,-0.9639282,-0.19830322
1601138192129,1845,0.15307617,-0.9439087,-0.10064697
1601138192129,1846,0.20336914,-0.97198486,-0.049621582
1601138192129,1847,0.27246094,-0.8875122,-0.065979004
1601138192129,1848,0.15307617,-0.9439087,-0.10064697
1601138192134,1849,0.2709961,-0.8948364,-0.0068969727
1601138192134,1850,0.16699219,-0.92559814,-0.06842041
1601138192134,1851,0.20336914,-0.97198486,-0.049621582
1601138192135,1852,0.16699219,-0.92559814,-0.06842041
1601138192137,1853,0.27246094,-0.8875122,-0.065979004
1601138192140,1854,0.27246094,-0.8875122,-0.065979004
1601138192140,1855,0.2709961,-0.8948364,-0.0068969727
1601138192141,1856,0.2709961,-0.8948364,-0.0068969727
1601138194495,1857,0.32983398,-0.9524536,-0.01763916
1601138194495,1858,0.32983398,-0.9524536,-0.01763916
1601138194495,1859,0.32983398,-0.9524536,-0.01763916
1601138194495,1860,0.32983398,-0.9524536,-0.01763916
1601138194495,1861,0.32983398,-0.9524536,-0.01763916
1601138194495,1862,0.3154297,-0.93756104,-0.011047363
1601138194496,1863,0.32983398,-0.9524536,-0.01763916
1601138194496,1864,0.32983398,-0.9524536,-0.01763916
1601138194497,1865,0.3154297,-0.93756104,-0.011047363
1601138194498,1866,0.32983398,-0.9524536,-0.01763916
1601138194498,1867,0.33813477,-0.9692993,-0.023986816
1601138194499,1868,0.32983398,-0.9524536,-0.01763916
1601138194499,1869,0.3154297,-0.93756104,-0.011047363
1601138194499,1870,0.3154297,-0.93756104,-0.011047363
1601138194500,1871,0.3154297,-0.93756104,-0.011047363
1601138194500,1872,0.3154297,-0.93756104,-0.011047363
1601138194500,1873,0.32983398,-0.9524536,-0.01763916
1601138194500,1874,0.33813477,-0.9692993,-0.023986816
1601138194512,1875,0.3154297,-0.93756104,-0.011047363
1601138194512,1876,0.33813477,-0.9692993,-0.023986816
1601138194512,1877,0.3154297,-0.93756104,-0.011047363
1601138194512,1878,0.33813477,-0.9692993,-0.023986816
1601138194512,1879,0.33813477,-0.9692993,-0.023986816
1601138194512,1880,0.33813477,-0.9692993,-0.023986816
1601138194512,1881,0.23608398,-1.1401978,0.05267334
1601138194513,1882,0.33813477,-0.9692993,-0.023986816
1601138194513,1883,0.23608398,-1.1401978,0.05267334
1601138194514,1884,0.33813477,-0.9692993,-0.023986816
1601138194514,1885,0.23608398,-1.1401978,0.05267334
1601138194514,1886,0.3154297,-0.93756104,-0.011047363
1601138194525,1887,0.3154297,-0.93756104,-0.011047363
1601138194526,1888,0.2932129,-1.2295532,0.013122559
1601138194526,1889,0.23608398,-1.1401978,0.05267334
1601138194526,1890,0.2932129,-1.2295532,0.013122559
1601138194526,1891,0.23608398,-1.1401978,0.05267334
1601138194526,1892,0.2932129,-1.2295532,0.013122559
1601138194526,1893,0.107910156,-1.2649536,0.008972168
1601138194526,1894,0.107910156,-1.2649536,0.008972168
1601138194526,1895,-0.09716797,-0.9636841,0.08880615
1601138194527,1896,0.33813477,-0.9692993,-0.023986816
1601138194527,1897,0.23608398,-1.1401978,0.05267334
1601138194527,1898,0.33813477,-0.9692993,-0.023986816
1601138194527,1899,0.23608398,-1.1401978,0.05267334
1601138194527,1900,0.2932129,-1.2295532,0.013122559
1601138194527,1901,0.2932129,-1.2295532,0.013122559
1601138194527,1902,0.107910156,-1.2649536,0.008972168
1601138194527,1903,0.2932129,-1.2295532,0.013122559
1601138194527,1904,-0.12036133,-1.0274048,-0.0012817383
1601138194527,1905,-0.09716797,-0.9636841,0.08880615
1601138194534,1906,-0.028076172,-0.8418579,0.034606934
1601138194535,1907,0.23608398,-1.1401978,0.05267334
1601138194535,1908,0.107910156,-1.2649536,0.008972168
1601138194535,1909,0.23608398,-1.1401978,0.05267334
1601138194535,1910,0.2932129,-1.2295532,0.013122559
1601138194535,1911,0.107910156,-1.2649536,0.008972168
1601138194536,1912,0.107910156,-1.2649536,0.008972168
1601138194536,1913,-0.09716797,-0.9636841,0.08880615
1601138194536,1914,-0.09716797,-0.9636841,0.08880615
1601138194537,1915,0.23608398,-1.1401978,0.05267334
1601138194540,1916,-0.0625,-0.7788696,0.012145996
1601138194540,1917,0.2932129,-1.2295532,0.013122559
1601138194540,1918,-0.09716797,-0.9636841,0.08880615
1601138194540,1919,0.107910156,-1.2649536,0.008972168
1601138194540,1920,-0.03515625,-0.9348755,0.16253662
1601138194541,1921,0.2932129,-1.2295532,0.013122559
1601138194542,1922,-0.05029297,-1.0105591,0.18206787
1601138194542,1923,-0.09716797,-0.9636841,0.08880615
1601138194542,1924,0.03515625,-0.94000244,0.2218628
1601138194542,1925,0.2932129,-1.2295532,0.013122559
1601138194543,1926,-0.12036133,-1.0274048,-0.0012817383
1601138194548,1927,-0.12036133,-1.0274048,-0.0012817383
1601138194548,1928,-0.09716797,-0.9636841,0.08880615
1601138194549,1929,-0.028076172,-0.8418579,0.034606934
1601138194549,1930,-0.12036133,-1.0274048,-0.0012817383
1601138194549,1931,-0.12036133,-1.0274048,-0.0012817383
1601138194549,1932,0.107910156,-1.2649536,0.008972168
1601138194550,1933,0.107910156,-1.2649536,0.008972168
1601138194550,1934,0.107910156,-1.2649536,0.008972168
1601138194550,1935,0.017333984,-0.9651489,0.27044678
1601138194550,1936,-0.09716797,-0.9636841,0.08880615
1601138194563,1937,-0.0625,-0.7788696,0.012145996
1601138194563,1938,-0.12036133,-1.0274048,-0.0012817383
1601138194563,1939,-0.03515625,-0.9348755,0.16253662
1601138194563,1940,-0.12036133,-1.0274048,-0.0012817383
1601138194566,1941,-0.028076172,-0.8418579,0.034606934
1601138194566,1942,-0.028076172,-0.8418579,0.034606934
1601138194567,1943,-0.0625,-0.7788696,0.012145996
1601138194567,1944,-0.028076172,-0.8418579,0.034606934
1601138194567,1945,-0.12036133,-1.0274048,-0.0012817383
1601138194567,1946,-0.09716797,-0.9636841,0.08880615
1601138194567,1947,-0.0034179688,-0.97369385,0.29486084
1601138194567,1948,-0.05029297,-1.0105591,0.18206787
1601138194567,1949,-0.028076172,-0.8418579,0.034606934
1601138194567,1950,-0.028076172,-0.8418579,0.034606934
1601138194567,1951,-0.028076172,-0.8418579,0.034606934
1601138194567,1952,-0.0625,-0.7788696,0.012145996
1601138194573,1953,-0.0625,-0.7788696,0.012145996
1601138194573,1954,-0.09716797,-0.9636841,0.08880615
1601138194574,1955,-0.03515625,-0.9348755,0.16253662
1601138194574,1956,0.05859375,-0.9312134,0.24212646
1601138194574,1957,-0.12036133,-1.0274048,-0.0012817383
1601138194574,1958,-0.05029297,-1.0105591,0.18206787
1601138194574,1959,-0.03515625,-0.9348755,0.16253662
1601138194574,1960,-0.03515625,-0.9348755,0.16253662
1601138194575,1961,0.03515625,-0.94000244,0.2218628
1601138194575,1962,-0.0625,-0.7788696,0.012145996
1601138194576,1963,-0.0625,-0.7788696,0.012145996
1601138194576,1964,-0.0625,-0.7788696,0.012145996
1601138194576,1965,-0.12036133,-1.0274048,-0.0012817383
1601138194576,1966,-0.028076172,-0.8418579,0.034606934
1601138194576,1967,0.046875,-0.91241455,0.260437
1601138194577,1968,-0.0625,-0.7788696,0.012145996
1601138194577,1969,0.017333984,-0.9651489,0.27044678
1601138194577,1970,-0.03515625,-0.9348755,0.16253662
1601138194583,1971,-0.03515625,-0.9348755,0.16253662
1601138194583,1972,-0.028076172,-0.8418579,0.034606934
1601138194584,1973,0.045410156,-0.9434204,0.26849365
1601138194584,1974,0.03515625,-0.94000244,0.2218628
1601138194584,1975,-0.05029297,-1.0105591,0.18206787
1601138194584,1976,-0.03515625,-0.9348755,0.16253662
1601138194584,1977,-0.0625,-0.7788696,0.012145996
1601138194584,1978,-0.0034179688,-0.97369385,0.29486084
1601138194584,1979,-0.03515625,-0.9348755,0.16253662
1601138194593,1980,-0.05029297,-1.0105591,0.18206787
1601138194594,1981,-0.05029297,-1.0105591,0.18206787
1601138194594,1982,-0.05029297,-1.0105591,0.18206787
1601138194594,1983,0.03515625,-0.94000244,0.2218628
1601138194594,1984,0.017333984,-0.9651489,0.27044678
1601138194594,1985,0.07421875,-1.0015259,0.17669678
1601138194594,1986,0.03515625,-0.94000244,0.2218628
1601138194594,1987,-0.05029297,-1.0105591,0.18206787
1601138194594,1988,-0.05029297,-1.0105591,0.18206787
1601138194594,1989,0.03515625,-0.94000244,0.2218628
1601138194597,1990,0.03515625,-0.94000244,0.2218628
1601138194606,1991,0.017333984,-0.9651489,0.27044678
1601138194606,1992,-0.0034179688,-0.97369385,0.29486084
1601138194606,1993,0.10888672,-1.045227,0.14031982
1601138194606,1994,0.05859375,-0.9312134,0.24212646
1601138194606,1995,0.13964844,-1.2778931,0.018737793
1601138194607,1996,0.046875,-0.91241455,0.260437
1601138194607,1997,0.05859375,-0.9312134,0.24212646
1601138194607,1998,0.017333984,-0.9651489,0.27044678
1601138194607,1999,0.046875,-0.91241455,0.260437
1601138194607,2000,0.017333984,-0.9651489,0.27044678
1601138194607,2001,0.045410156,-0.9434204,0.26849365
1601138194616,2002,-0.03515625,-0.9348755,0.16253662
1601138194616,2003,0.017333984,-0.9651489,0.27044678
1601138194616,2004,0.1887207,-0.9949341,-0.11212158
1601138194616,2005,-0.0034179688,-0.97369385,0.29486084
1601138194616,2006,-0.05029297,-1.0105591,0.18206787
1601138194616,2007,0.05859375,-0.9312134,0.24212646
1601138194616,2008,-0.0034179688,-0.97369385,0.29486084
1601138194616,2009,0.17626953,-0.96661377,-0.1116333
1601138194617,2010,0.046875,-0.91241455,0.260437
1601138194617,2011,-0.0034179688,-0.97369385,0.29486084
1601138194620,2012,0.045410156,-0.9434204,0.26849365
1601138194624,2013,0.03515625,-0.94000244,0.2218628
1601138194631,2014,0.07421875,-1.0015259,0.17669678
1601138194632,2015,0.115722656,-1.0640259,-0.0095825195
1601138194632,2016,0.07421875,-1.0015259,0.17669678
1601138194632,2017,0.05859375,-0.9312134,0.24212646
1601138194632,2018,0.10888672,-1.045227,0.14031982
1601138194632,2019,0.05859375,-0.9312134,0.24212646
1601138194632,2020,0.046875,-0.91241455,0.260437
1601138194633,2021,-0.0034179688,-0.97369385,0.29486084
1601138194633,2022,0.13964844,-1.2778931,0.018737793
1601138194633,2023,0.03515625,-0.94000244,0.2218628
1601138194635,2024,0.18652344,-0.9390259,-0.061828613
1601138194637,2025,0.05859375,-0.9312134,0.24212646
1601138194652,2026,0.045410156,-0.9434204,0.26849365
1601138194653,2027,0.23632812,-0.9998169,0.03387451
1601138194653,2028,0.07421875,-1.0015259,0.17669678
1601138194653,2029,0.1887207,-0.9949341,-0.11212158
1601138194653,2030,0.10888672,-1.045227,0.14031982
1601138194653,2031,0.03515625,-0.94000244,0.2218628
1601138194658,2032,0.045410156,-0.9434204,0.26849365
1601138194659,2033,0.17626953,-0.96661377,-0.1116333
1601138194659,2034,0.046875,-0.91241455,0.260437
1601138194659,2035,0.046875,-0.91241455,0.260437
1601138194659,2036,0.115722656,-1.0640259,-0.0095825195
1601138194659,2037,0.2565918,-0.9993286,0.09637451
1601138194659,2038,0.017333984,-0.9651489,0.27044678
1601138194659,2039,0.10888672,-1.045227,0.14031982
1601138194660,2040,0.13964844,-1.2778931,0.018737793
1601138194660,2041,0.13964844,-1.2778931,0.018737793
1601138194660,2042,-0.0034179688,-0.97369385,0.29486084
1601138194660,2043,0.1887207,-0.9949341,-0.11212158
1601138194660,2044,0.017333984,-0.9651489,0.27044678
1601138194660,2045,0.045410156,-0.9434204,0.26849365
1601138194660,2046,-0.0034179688,-0.97369385,0.29486084
1601138194660,2047,0.18652344,-0.9390259,-0.061828613
1601138194660,2048,0.07421875,-1.0015259,0.17669678
1601138194661,2049,0.045410156,-0.9434204,0.26849365
1601138194661,2050,0.10888672,-1.045227,0.14031982
1601138194661,2051,0.23632812,-0.9998169,0.03387451
1601138194661,2052,0.07421875,-1.0015259,0.17669678
1601138194661,2053,0.05859375,-0.9312134,0.24212646
1601138194661,2054,0.05859375,-0.9312134,0.24212646
1601138194661,2055,0.017333984,-0.9651489,0.27044678
1601138194661,2056,0.1887207,-0.9949341,-0.11212158
1601138194662,2057,0.20751953,-0.9678345,0.08929443
1601138194662,2058,0.13964844,-1.2778931,0.018737793
1601138194662,2059,0.07421875,-1.0015259,0.17669678
1601138194662,2060,0.1887207,-0.9949341,-0.11212158
1601138194662,2061,0.2565918,-0.9993286,0.09637451
1601138194662,2062,0.046875,-0.91241455,0.260437
1601138194662,2063,0.10888672,-1.045227,0.14031982
1601138194664,2064,-0.0034179688,-0.97369385,0.29486084
1601138194664,2065,0.17626953,-0.96661377,-0.1116333
1601138194666,2066,0.05859375,-0.9312134,0.24212646
1601138194679,2067,0.18969727,-1.0852661,-0.16070557
1601138194679,2068,0.046875,-0.91241455,0.260437
1601138194679,2069,0.13964844,-1.2778931,0.018737793
1601138194679,2070,0.15039062,-0.9932251,-0.035461426
1601138194680,2071,0.045410156,-0.9434204,0.26849365
1601138194680,2072,0.20751953,-0.9678345,0.08929443
1601138194680,2073,0.17626953,-0.96661377,-0.1116333
1601138194680,2074,0.115722656,-1.0640259,-0.0095825195
1601138194680,2075,0.18969727,-1.0852661,-0.16070557
1601138194680,2076,0.115722656,-1.0640259,-0.0095825195
1601138194680,2077,0.15039062,-0.9932251,-0.035461426
1601138194681,2078,0.046875,-0.91241455,0.260437
1601138194681,2079,0.1887207,-0.9949341,-0.11212158
1601138194681,2080,0.1977539,-1.218811,-0.051086426
1601138194681,2081,0.045410156,-0.9434204,0.26849365
1601138194681,2082,0.07421875,-1.0015259,0.17669678
1601138194681,2083,0.17626953,-0.96661377,-0.1116333
1601138194681,2084,0.10888672,-1.045227,0.14031982
1601138194681,2085,0.18652344,-0.9390259,-0.061828613
1601138194681,2086,0.10888672,-1.045227,0.14031982
1601138194682,2087,0.18652344,-0.9390259,-0.061828613
1601138194682,2088,0.1977539,-1.218811,-0.051086426
1601138194682,2089,0.17626953,-0.96661377,-0.1116333
1601138194682,2090,0.045410156,-0.9434204,0.26849365
1601138194682,2091,0.07421875,-1.0015259,0.17669678
1601138194682,2092,0.010498047,-0.9109497,-0.08087158
1601138194683,2093,0.115722656,-1.0640259,-0.0095825195
1601138194686,2094,0.23632812,-0.9998169,0.03387451
1601138194686,2095,0.115722656,-1.0640259,-0.0095825195
1601138194687,2096,0.13964844,-1.2778931,0.018737793
1601138194687,2097,0.23632812,-0.9998169,0.03387451
1601138194687,2098,0.010498047,-0.9109497,-0.08087158
1601138194687,2099,0.07421875,-1.0015259,0.17669678
1601138194687,2100,0.13964844,-1.2778931,0.018737793
1601138194687,2101,0.10888672,-1.045227,0.14031982
1601138194687,2102,0.18652344,-0.9390259,-0.061828613
1601138194688,2103,0.2565918,-0.9993286,0.09637451
1601138194689,2104,0.1887207,-0.9949341,-0.11212158
1601138194702,2105,0.1887207,-0.9949341,-0.11212158
1601138194702,2106,0.13964844,-1.2778931,0.018737793
1601138194702,2107,0.23632812,-0.9998169,0.03387451
1601138194702,2108,0.18652344,-0.9390259,-0.061828613
1601138194702,2109,0.20751953,-0.9678345,0.08929443
1601138194702,2110,0.2565918,-0.9993286,0.09637451
1601138194704,2111,0.10888672,-1.045227,0.14031982
1601138194704,2112,0.18969727,-1.0852661,-0.16070557
1601138194704,2113,0.17626953,-0.96661377,-0.1116333
1601138194704,2114,0.17626953,-0.96661377,-0.1116333
1601138194704,2115,0.2565918,-0.9993286,0.09637451
1601138194704,2116,0.115722656,-1.0640259,-0.0095825195
1601138194704,2117,0.1887207,-0.9949341,-0.11212158
1601138194704,2118,0.20751953,-0.9678345,0.08929443
1601138194704,2119,0.17626953,-0.96661377,-0.1116333
1601138194705,2120,0.115722656,-1.0640259,-0.0095825195
1601138194705,2121,0.13964844,-1.2778931,0.018737793
1601138194705,2122,0.23632812,-0.9998169,0.03387451
1601138194705,2123,0.18969727,-1.0852661,-0.16070557
1601138194705,2124,0.2565918,-0.9993286,0.09637451
1601138194705,2125,0.15039062,-0.9932251,-0.035461426
1601138194705,2126,0.1887207,-0.9949341,-0.11212158
1601138194705,2127,0.115722656,-1.0640259,-0.0095825195
1601138194705,2128,0.1977539,-1.218811,-0.051086426
1601138194706,2129,0.18652344,-0.9390259,-0.061828613
1601138194706,2130,0.18652344,-0.9390259,-0.061828613
1601138194708,2131,0.18652344,-0.9390259,-0.061828613
1601138194713,2132,0.010498047,-0.9109497,-0.08087158
1601138194714,2133,0.17626953,-0.96661377,-0.1116333
1601138194714,2134,0.23632812,-0.9998169,0.03387451
1601138194714,2135,0.115722656,-1.0640259,-0.0095825195
1601138194714,2136,0.2565918,-0.9993286,0.09637451
1601138194714,2137,0.23632812,-0.9998169,0.03387451
1601138194714,2138,0.23632812,-0.9998169,0.03387451
1601138194719,2139,0.20751953,-0.9678345,0.08929443
1601138194720,2140,0.15039062,-0.9932251,-0.035461426
1601138194721,2141,0.18652344,-0.9390259,-0.061828613
1601138194723,2142,0.2565918,-0.9993286,0.09637451
1601138194743,2143,0.23632812,-0.9998169,0.03387451
1601138194743,2144,0.20751953,-0.9678345,0.08929443
1601138194743,2145,0.1977539,-1.218811,-0.051086426
1601138194743,2146,0.18969727,-1.0852661,-0.16070557
1601138194744,2147,0.20751953,-0.9678345,0.08929443
1601138194744,2148,0.010498047,-0.9109497,-0.08087158
1601138194744,2149,0.2565918,-0.9993286,0.09637451
1601138194744,2150,0.18969727,-1.0852661,-0.16070557
1601138194744,2151,0.20751953,-0.9678345,0.08929443
1601138194744,2152,0.15039062,-0.9932251,-0.035461426
1601138194744,2153,0.18969727,-1.0852661,-0.16070557
1601138194745,2154,0.1977539,-1.218811,-0.051086426
1601138194746,2155,0.010498047,-0.9109497,-0.08087158
1601138194747,2156,0.20751953,-0.9678345,0.08929443
1601138194747,2157,0.15039062,-0.9932251,-0.035461426
1601138194747,2158,0.15039062,-0.9932251,-0.035461426
1601138194747,2159,0.2565918,-0.9993286,0.09637451
1601138194747,2160,0.1977539,-1.218811,-0.051086426
1601138194747,2161,0.1977539,-1.218811,-0.051086426
1601138194747,2162,0.18969727,-1.0852661,-0.16070557
1601138194747,2163,0.010498047,-0.9109497,-0.08087158
1601138194747,2164,0.15039062,-0.9932251,-0.035461426
1601138194748,2165,0.010498047,-0.9109497,-0.08087158
1601138194748,2166,0.18969727,-1.0852661,-0.16070557
1601138194751,2167,0.1977539,-1.218811,-0.051086426
1601138194751,2168,0.20751953,-0.9678345,0.08929443
1601138194752,2169,0.15039062,-0.9932251,-0.035461426
1601138194753,2170,0.010498047,-0.9109497,-0.08087158
1601138194754,2171,0.18969727,-1.0852661,-0.16070557
1601138194754,2172,0.1977539,-1.218811,-0.051086426
1601138194755,2173,0.15039062,-0.9932251,-0.035461426
1601138194755,2174,0.010498047,-0.9109497,-0.08087158
1601138194756,2175,0.1977539,-1.218811,-0.051086426
1601138194758,2176,0.010498047,-0.9109497,-0.08087158
1601138197400,2177,-0.08984375,-0.925354,0.04168701
1601138197408,2178,-0.08984375,-0.925354,0.04168701
1601138197408,2179,-0.08984375,-0.925354,0.04168701
1601138197408,2180,-0.08984375,-0.925354,0.04168701
1601138197408,2181,-0.08984375,-0.925354,0.04168701
1601138197425,2182,-0.08984375,-0.925354,0.04168701
1601138197426,2183,-0.08984375,-0.925354,0.04168701
1601138197426,2184,0.05810547,-1.2097778,0.032409668
1601138197427,2185,-0.08984375,-0.925354,0.04168701
1601138197427,2186,0.05810547,-1.2097778,0.032409668
1601138197427,2187,-0.08984375,-0.925354,0.04168701
1601138197427,2188,-0.08984375,-0.925354,0.04168701
1601138197428,2189,0.05810547,-1.2097778,0.032409668
1601138197428,2190,0.05810547,-1.2097778,0.032409668
1601138197428,2191,0.05810547,-1.2097778,0.032409668
1601138197428,2192,-0.039794922,-0.92852783,0.0914917
1601138197437,2193,0.0107421875,-0.94854736,0.090026855
1601138197438,2194,-0.039794922,-0.92852783,0.0914917
1601138197439,2195,-0.039794922,-0.92852783,0.0914917
1601138197440,2196,-0.039794922,-0.92852783,0.0914917
1601138197441,2197,0.05810547,-1.2097778,0.032409668
1601138197455,2198,-0.039794922,-0.92852783,0.0914917
1601138197455,2199,0.041992188,-1.0064087,0.12884521
1601138197455,2200,0.06347656,-0.9854126,0.15447998
1601138197455,2201,0.0107421875,-0.94854736,0.090026855
1601138197456,2202,0.05810547,-1.2097778,0.032409668
1601138197456,2203,0.0107421875,-0.94854736,0.090026855
1601138197456,2204,0.05810547,-1.2097778,0.032409668
1601138197456,2205,0.0107421875,-0.94854736,0.090026855
1601138197456,2206,-0.039794922,-0.92852783,0.0914917
1601138197456,2207,0.05810547,-1.2097778,0.032409668
1601138197456,2208,0.0107421875,-0.94854736,0.090026855
1601138197456,2209,-0.039794922,-0.92852783,0.0914917
1601138197456,2210,0.08154297,-0.99224854,0.16766357
1601138197456,2211,0.041992188,-1.0064087,0.12884521
1601138197456,2212,0.0107421875,-0.94854736,0.090026855
1601138197456,2213,-0.039794922,-0.92852783,0.0914917
1601138197456,2214,0.041992188,-1.0064087,0.12884521
1601138197456,2215,0.05810547,-1.2097778,0.032409668
1601138197456,2216,0.06347656,-0.9854126,0.15447998
1601138197457,2217,-0.039794922,-0.92852783,0.0914917
1601138197457,2218,-0.039794922,-0.92852783,0.0914917
1601138197457,2219,0.041992188,-1.0064087,0.12884521
1601138197457,2220,0.0107421875,-0.94854736,0.090026855
1601138197457,2221,0.06347656,-0.9854126,0.15447998
1601138197457,2222,0.041992188,-1.0064087,0.12884521
1601138197457,2223,0.041992188,-1.0064087,0.12884521
1601138197457,2224,0.06347656,-0.9854126,0.15447998
1601138197457,2225,0.0107421875,-0.94854736,0.090026855
1601138197457,2226,0.08154297,-0.99224854,0.16766357
1601138197457,2227,0.08154297,-0.99224854,0.16766357
1601138197457,2228,0.0107421875,-0.94854736,0.090026855
1601138197464,2229,0.1472168,-0.9824829,0.21453857
1601138197464,2230,0.0107421875,-0.94854736,0.090026855
1601138197464,2231,0.11376953,-1.1487427,0.16619873
1601138197464,2232,0.06347656,-0.9854126,0.15447998
1601138197466,2233,0.06591797,-1.1367798,0.043151855
1601138197466,2234,0.041992188,-1.0064087,0.12884521
1601138197466,2235,0.08154297,-0.99224854,0.16766357
1601138197466,2236,0.1472168,-0.9824829,0.21453857
1601138197467,2237,0.06347656,-0.9854126,0.15447998
1601138197467,2238,0.1472168,-0.9824829,0.21453857
1601138197467,2239,0.11376953,-1.1487427,0.16619873
1601138197467,2240,0.08154297,-0.99224854,0.16766357
1601138197467,2241,0.041992188,-1.0064087,0.12884521
1601138197467,2242,0.041992188,-1.0064087,0.12884521
1601138197467,2243,0.16210938,-0.861145,0.0036010742
1601138197467,2244,0.1472168,-0.9824829,0.21453857
1601138197467,2245,0.06347656,-0.9854126,0.15447998
1601138197467,2246,0.08154297,-0.99224854,0.16766357
1601138197467,2247,0.16772461,-1.0293579,-0.09674072
1601138197467,2248,0.11376953,-1.1487427,0.16619873
1601138197467,2249,0.11376953,-1.1487427,0.16619873
1601138197467,2250,0.06591797,-1.1367798,0.043151855
1601138197467,2251,0.1472168,-0.9824829,0.21453857
1601138197467,2252,0.1472168,-0.9824829,0.21453857
1601138197467,2253,0.06591797,-1.1367798,0.043151855
1601138197470,2254,0.08154297,-0.99224854,0.16766357
1601138197471,2255,0.041992188,-1.0064087,0.12884521
1601138197471,2256,0.22973633,-1.0801392,-0.031555176
1601138197471,2257,0.06591797,-1.1367798,0.043151855
1601138197471,2258,0.06347656,-0.9854126,0.15447998
1601138197471,2259,0.06347656,-0.9854126,0.15447998
1601138197471,2260,0.16210938,-0.861145,0.0036010742
1601138197471,2261,0.11376953,-1.1487427,0.16619873
