# Sensor position: Wrist
# Sensor side: Right
# Activity type: Climbing stairs
# Activity code: 12
# Subject id: s1735229
timestamp,seq,accel_x,accel_y,accel_z
1601137898855,0,-1.0136719,-0.24176025,0.09295654
1601137898856,1,-1.0136719,-0.24176025,0.09295654
1601137898856,2,-1.0136719,-0.24176025,0.09295654
1601137898856,3,-1.0136719,-0.24176025,0.09295654
1601137898856,4,-1.0136719,-0.24176025,0.09295654
1601137898856,5,-1.0290527,-0.25421143,0.101989746
1601137898870,6,-1.0136719,-0.24176025,0.09295654
1601137898871,7,-1.0136719,-0.24176025,0.09295654
1601137898871,8,-1.0136719,-0.24176025,0.09295654
1601137898871,9,-1.0136719,-0.24176025,0.09295654
1601137898871,10,-1.0290527,-0.25421143,0.101989746
1601137898871,11,-1.0290527,-0.25421143,0.101989746
1601137898871,12,-1.0136719,-0.24176025,0.09295654
1601137898871,13,-1.0290527,-0.25421143,0.101989746
1601137898871,14,-1.0290527,-0.25421143,0.101989746
1601137898871,15,-1.0275879,-0.26446533,0.109802246
1601137898871,16,-1.0290527,-0.25421143,0.101989746
1601137898872,17,-1.0290527,-0.25421143,0.101989746
1601137898872,18,-1.0275879,-0.26446533,0.109802246
1601137898872,19,-1.0290527,-0.25421143,0.101989746
1601137898872,20,-1.0275879,-0.26446533,0.109802246
1601137898872,21,-1.0275879,-0.26446533,0.109802246
1601137898872,22,-1.0275879,-0.26446533,0.109802246
1601137898872,23,-1.0148926,-0.25738525,0.10223389
1601137898872,24,-1.0148926,-0.25738525,0.10223389
1601137898872,25,-1.0209961,-0.23687744,0.085876465
1601137898872,26,-1.0209961,-0.23687744,0.085876465
1601137898873,27,-1.0290527,-0.25421143,0.101989746
1601137898873,28,-1.0148926,-0.25738525,0.10223389
1601137898873,29,-1.0275879,-0.26446533,0.109802246
1601137898873,30,-1.0209961,-0.23687744,0.085876465
1601137898875,31,-1.0148926,-0.25738525,0.10223389
1601137898876,32,-1.0148926,-0.25738525,0.10223389
1601137898876,33,-1.0209961,-0.23687744,0.085876465
1601137898876,34,-1.0290527,-0.25421143,0.101989746
1601137898876,35,-1.0158691,-0.24371338,0.078552246
1601137898876,36,-1.0158691,-0.24371338,0.078552246
1601137898876,37,-1.0275879,-0.26446533,0.109802246
1601137898876,38,-1.0209961,-0.23687744,0.085876465
1601137898876,39,-1.0275879,-0.26446533,0.109802246
1601137898881,40,-1.0275879,-0.26446533,0.109802246
1601137898881,41,-1.0158691,-0.24371338,0.078552246
1601137898882,42,-1.0148926,-0.25738525,0.10223389
1601137898882,43,-1.0275879,-0.26446533,0.109802246
1601137898883,44,-1.0209961,-0.23687744,0.085876465
1601137898883,45,-1.0148926,-0.25738525,0.10223389
1601137898883,46,-1.0158691,-0.24371338,0.078552246
1601137898883,47,-1.0183105,-0.23760986,0.08294678
1601137898883,48,-1.0209961,-0.23687744,0.085876465
1601137898883,49,-1.0183105,-0.23760986,0.08294678
1601137898884,50,-1.015625,-0.23394775,0.0927124
1601137898913,51,-1.0148926,-0.25738525,0.10223389
1601137898913,52,-1.0148926,-0.25738525,0.10223389
1601137898913,53,-1.0148926,-0.25738525,0.10223389
1601137898914,54,-1.0158691,-0.24371338,0.078552246
1601137898914,55,-1.0209961,-0.23687744,0.085876465
1601137898914,56,-1.0183105,-0.23760986,0.08294678
1601137898914,57,-1.0158691,-0.24371338,0.078552246
1601137898914,58,-1.0158691,-0.24371338,0.078552246
1601137898914,59,-1.0168457,-0.2354126,0.10003662
1601137898915,60,-1.0183105,-0.23760986,0.08294678
1601137898915,61,-1.0229492,-0.24371338,0.09637451
1601137898915,62,-1.0209961,-0.23687744,0.085876465
1601137898915,63,-1.0209961,-0.23687744,0.085876465
1601137898915,64,-1.0183105,-0.23760986,0.08294678
1601137898915,65,-1.0183105,-0.23760986,0.08294678
1601137898916,66,-1.015625,-0.23394775,0.0927124
1601137898916,67,-1.0183105,-0.23760986,0.08294678
1601137898916,68,-1.015625,-0.23394775,0.0927124
1601137898916,69,-1.0168457,-0.26641846,0.077819824
1601137898916,70,-1.015625,-0.23394775,0.0927124
1601137898916,71,-1.015625,-0.23394775,0.0927124
1601137898916,72,-1.0202637,-0.23101807,0.090026855
1601137898917,73,-1.0158691,-0.24371338,0.078552246
1601137898918,74,-1.015625,-0.23394775,0.0927124
1601137898918,75,-1.015625,-0.23394775,0.0927124
1601137898918,76,-1.0168457,-0.2354126,0.10003662
1601137898918,77,-1.0168457,-0.2354126,0.10003662
1601137898919,78,-1.0229492,-0.24371338,0.09637451
1601137898919,79,-1.0229492,-0.24371338,0.09637451
1601137898919,80,-1.0158691,-0.24371338,0.078552246
1601137898919,81,-1.0168457,-0.2354126,0.10003662
1601137898919,82,-1.0158691,-0.24371338,0.078552246
1601137898919,83,-1.0183105,-0.23760986,0.08294678
1601137898919,84,-1.0187988,-0.24639893,0.08514404
1601137898919,85,-1.015625,-0.23394775,0.0927124
1601137898919,86,-1.0168457,-0.2354126,0.10003662
1601137898920,87,-1.020752,-0.2420044,0.08856201
1601137898920,88,-1.0168457,-0.2354126,0.10003662
1601137898920,89,-1.0168457,-0.26641846,0.077819824
1601137898920,90,-1.0241699,-0.24273682,0.089538574
1601137898920,91,-1.0183105,-0.23760986,0.08294678
1601137898920,92,-1.0229492,-0.24371338,0.09637451
1601137898920,93,-1.0183105,-0.23760986,0.08294678
1601137898920,94,-1.0168457,-0.2354126,0.10003662
1601137898920,95,-1.015625,-0.23394775,0.0927124
1601137898921,96,-1.015625,-0.23394775,0.0927124
1601137898921,97,-1.0229492,-0.24371338,0.09637451
1601137898921,98,-1.0168457,-0.2354126,0.10003662
1601137898921,99,-1.0168457,-0.26641846,0.077819824
1601137898921,100,-1.0202637,-0.23101807,0.090026855
1601137898921,101,-1.0195312,-0.23809814,0.09295654
1601137898921,102,-1.0168457,-0.2354126,0.10003662
1601137898921,103,-1.0202637,-0.23101807,0.090026855
1601137898921,104,-1.0229492,-0.24371338,0.09637451
1601137898921,105,-1.0229492,-0.24371338,0.09637451
1601137898921,106,-1.0229492,-0.24371338,0.09637451
1601137898922,107,-1.0168457,-0.26641846,0.077819824
1601137898922,108,-1.0168457,-0.26641846,0.077819824
1601137898922,109,-1.0187988,-0.24639893,0.08514404
1601137898922,110,-1.0202637,-0.23101807,0.090026855
1601137898922,111,-1.0168457,-0.2354126,0.10003662
1601137898922,112,-1.0202637,-0.23101807,0.090026855
1601137898922,113,-1.020752,-0.2420044,0.08856201
1601137898922,114,-1.0251465,-0.22808838,0.093688965
1601137898922,115,-1.0187988,-0.24639893,0.08514404
1601137898922,116,-1.0187988,-0.24639893,0.08514404
1601137898922,117,-1.0187988,-0.24639893,0.08514404
1601137898924,118,-1.0168457,-0.26641846,0.077819824
1601137898924,119,-1.0229492,-0.24371338,0.09637451
1601137898924,120,-1.0229492,-0.24371338,0.09637451
1601137898924,121,-1.0231934,-0.23199463,0.093933105
1601137898929,122,-1.0241699,-0.24273682,0.089538574
1601137898929,123,-1.020752,-0.2420044,0.08856201
1601137898929,124,-1.0214844,-0.21685791,0.09442139
1601137898929,125,-1.0241699,-0.24273682,0.089538574
1601137898929,126,-1.0202637,-0.23101807,0.090026855
1601137898929,127,-1.0168457,-0.26641846,0.077819824
1601137898929,128,-1.0187988,-0.24639893,0.08514404
1601137898930,129,-1.0168457,-0.26641846,0.077819824
1601137898930,130,-1.0168457,-0.26641846,0.077819824
1601137898930,131,-1.0195312,-0.23809814,0.09295654
1601137898934,132,-1.020752,-0.2420044,0.08856201
1601137898934,133,-1.0195312,-0.23809814,0.09295654
1601137898935,134,-1.0241699,-0.24273682,0.089538574
1601137898935,135,-1.0251465,-0.22808838,0.093688965
1601137898935,136,-1.0168457,-0.26641846,0.077819824
1601137898936,137,-1.020752,-0.2420044,0.08856201
1601137898936,138,-1.0202637,-0.23101807,0.090026855
1601137898936,139,-1.0202637,-0.23101807,0.090026855
1601137898936,140,-1.0187988,-0.24639893,0.08514404
1601137898944,141,-1.0251465,-0.22808838,0.093688965
1601137898945,142,-1.0202637,-0.23101807,0.090026855
1601137898945,143,-1.0195312,-0.23809814,0.09295654
1601137898945,144,-1.0224609,-0.22857666,0.08856201
1601137898945,145,-1.0231934,-0.23199463,0.093933105
1601137898945,146,-1.0251465,-0.22808838,0.093688965
1601137898945,147,-1.020752,-0.2420044,0.08856201
1601137898945,148,-1.020752,-0.2420044,0.08856201
1601137898945,149,-1.0231934,-0.23199463,0.093933105
1601137898946,150,-1.0202637,-0.23101807,0.090026855
1601137898946,151,-1.0241699,-0.24273682,0.089538574
1601137898946,152,-1.0231934,-0.23199463,0.093933105
1601137898946,153,-1.0187988,-0.24639893,0.08514404
1601137898946,154,-1.0195312,-0.23809814,0.09295654
1601137898946,155,-1.0200195,-0.23468018,0.09173584
1601137898947,156,-1.0187988,-0.24639893,0.08514404
1601137898947,157,-1.020752,-0.2420044,0.08856201
1601137898947,158,-1.0241699,-0.24273682,0.089538574
1601137898953,159,-1.0214844,-0.21685791,0.09442139
1601137898953,160,-1.0214844,-0.21685791,0.09442139
1601137898953,161,-1.0224609,-0.22857666,0.08856201
1601137898953,162,-1.0224609,-0.22857666,0.08856201
1601137898953,163,-1.0251465,-0.22808838,0.093688965
1601137898953,164,-1.0214844,-0.24468994,0.09539795
1601137898953,165,-1.0241699,-0.24273682,0.089538574
1601137898953,166,-1.0268555,-0.24761963,0.10028076
1601137898953,167,-1.0187988,-0.24639893,0.08514404
1601137898954,168,-1.0195312,-0.23809814,0.09295654
1601137898954,169,-1.0214844,-0.21685791,0.09442139
1601137898958,170,-1.0200195,-0.23468018,0.09173584
1601137898958,171,-1.0224609,-0.22857666,0.08856201
1601137898958,172,-1.0231934,-0.23199463,0.093933105
1601137898958,173,-1.0200195,-0.23468018,0.09173584
1601137898958,174,-1.020752,-0.2420044,0.08856201
1601137898958,175,-1.0195312,-0.23809814,0.09295654
1601137898959,176,-1.0251465,-0.22808838,0.093688965
1601137898959,177,-1.020752,-0.2420044,0.08856201
1601137898959,178,-1.0241699,-0.24273682,0.089538574
1601137898960,179,-1.0285645,-0.237854,0.09906006
1601137898960,180,-1.0214844,-0.24468994,0.09539795
1601137898968,181,-1.0214844,-0.24468994,0.09539795
1601137898968,182,-1.0251465,-0.22808838,0.093688965
1601137898968,183,-1.0200195,-0.23468018,0.09173584
1601137898968,184,-1.0268555,-0.24761963,0.10028076
1601137898968,185,-1.0231934,-0.23199463,0.093933105
1601137898968,186,-1.0241699,-0.24273682,0.089538574
1601137898968,187,-1.0285645,-0.237854,0.09906006
1601137898968,188,-1.0214844,-0.21685791,0.09442139
1601137898969,189,-1.0178223,-0.22393799,0.113464355
1601137898969,190,-1.0195312,-0.23809814,0.09295654
1601137898969,191,-1.0178223,-0.22393799,0.113464355
1601137898969,192,-1.0251465,-0.22808838,0.093688965
1601137898969,193,-1.0214844,-0.24468994,0.09539795
1601137898969,194,-1.027832,-0.23394775,0.1161499
1601137898969,195,-1.0268555,-0.24761963,0.10028076
1601137898970,196,-1.0214844,-0.21685791,0.09442139
1601137898973,197,-1.0268555,-0.24761963,0.10028076
1601137898973,198,-1.0224609,-0.22857666,0.08856201
1601137898974,199,-1.0231934,-0.23199463,0.093933105
1601137898974,200,-1.0285645,-0.237854,0.09906006
1601137898974,201,-1.0437012,-0.23223877,0.13006592
1601137898974,202,-1.0214844,-0.21685791,0.09442139
1601137898974,203,-1.0178223,-0.22393799,0.113464355
1601137898974,204,-1.027832,-0.23394775,0.1161499
1601137898974,205,-1.027832,-0.23394775,0.1161499
1601137898974,206,-1.0366211,-0.21710205,0.14398193
1601137898981,207,-1.0200195,-0.23468018,0.09173584
1601137898981,208,-1.0195312,-0.23809814,0.09295654
1601137898981,209,-1.0231934,-0.23199463,0.093933105
1601137898981,210,-1.0214844,-0.24468994,0.09539795
1601137898981,211,-1.0224609,-0.22857666,0.08856201
1601137898981,212,-1.0251465,-0.22808838,0.093688965
1601137898982,213,-1.0200195,-0.23468018,0.09173584
1601137898982,214,-1.0231934,-0.23199463,0.093933105
1601137898982,215,-1.0437012,-0.23223877,0.13006592
1601137898982,216,-1.0112305,-0.19146729,0.15106201
1601137898982,217,-1.0214844,-0.21685791,0.09442139
1601137898982,218,-1.0214844,-0.21685791,0.09442139
1601137898982,219,-1.0366211,-0.21710205,0.14398193
1601137898982,220,-1.0268555,-0.24761963,0.10028076
1601137898982,221,-1.0285645,-0.237854,0.09906006
1601137898982,222,-1.0437012,-0.23223877,0.13006592
1601137898983,223,-1.0224609,-0.22857666,0.08856201
1601137898983,224,-1.0366211,-0.21710205,0.14398193
1601137898984,225,-1.0031738,-0.20318604,0.15838623
1601137898990,226,-1.0112305,-0.19146729,0.15106201
1601137898990,227,-1.0285645,-0.237854,0.09906006
1601137898991,228,-1.0224609,-0.22857666,0.08856201
1601137898991,229,-1.0178223,-0.22393799,0.113464355
1601137898991,230,-1.0178223,-0.22393799,0.113464355
1601137898991,231,-1.0214844,-0.24468994,0.09539795
1601137898991,232,-1.027832,-0.23394775,0.1161499
1601137898991,233,-1.0200195,-0.23468018,0.09173584
1601137898991,234,-1.0241699,-0.24273682,0.089538574
1601137898991,235,-1.0153809,-0.1807251,0.15008545
1601137898991,236,-1.0031738,-0.20318604,0.15838623
1601137899007,237,-1.0200195,-0.23468018,0.09173584
1601137899007,238,-1.0112305,-0.19146729,0.15106201
1601137899008,239,-1.027832,-0.23394775,0.1161499
1601137899008,240,-1.0031738,-0.20318604,0.15838623
1601137899008,241,-1.0437012,-0.23223877,0.13006592
1601137899008,242,-1.0153809,-0.1807251,0.15008545
1601137899008,243,-1.0214844,-0.24468994,0.09539795
1601137899010,244,-0.9699707,-0.014221191,0.16912842
1601137899010,245,-1.0224609,-0.22857666,0.08856201
1601137899010,246,-1.0268555,-0.24761963,0.10028076
1601137899010,247,-1.0268555,-0.24761963,0.10028076
1601137899010,248,-1.0437012,-0.23223877,0.13006592
1601137899010,249,-1.0366211,-0.21710205,0.14398193
1601137899010,250,-1.0195312,-0.23809814,0.09295654
1601137899010,251,-1.0153809,-0.1807251,0.15008545
1601137899010,252,-1.0251465,-0.22808838,0.093688965
1601137899011,253,-0.9699707,-0.014221191,0.16912842
1601137899011,254,-1.0231934,-0.23199463,0.093933105
1601137899011,255,-1.0366211,-0.21710205,0.14398193
1601137899011,256,-1.0285645,-0.237854,0.09906006
1601137899011,257,-1.0112305,-0.19146729,0.15106201
1601137899011,258,-1.0285645,-0.237854,0.09906006
1601137899011,259,-0.9699707,-0.014221191,0.16912842
1601137899011,260,-1.0178223,-0.22393799,0.113464355
1601137899011,261,-1.0200195,-0.23468018,0.09173584
1601137899012,262,-1.0214844,-0.24468994,0.09539795
1601137899012,263,-1.0268555,-0.24761963,0.10028076
1601137899012,264,-1.0214844,-0.21685791,0.09442139
1601137899012,265,-1.0031738,-0.20318604,0.15838623
1601137899012,266,-1.0178223,-0.22393799,0.113464355
1601137899021,267,-1.027832,-0.23394775,0.1161499
1601137899022,268,-1.0214844,-0.24468994,0.09539795
1601137899023,269,-1.0268555,-0.24761963,0.10028076
1601137899025,270,-1.0112305,-0.19146729,0.15106201
1601137899025,271,-1.0285645,-0.237854,0.09906006
1601137899026,272,-1.0153809,-0.1807251,0.15008545
1601137899026,273,-1.0224609,-0.22857666,0.08856201
1601137899026,274,-1.0285645,-0.237854,0.09906006
1601137899026,275,-1.0031738,-0.20318604,0.15838623
1601137899026,276,-1.027832,-0.23394775,0.1161499
1601137899026,277,-1.0178223,-0.22393799,0.113464355
1601137899026,278,-1.0200195,-0.23468018,0.09173584
1601137899026,279,-0.9699707,-0.014221191,0.16912842
1601137899026,280,-1.0437012,-0.23223877,0.13006592
1601137899026,281,-1.0178223,-0.22393799,0.113464355
1601137899026,282,-1.0437012,-0.23223877,0.13006592
1601137899026,283,-1.027832,-0.23394775,0.1161499
1601137899026,284,-1.0153809,-0.1807251,0.15008545
1601137899026,285,-1.0437012,-0.23223877,0.13006592
1601137899027,286,-1.0366211,-0.21710205,0.14398193
1601137899027,287,-1.0366211,-0.21710205,0.14398193
1601137899027,288,-0.9699707,-0.014221191,0.16912842
1601137899027,289,-1.0112305,-0.19146729,0.15106201
1601137899027,290,-1.0214844,-0.24468994,0.09539795
1601137899027,291,-1.027832,-0.23394775,0.1161499
1601137899027,292,-1.0112305,-0.19146729,0.15106201
1601137899027,293,-1.0366211,-0.21710205,0.14398193
1601137899027,294,-1.0437012,-0.23223877,0.13006592
1601137899027,295,-1.0031738,-0.20318604,0.15838623
1601137899027,296,-1.0268555,-0.24761963,0.10028076
1601137899028,297,-1.0031738,-0.20318604,0.15838623
1601137899030,298,-1.0366211,-0.21710205,0.14398193
1601137899030,299,-1.0153809,-0.1807251,0.15008545
1601137899031,300,-1.0285645,-0.237854,0.09906006
1601137899031,301,-1.0153809,-0.1807251,0.15008545
1601137899031,302,-1.0112305,-0.19146729,0.15106201
1601137899031,303,-1.0112305,-0.19146729,0.15106201
1601137899033,304,-0.9699707,-0.014221191,0.16912842
1601137899033,305,-0.9699707,-0.014221191,0.16912842
1601137899035,306,-1.0178223,-0.22393799,0.113464355
1601137899036,307,-1.0031738,-0.20318604,0.15838623
1601137899037,308,-1.0031738,-0.20318604,0.15838623
1601137899037,309,-1.0153809,-0.1807251,0.15008545
1601137899038,310,-1.027832,-0.23394775,0.1161499
1601137899040,311,-0.9699707,-0.014221191,0.16912842
1601137899040,312,-1.0437012,-0.23223877,0.13006592
1601137899040,313,-1.0153809,-0.1807251,0.15008545
1601137899040,314,-1.0366211,-0.21710205,0.14398193
1601137899041,315,-1.0112305,-0.19146729,0.15106201
1601137899042,316,-0.9699707,-0.014221191,0.16912842
1601137899043,317,-1.0031738,-0.20318604,0.15838623
1601137899043,318,-1.0153809,-0.1807251,0.15008545
1601137899044,319,-0.9699707,-0.014221191,0.16912842
1601137901200,320,-1.0180664,-0.13897705,0.13128662
1601137901201,321,-1.0080566,-0.24664307,0.09442139
1601137901201,322,-0.9838867,-0.27471924,0.08026123
1601137901201,323,-1.0180664,-0.13897705,0.13128662
1601137901201,324,-0.9772949,-0.24371338,0.13201904
1601137901201,325,-1.0180664,-0.13897705,0.13128662
1601137901201,326,-1.0180664,-0.13897705,0.13128662
1601137901205,327,-1.0180664,-0.13897705,0.13128662
1601137901206,328,-1.0180664,-0.13897705,0.13128662
1601137901206,329,-1.0080566,-0.24664307,0.09442139
1601137901206,330,-1.0080566,-0.24664307,0.09442139
1601137901206,331,-1.0180664,-0.13897705,0.13128662
1601137901206,332,-1.0180664,-0.13897705,0.13128662
1601137901206,333,-1.0180664,-0.13897705,0.13128662
1601137901206,334,-0.9838867,-0.27471924,0.08026123
1601137901206,335,-1.0290527,-0.23687744,0.20550537
1601137901207,336,-0.9772949,-0.24371338,0.13201904
1601137901207,337,-1.0180664,-0.13897705,0.13128662
1601137901207,338,-1.0080566,-0.24664307,0.09442139
1601137901213,339,-1.0080566,-0.24664307,0.09442139
1601137901214,340,-1.0080566,-0.24664307,0.09442139
1601137901214,341,-1.0080566,-0.24664307,0.09442139
1601137901214,342,-0.9838867,-0.27471924,0.08026123
1601137901214,343,-1.0080566,-0.24664307,0.09442139
1601137901214,344,-0.9838867,-0.27471924,0.08026123
1601137901214,345,-1.0290527,-0.23687744,0.20550537
1601137901215,346,-1.0080566,-0.24664307,0.09442139
1601137901215,347,-0.9772949,-0.24371338,0.13201904
1601137901215,348,-1.0688477,-0.0960083,0.2616577
1601137901224,349,-1.0080566,-0.24664307,0.09442139
1601137901225,350,-0.9838867,-0.27471924,0.08026123
1601137901225,351,-0.9838867,-0.27471924,0.08026123
1601137901225,352,-0.9772949,-0.24371338,0.13201904
1601137901225,353,-0.9838867,-0.27471924,0.08026123
1601137901225,354,-0.9838867,-0.27471924,0.08026123
1601137901225,355,-1.0688477,-0.0960083,0.2616577
1601137901225,356,-0.9772949,-0.24371338,0.13201904
1601137901226,357,-1.1220703,0.01727295,0.20574951
1601137901226,358,-0.9838867,-0.27471924,0.08026123
1601137901226,359,-1.0375977,0.0065307617,0.078063965
1601137901226,360,-0.9838867,-0.27471924,0.08026123
1601137901226,361,-0.9941406,0.02166748,0.074401855
1601137901226,362,-0.9772949,-0.24371338,0.13201904
1601137901226,363,-0.9772949,-0.24371338,0.13201904
1601137901226,364,-0.9772949,-0.24371338,0.13201904
1601137901226,365,-1.0290527,-0.23687744,0.20550537
1601137901226,366,-1.0290527,-0.23687744,0.20550537
1601137901227,367,-1.1220703,0.01727295,0.20574951
1601137901227,368,-0.9772949,-0.24371338,0.13201904
1601137901228,369,-0.96728516,0.13323975,0.07635498
1601137901230,370,-1.0290527,-0.23687744,0.20550537
1601137901239,371,-1.0290527,-0.23687744,0.20550537
1601137901239,372,-1.0688477,-0.0960083,0.2616577
1601137901240,373,-1.0688477,-0.0960083,0.2616577
1601137901240,374,-1.0375977,0.0065307617,0.078063965
1601137901240,375,-1.1220703,0.01727295,0.20574951
1601137901240,376,-0.9941406,0.02166748,0.074401855
1601137901240,377,-1.0375977,0.0065307617,0.078063965
1601137901240,378,-1.0290527,-0.23687744,0.20550537
1601137901240,379,-1.0688477,-0.0960083,0.2616577
1601137901240,380,-1.0290527,-0.23687744,0.20550537
1601137901241,381,-1.0688477,-0.0960083,0.2616577
1601137901241,382,-1.1220703,0.01727295,0.20574951
1601137901241,383,-1.0290527,-0.23687744,0.20550537
1601137901242,384,-1.1220703,0.01727295,0.20574951
1601137901242,385,-1.0375977,0.0065307617,0.078063965
1601137901242,386,-0.96728516,0.13323975,0.07635498
1601137901242,387,-0.9772949,-0.24371338,0.13201904
1601137901242,388,-1.0959473,0.105163574,0.046081543
1601137901242,389,-0.9941406,0.02166748,0.074401855
1601137901242,390,-1.0688477,-0.0960083,0.2616577
1601137901251,391,-1.0688477,-0.0960083,0.2616577
1601137901251,392,-1.0375977,0.0065307617,0.078063965
1601137901251,393,-1.0688477,-0.0960083,0.2616577
1601137901251,394,-1.0290527,-0.23687744,0.20550537
1601137901251,395,-1.1220703,0.01727295,0.20574951
1601137901251,396,-1.1220703,0.01727295,0.20574951
1601137901252,397,-1.0688477,-0.0960083,0.2616577
1601137901252,398,-0.9941406,0.02166748,0.074401855
1601137901252,399,-1.1220703,0.01727295,0.20574951
1601137901252,400,-1.1220703,0.01727295,0.20574951
1601137901259,401,-0.9941406,0.02166748,0.074401855
1601137901259,402,-1.1687012,-0.09942627,-0.0256958
1601137901259,403,-1.0959473,0.105163574,0.046081543
1601137901259,404,-0.96728516,0.13323975,0.07635498
1601137901259,405,-1.0375977,0.0065307617,0.078063965
1601137901259,406,-1.0375977,0.0065307617,0.078063965
1601137901259,407,-0.9941406,0.02166748,0.074401855
1601137901259,408,-0.96728516,0.13323975,0.07635498
1601137901259,409,-1.0375977,0.0065307617,0.078063965
1601137901261,410,-0.96728516,0.13323975,0.07635498
1601137901283,411,-1.2941895,-0.2522583,-0.050354004
1601137901283,412,-1.0959473,0.105163574,0.046081543
1601137901283,413,-0.96728516,0.13323975,0.07635498
1601137901283,414,-1.0375977,0.0065307617,0.078063965
1601137901283,415,-1.0959473,0.105163574,0.046081543
1601137901283,416,-0.9941406,0.02166748,0.074401855
1601137901283,417,-0.9941406,0.02166748,0.074401855
1601137901283,418,-0.96728516,0.13323975,0.07635498
1601137901284,419,-1.1687012,-0.09942627,-0.0256958
1601137901284,420,-1.0959473,0.105163574,0.046081543
1601137901284,421,-1.1550293,-0.28936768,-0.058166504
1601137901284,422,-1.0959473,0.105163574,0.046081543
1601137901284,423,-0.9794922,-0.1272583,-0.022521973
1601137901284,424,-1.2941895,-0.2522583,-0.050354004
1601137901284,425,-1.0959473,0.105163574,0.046081543
1601137901284,426,-1.1550293,-0.28936768,-0.058166504
1601137901284,427,-1.1687012,-0.09942627,-0.0256958
1601137901285,428,-0.9794922,-0.1272583,-0.022521973
1601137901285,429,-0.96728516,0.13323975,0.07635498
1601137901285,430,-1.1308594,-0.26885986,-0.078430176
1601137901285,431,-1.1220703,0.01727295,0.20574951
1601137901285,432,-1.1687012,-0.09942627,-0.0256958
1601137901285,433,-1.0959473,0.105163574,0.046081543
1601137901285,434,-1.0375977,0.0065307617,0.078063965
1601137901285,435,-1.1687012,-0.09942627,-0.0256958
1601137901285,436,-0.9941406,0.02166748,0.074401855
1601137901286,437,-1.1687012,-0.09942627,-0.0256958
1601137901286,438,-0.9941406,0.02166748,0.074401855
1601137901286,439,-1.3024902,-0.20611572,-0.12506104
1601137901286,440,-1.1687012,-0.09942627,-0.0256958
1601137901286,441,-1.2941895,-0.2522583,-0.050354004
1601137901286,442,-1.2941895,-0.2522583,-0.050354004
1601137901286,443,-1.2248535,-0.13824463,-0.14068604
1601137901286,444,-0.96728516,0.13323975,0.07635498
1601137901286,445,-1.1308594,-0.26885986,-0.078430176
1601137901287,446,-1.1550293,-0.28936768,-0.058166504
1601137901287,447,-1.2941895,-0.2522583,-0.050354004
1601137901287,448,-0.953125,-0.1506958,-0.11090088
1601137901287,449,-1.3024902,-0.20611572,-0.12506104
1601137901287,450,-0.96728516,0.13323975,0.07635498
1601137901287,451,-0.7529297,-0.14337158,-0.09820557
1601137901288,452,-1.1687012,-0.09942627,-0.0256958
1601137901291,453,-1.0959473,0.105163574,0.046081543
1601137901292,454,-1.2941895,-0.2522583,-0.050354004
1601137901292,455,-1.2941895,-0.2522583,-0.050354004
1601137901292,456,-1.1550293,-0.28936768,-0.058166504
1601137901292,457,-1.1550293,-0.28936768,-0.058166504
1601137901293,458,-1.2248535,-0.13824463,-0.14068604
1601137901293,459,-0.9794922,-0.1272583,-0.022521973
1601137901294,460,-1.1550293,-0.28936768,-0.058166504
1601137901294,461,-1.1308594,-0.26885986,-0.078430176
1601137901294,462,-1.0959473,0.105163574,0.046081543
1601137901294,463,-1.3024902,-0.20611572,-0.12506104
1601137901294,464,-1.1687012,-0.09942627,-0.0256958
1601137901299,465,-1.1550293,-0.28936768,-0.058166504
1601137901299,466,-1.2941895,-0.2522583,-0.050354004
1601137901299,467,-0.953125,-0.1506958,-0.11090088
1601137901299,468,-1.2941895,-0.2522583,-0.050354004
1601137901299,469,-1.1550293,-0.28936768,-0.058166504
1601137901299,470,-0.9794922,-0.1272583,-0.022521973
1601137901300,471,-1.1550293,-0.28936768,-0.058166504
1601137901300,472,-1.1308594,-0.26885986,-0.078430176
1601137901300,473,-0.9794922,-0.1272583,-0.022521973
1601137901300,474,-0.75634766,-0.16827393,-0.10333252
1601137901301,475,-0.9794922,-0.1272583,-0.022521973
1601137901302,476,-0.9794922,-0.1272583,-0.022521973
1601137901303,477,-0.7529297,-0.14337158,-0.09820557
1601137901312,478,-1.3024902,-0.20611572,-0.12506104
1601137901312,479,-0.9794922,-0.1272583,-0.022521973
1601137901312,480,-1.1308594,-0.26885986,-0.078430176
1601137901312,481,-0.9519043,-0.2588501,-0.10308838
1601137901312,482,-0.9794922,-0.1272583,-0.022521973
1601137901313,483,-1.1308594,-0.26885986,-0.078430176
1601137901313,484,-1.2248535,-0.13824463,-0.14068604
1601137901313,485,-1.3024902,-0.20611572,-0.12506104
1601137901313,486,-1.1308594,-0.26885986,-0.078430176
1601137901313,487,-0.953125,-0.1506958,-0.11090088
1601137901346,488,-0.75634766,-0.16827393,-0.10333252
1601137901346,489,-1.1308594,-0.26885986,-0.078430176
1601137901346,490,-1.3024902,-0.20611572,-0.12506104
1601137901346,491,-1.2197266,-0.51275635,-0.12579346
1601137901346,492,-1.1308594,-0.26885986,-0.078430176
1601137901346,493,-1.1687012,-0.09942627,-0.0256958
1601137901346,494,-1.128418,-0.40997314,-0.12188721
1601137901346,495,-1.2248535,-0.13824463,-0.14068604
1601137901346,496,-1.2941895,-0.2522583,-0.050354004
1601137901346,497,-1.3024902,-0.20611572,-0.12506104
1601137901346,498,-0.9519043,-0.2588501,-0.10308838
1601137901347,499,-1.3024902,-0.20611572,-0.12506104
1601137901347,500,-1.1550293,-0.28936768,-0.058166504
1601137901347,501,-1.2248535,-0.13824463,-0.14068604
1601137901347,502,-0.7529297,-0.14337158,-0.09820557
1601137901347,503,-0.953125,-0.1506958,-0.11090088
1601137901347,504,-1.2197266,-0.51275635,-0.12579346
1601137901347,505,-0.7529297,-0.14337158,-0.09820557
1601137901347,506,-0.953125,-0.1506958,-0.11090088
1601137901347,507,-1.128418,-0.40997314,-0.12188721
1601137901347,508,-1.2248535,-0.13824463,-0.14068604
1601137901347,509,-1.2248535,-0.13824463,-0.14068604
1601137901347,510,-0.9794922,-0.1272583,-0.022521973
1601137901347,511,-0.953125,-0.1506958,-0.11090088
1601137901347,512,-0.7529297,-0.14337158,-0.09820557
1601137901347,513,-0.7529297,-0.14337158,-0.09820557
1601137901347,514,-1.3024902,-0.20611572,-0.12506104
1601137901348,515,-1.2248535,-0.13824463,-0.14068604
1601137901348,516,-1.0004883,-0.5064087,-0.038146973
1601137901355,517,-1.1308594,-0.26885986,-0.078430176
1601137901357,518,-0.953125,-0.1506958,-0.11090088
1601137901357,519,-0.75634766,-0.16827393,-0.10333252
1601137901357,520,-0.953125,-0.1506958,-0.11090088
1601137901357,521,-0.75634766,-0.16827393,-0.10333252
1601137901357,522,-0.9519043,-0.2588501,-0.10308838
1601137901357,523,-0.75634766,-0.16827393,-0.10333252
1601137901357,524,-0.9458008,-0.44073486,-0.020812988
1601137901357,525,-1.3024902,-0.20611572,-0.12506104
1601137901357,526,-0.7529297,-0.14337158,-0.09820557
1601137901357,527,-0.75634766,-0.16827393,-0.10333252
1601137901357,528,-0.75634766,-0.16827393,-0.10333252
1601137901358,529,-0.7529297,-0.14337158,-0.09820557
1601137901358,530,-0.9519043,-0.2588501,-0.10308838
1601137901358,531,-0.9519043,-0.2588501,-0.10308838
1601137901358,532,-1.2197266,-0.51275635,-0.12579346
1601137901358,533,-1.2197266,-0.51275635,-0.12579346
1601137901358,534,-0.9519043,-0.2588501,-0.10308838
1601137901358,535,-1.0693359,-0.5161743,0.025817871
1601137901358,536,-1.2248535,-0.13824463,-0.14068604
1601137901358,537,-0.9519043,-0.2588501,-0.10308838
1601137901359,538,-1.2248535,-0.13824463,-0.14068604
1601137901359,539,-1.0004883,-0.5064087,-0.038146973
1601137901360,540,-1.2197266,-0.51275635,-0.12579346
1601137901361,541,-1.208252,-0.39117432,-0.018127441
1601137901370,542,-0.953125,-0.1506958,-0.11090088
1601137901370,543,-1.2197266,-0.51275635,-0.12579346
1601137901370,544,-0.75634766,-0.16827393,-0.10333252
1601137901371,545,-1.128418,-0.40997314,-0.12188721
1601137901371,546,-0.9519043,-0.2588501,-0.10308838
1601137901371,547,-1.128418,-0.40997314,-0.12188721
1601137901371,548,-1.2197266,-0.51275635,-0.12579346
1601137901371,549,-1.128418,-0.40997314,-0.12188721
1601137901371,550,-0.953125,-0.1506958,-0.11090088
1601137901371,551,-1.0004883,-0.5064087,-0.038146973
1601137901371,552,-1.2675781,-0.31134033,-0.010070801
1601137901371,553,-0.7529297,-0.14337158,-0.09820557
1601137901371,554,-1.1787109,-0.19708252,-0.036193848
1601137901371,555,-1.2197266,-0.51275635,-0.12579346
1601137901371,556,-1.2006836,-0.1921997,-0.109436035
1601137901371,557,-1.0004883,-0.5064087,-0.038146973
1601137901371,558,-1.0004883,-0.5064087,-0.038146973
1601137901372,559,-1.128418,-0.40997314,-0.12188721
1601137901372,560,-0.9458008,-0.44073486,-0.020812988
1601137901373,561,-0.7529297,-0.14337158,-0.09820557
1601137901374,562,-0.75634766,-0.16827393,-0.10333252
1601137901381,563,-1.1699219,-0.2366333,-0.034729004
1601137901381,564,-0.9458008,-0.44073486,-0.020812988
1601137901381,565,-1.0004883,-0.5064087,-0.038146973
1601137901381,566,-0.9458008,-0.44073486,-0.020812988
1601137901381,567,-1.128418,-0.40997314,-0.12188721
1601137901381,568,-1.0693359,-0.5161743,0.025817871
1601137901381,569,-0.75634766,-0.16827393,-0.10333252
1601137901381,570,-1.208252,-0.39117432,-0.018127441
1601137901381,571,-0.9458008,-0.44073486,-0.020812988
1601137901381,572,-0.9519043,-0.2588501,-0.10308838
1601137901388,573,-1.0693359,-0.5161743,0.025817871
1601137901388,574,-0.9458008,-0.44073486,-0.020812988
1601137901389,575,-1.0004883,-0.5064087,-0.038146973
1601137901389,576,-1.208252,-0.39117432,-0.018127441
1601137901389,577,-1.0693359,-0.5161743,0.025817871
1601137901389,578,-0.9519043,-0.2588501,-0.10308838
1601137901389,579,-1.2675781,-0.31134033,-0.010070801
1601137901389,580,-1.208252,-0.39117432,-0.018127441
1601137901389,581,-1.0693359,-0.5161743,0.025817871
1601137901389,582,-1.2197266,-0.51275635,-0.12579346
1601137901389,583,-1.208252,-0.39117432,-0.018127441
1601137901389,584,-1.2197266,-0.51275635,-0.12579346
1601137901389,585,-1.128418,-0.40997314,-0.12188721
1601137901389,586,-1.0693359,-0.5161743,0.025817871
1601137901390,587,-1.128418,-0.40997314,-0.12188721
1601137901390,588,-1.1787109,-0.19708252,-0.036193848
1601137901392,589,-0.9458008,-0.44073486,-0.020812988
1601137901392,590,-1.0693359,-0.5161743,0.025817871
1601137901394,591,-1.208252,-0.39117432,-0.018127441
1601137901395,592,-1.2675781,-0.31134033,-0.010070801
1601137901395,593,-1.208252,-0.39117432,-0.018127441
1601137901395,594,-1.1787109,-0.19708252,-0.036193848
1601137901395,595,-1.2006836,-0.1921997,-0.109436035
1601137901395,596,-1.2675781,-0.31134033,-0.010070801
1601137901395,597,-1.1699219,-0.2366333,-0.034729004
1601137901395,598,-1.0004883,-0.5064087,-0.038146973
1601137901414,599,-1.2675781,-0.31134033,-0.010070801
1601137901415,600,-1.2675781,-0.31134033,-0.010070801
1601137901415,601,-1.0004883,-0.5064087,-0.038146973
1601137901415,602,-1.2675781,-0.31134033,-0.010070801
1601137901415,603,-0.9458008,-0.44073486,-0.020812988
1601137901416,604,-1.128418,-0.40997314,-0.12188721
1601137901416,605,-1.1787109,-0.19708252,-0.036193848
1601137901416,606,-0.9458008,-0.44073486,-0.020812988
1601137901416,607,-1.1787109,-0.19708252,-0.036193848
1601137901416,608,-1.2006836,-0.1921997,-0.109436035
1601137901416,609,-1.1787109,-0.19708252,-0.036193848
1601137901416,610,-1.1699219,-0.2366333,-0.034729004
1601137901416,611,-1.0693359,-0.5161743,0.025817871
1601137901417,612,-1.0004883,-0.5064087,-0.038146973
1601137901417,613,-1.0693359,-0.5161743,0.025817871
1601137901417,614,-1.208252,-0.39117432,-0.018127441
1601137901417,615,-1.2006836,-0.1921997,-0.109436035
1601137901417,616,-1.2006836,-0.1921997,-0.109436035
1601137901417,617,-1.2006836,-0.1921997,-0.109436035
1601137901417,618,-1.1787109,-0.19708252,-0.036193848
1601137901417,619,-1.208252,-0.39117432,-0.018127441
1601137901418,620,-0.9458008,-0.44073486,-0.020812988
1601137901418,621,-1.2006836,-0.1921997,-0.109436035
1601137901418,622,-1.2675781,-0.31134033,-0.010070801
1601137901418,623,-1.2675781,-0.31134033,-0.010070801
1601137901418,624,-1.1699219,-0.2366333,-0.034729004
1601137901418,625,-1.1787109,-0.19708252,-0.036193848
1601137901418,626,-1.1699219,-0.2366333,-0.034729004
1601137901418,627,-1.0693359,-0.5161743,0.025817871
1601137901418,628,-1.1787109,-0.19708252,-0.036193848
1601137901418,629,-1.1699219,-0.2366333,-0.034729004
1601137901418,630,-1.2006836,-0.1921997,-0.109436035
1601137901418,631,-1.2006836,-0.1921997,-0.109436035
1601137901418,632,-1.1699219,-0.2366333,-0.034729004
1601137901418,633,-1.208252,-0.39117432,-0.018127441
1601137901418,634,-1.1699219,-0.2366333,-0.034729004
1601137901418,635,-1.2675781,-0.31134033,-0.010070801
1601137901418,636,-1.1699219,-0.2366333,-0.034729004
1601137901419,637,-1.1787109,-0.19708252,-0.036193848
1601137901419,638,-1.2006836,-0.1921997,-0.109436035
1601137901421,639,-1.1699219,-0.2366333,-0.034729004
1601137903738,640,-0.9470215,-0.18463135,0.024353027
1601137903738,641,-0.9470215,-0.18463135,0.024353027
1601137903738,642,-0.9470215,-0.18463135,0.024353027
1601137903738,643,-0.9470215,-0.18463135,0.024353027
1601137903741,644,-0.9470215,-0.18463135,0.024353027
1601137903741,645,-0.9667969,-0.19073486,0.043640137
1601137903741,646,-0.9470215,-0.18463135,0.024353027
1601137903742,647,-0.890625,-0.09088135,0.05657959
1601137903742,648,-0.9667969,-0.19073486,0.043640137
1601137903742,649,-0.857666,-0.105041504,0.09954834
1601137903742,650,-0.9667969,-0.19073486,0.043640137
1601137903742,651,-0.9470215,-0.18463135,0.024353027
1601137903742,652,-0.9470215,-0.18463135,0.024353027
1601137903743,653,-0.890625,-0.09088135,0.05657959
1601137903743,654,-0.890625,-0.09088135,0.05657959
1601137903749,655,-0.9001465,-0.14141846,0.12884521
1601137903750,656,-0.9667969,-0.19073486,0.043640137
1601137903750,657,-0.9470215,-0.18463135,0.024353027
1601137903750,658,-0.9667969,-0.19073486,0.043640137
1601137903750,659,-0.890625,-0.09088135,0.05657959
1601137903750,660,-0.9667969,-0.19073486,0.043640137
1601137903750,661,-0.9667969,-0.19073486,0.043640137
1601137903750,662,-0.857666,-0.105041504,0.09954834
1601137903750,663,-0.857666,-0.105041504,0.09954834
1601137903758,664,-0.9667969,-0.19073486,0.043640137
1601137903758,665,-0.9406738,-0.17852783,0.06536865
1601137903758,666,-0.9470215,-0.18463135,0.024353027
1601137903759,667,-0.890625,-0.09088135,0.05657959
1601137903759,668,-0.9667969,-0.19073486,0.043640137
1601137903759,669,-0.857666,-0.105041504,0.09954834
1601137903759,670,-0.890625,-0.09088135,0.05657959
1601137903759,671,-0.890625,-0.09088135,0.05657959
1601137903759,672,-0.9001465,-0.14141846,0.12884521
1601137903759,673,-0.857666,-0.105041504,0.09954834
1601137903759,674,-0.857666,-0.105041504,0.09954834
1601137903759,675,-0.9001465,-0.14141846,0.12884521
1601137903760,676,-0.9001465,-0.14141846,0.12884521
1601137903760,677,-0.857666,-0.105041504,0.09954834
1601137903764,678,-0.9001465,-0.14141846,0.12884521
1601137903765,679,-0.9406738,-0.17852783,0.06536865
1601137903765,680,-0.9406738,-0.17852783,0.06536865
1601137903765,681,-0.890625,-0.09088135,0.05657959
1601137903765,682,-1.0324707,-0.26104736,0.030456543
1601137903765,683,-1.0324707,-0.26104736,0.030456543
1601137903765,684,-1.0437012,-0.28155518,0.054382324
1601137903766,685,-0.9406738,-0.17852783,0.06536865
1601137903766,686,-1.0437012,-0.28155518,0.054382324
1601137903766,687,-0.9406738,-0.17852783,0.06536865
1601137903766,688,-0.9001465,-0.14141846,0.12884521
1601137903766,689,-1.0324707,-0.26104736,0.030456543
1601137903768,690,-0.9667969,-0.19073486,0.043640137
1601137903768,691,-1.0500488,-0.28155518,0.06781006
1601137903773,692,-0.9001465,-0.14141846,0.12884521
1601137903773,693,-1.0324707,-0.26104736,0.030456543
1601137903773,694,-1.0324707,-0.26104736,0.030456543
1601137903773,695,-0.9406738,-0.17852783,0.06536865
1601137903773,696,-0.857666,-0.105041504,0.09954834
1601137903773,697,-1.0437012,-0.28155518,0.054382324
1601137903773,698,-0.890625,-0.09088135,0.05657959
1601137903773,699,-0.9001465,-0.14141846,0.12884521
1601137903773,700,-1.0500488,-0.28155518,0.06781006
1601137903780,701,-0.9406738,-0.17852783,0.06536865
1601137903780,702,-1.0324707,-0.26104736,0.030456543
1601137903780,703,-1.0500488,-0.28155518,0.06781006
1601137903781,704,-1.0085449,-0.31549072,0.059509277
1601137903781,705,-1.0437012,-0.28155518,0.054382324
1601137903781,706,-0.857666,-0.105041504,0.09954834
1601137903781,707,-0.890625,-0.09088135,0.05657959
1601137903781,708,-1.0085449,-0.31549072,0.059509277
1601137903781,709,-1.0500488,-0.28155518,0.06781006
1601137903781,710,-1.0437012,-0.28155518,0.054382324
1601137903781,711,-1.1940918,-0.3743286,0.044128418
1601137903781,712,-1.0437012,-0.28155518,0.054382324
1601137903782,713,-1.1940918,-0.3743286,0.044128418
1601137903796,714,-0.9406738,-0.17852783,0.06536865
1601137903796,715,-0.857666,-0.105041504,0.09954834
1601137903796,716,-1.0085449,-0.31549072,0.059509277
1601137903796,717,-0.9001465,-0.14141846,0.12884521
1601137903797,718,-1.1940918,-0.3743286,0.044128418
1601137903797,719,-1.0500488,-0.28155518,0.06781006
1601137903797,720,-1.0324707,-0.26104736,0.030456543
1601137903797,721,-1.0500488,-0.28155518,0.06781006
1601137903797,722,-1.3723145,-0.34698486,0.031433105
1601137903797,723,-0.9001465,-0.14141846,0.12884521
1601137903797,724,-1.0437012,-0.28155518,0.054382324
1601137903797,725,-1.0085449,-0.31549072,0.059509277
1601137903797,726,-0.9406738,-0.17852783,0.06536865
1601137903798,727,-1.0085449,-0.31549072,0.059509277
1601137903798,728,-0.9406738,-0.17852783,0.06536865
1601137903798,729,-1.0324707,-0.26104736,0.030456543
1601137903798,730,-1.0085449,-0.31549072,0.059509277
1601137903799,731,-1.1760254,-0.26739502,-0.014221191
1601137903800,732,-1.3723145,-0.34698486,0.031433105
1601137903800,733,-1.1940918,-0.3743286,0.044128418
1601137903802,734,-1.3723145,-0.34698486,0.031433105
1601137903810,735,-1.0324707,-0.26104736,0.030456543
1601137903810,736,-1.1940918,-0.3743286,0.044128418
1601137903811,737,-1.0324707,-0.26104736,0.030456543
1601137903829,738,-1.0500488,-0.28155518,0.06781006
1601137903829,739,-1.3723145,-0.34698486,0.031433105
1601137903829,740,-1.0085449,-0.31549072,0.059509277
1601137903829,741,-1.0437012,-0.28155518,0.054382324
1601137903829,742,-1.1760254,-0.26739502,-0.014221191
1601137903829,743,-1.1940918,-0.3743286,0.044128418
1601137903829,744,-1.3723145,-0.34698486,0.031433105
1601137903831,745,-1.0935059,-0.26397705,-0.05670166
1601137903831,746,-1.3723145,-0.34698486,0.031433105
1601137903831,747,-1.0935059,-0.26397705,-0.05670166
1601137903831,748,-1.0437012,-0.28155518,0.054382324
1601137903832,749,-1.1760254,-0.26739502,-0.014221191
1601137903832,750,-1.1940918,-0.3743286,0.044128418
1601137903832,751,-1.0500488,-0.28155518,0.06781006
1601137903832,752,-1.1760254,-0.26739502,-0.014221191
1601137903832,753,-1.0500488,-0.28155518,0.06781006
1601137903832,754,-1.1760254,-0.26739502,-0.014221191
1601137903832,755,-1.1760254,-0.26739502,-0.014221191
1601137903844,756,-1.0429688,-0.1987915,-0.08648682
1601137903844,757,-1.0429688,-0.1987915,-0.08648682
1601137903844,758,-1.0935059,-0.26397705,-0.05670166
1601137903844,759,-1.3723145,-0.34698486,0.031433105
1601137903845,760,-1.0437012,-0.28155518,0.054382324
1601137903845,761,-1.0085449,-0.31549072,0.059509277
1601137903845,762,-0.98413086,-0.17755127,-0.1362915
1601137903845,763,-1.0935059,-0.26397705,-0.05670166
1601137903845,764,-1.0085449,-0.31549072,0.059509277
1601137903845,765,-0.8730469,-0.19683838,-0.16485596
1601137903845,766,-1.1940918,-0.3743286,0.044128418
1601137903845,767,-0.98413086,-0.17755127,-0.1362915
1601137903846,768,-1.3723145,-0.34698486,0.031433105
1601137903846,769,-1.1760254,-0.26739502,-0.014221191
1601137903846,770,-1.0935059,-0.26397705,-0.05670166
1601137903846,771,-1.0500488,-0.28155518,0.06781006
1601137903846,772,-1.1940918,-0.3743286,0.044128418
1601137903848,773,-1.0935059,-0.26397705,-0.05670166
1601137903848,774,-1.3723145,-0.34698486,0.031433105
1601137903849,775,-0.83691406,-0.21881104,-0.14678955
1601137903849,776,-1.0429688,-0.1987915,-0.08648682
1601137903849,777,-1.1760254,-0.26739502,-0.014221191
1601137903849,778,-0.98413086,-0.17755127,-0.1362915
1601137903850,779,-1.0935059,-0.26397705,-0.05670166
1601137903851,780,-1.0085449,-0.31549072,0.059509277
1601137903861,781,-1.0429688,-0.1987915,-0.08648682
1601137903862,782,-1.1760254,-0.26739502,-0.014221191
1601137903862,783,-0.8730469,-0.19683838,-0.16485596
1601137903864,784,-1.0935059,-0.26397705,-0.05670166
1601137903864,785,-1.0429688,-0.1987915,-0.08648682
1601137903864,786,-0.8730469,-0.19683838,-0.16485596
1601137903865,787,-0.92041016,-0.24639893,-0.11090088
1601137903865,788,-0.98413086,-0.17755127,-0.1362915
1601137903865,789,-1.0429688,-0.1987915,-0.08648682
1601137903865,790,-1.1940918,-0.3743286,0.044128418
1601137903865,791,-1.0776367,-0.27886963,-0.09625244
1601137903865,792,-0.98413086,-0.17755127,-0.1362915
1601137903865,793,-0.83691406,-0.21881104,-0.14678955
1601137903866,794,-1.1098633,-0.32403564,-0.021057129
1601137903866,795,-1.0429688,-0.1987915,-0.08648682
1601137903866,796,-0.8730469,-0.19683838,-0.16485596
1601137903866,797,-1.0935059,-0.26397705,-0.05670166
1601137903866,798,-0.98413086,-0.17755127,-0.1362915
1601137903866,799,-1.0429688,-0.1987915,-0.08648682
1601137903866,800,-1.3723145,-0.34698486,0.031433105
1601137903866,801,-1.0429688,-0.1987915,-0.08648682
1601137903867,802,-0.98413086,-0.17755127,-0.1362915
1601137903867,803,-0.83691406,-0.21881104,-0.14678955
1601137903873,804,-0.98413086,-0.17755127,-0.1362915
1601137903873,805,-1.1782227,-0.30621338,0.004333496
1601137903873,806,-0.92041016,-0.24639893,-0.11090088
1601137903873,807,-0.83691406,-0.21881104,-0.14678955
1601137903873,808,-1.1760254,-0.26739502,-0.014221191
1601137903874,809,-1.0944824,-0.35943604,0.10784912
1601137903874,810,-0.8730469,-0.19683838,-0.16485596
1601137903874,811,-1.0935059,-0.26397705,-0.05670166
1601137903874,812,-0.83691406,-0.21881104,-0.14678955
1601137903874,813,-0.8730469,-0.19683838,-0.16485596
1601137903882,814,-0.92041016,-0.24639893,-0.11090088
1601137903882,815,-1.0776367,-0.27886963,-0.09625244
1601137903882,816,-0.98413086,-0.17755127,-0.1362915
1601137903882,817,-0.92041016,-0.24639893,-0.11090088
1601137903882,818,-1.1098633,-0.32403564,-0.021057129
1601137903882,819,-1.6323242,-0.10870361,0.1593628
1601137903883,820,-0.92041016,-0.24639893,-0.11090088
1601137903883,821,-1.1782227,-0.30621338,0.004333496
1601137903883,822,-0.8730469,-0.19683838,-0.16485596
1601137903883,823,-0.8730469,-0.19683838,-0.16485596
1601137903883,824,-1.0776367,-0.27886963,-0.09625244
1601137903883,825,-0.8730469,-0.19683838,-0.16485596
1601137903892,826,-1.0944824,-0.35943604,0.10784912
1601137903893,827,-1.0776367,-0.27886963,-0.09625244
1601137903893,828,-0.83691406,-0.21881104,-0.14678955
1601137903893,829,-1.1098633,-0.32403564,-0.021057129
1601137903893,830,-0.83691406,-0.21881104,-0.14678955
1601137903893,831,-1.0429688,-0.1987915,-0.08648682
1601137903893,832,-1.3869629,-0.5784302,0.2584839
1601137903893,833,-0.83691406,-0.21881104,-0.14678955
1601137903915,834,-0.83691406,-0.21881104,-0.14678955
1601137903915,835,-1.6323242,-0.10870361,0.1593628
1601137903915,836,-1.0776367,-0.27886963,-0.09625244
1601137903915,837,-1.1098633,-0.32403564,-0.021057129
1601137903915,838,-0.92041016,-0.24639893,-0.11090088
1601137903915,839,-1.1782227,-0.30621338,0.004333496
1601137903915,840,-0.92041016,-0.24639893,-0.11090088
1601137903915,841,-0.98413086,-0.17755127,-0.1362915
1601137903916,842,-0.92041016,-0.24639893,-0.11090088
1601137903916,843,-1.2402344,-0.27838135,0.14398193
1601137903916,844,-1.0776367,-0.27886963,-0.09625244
1601137903916,845,-0.92041016,-0.24639893,-0.11090088
1601137903916,846,-1.3869629,-0.5784302,0.2584839
1601137903916,847,-1.1098633,-0.32403564,-0.021057129
1601137903917,848,-1.1782227,-0.30621338,0.004333496
1601137903917,849,-1.0944824,-0.35943604,0.10784912
1601137903917,850,-1.0776367,-0.27886963,-0.09625244
1601137903917,851,-1.2402344,-0.27838135,0.14398193
1601137903928,852,-1.0776367,-0.27886963,-0.09625244
1601137903928,853,-0.8730469,-0.19683838,-0.16485596
1601137903928,854,-1.1098633,-0.32403564,-0.021057129
1601137903929,855,-1.0109863,-0.19073486,-0.020568848
1601137903929,856,-1.1782227,-0.30621338,0.004333496
1601137903929,857,-1.0944824,-0.35943604,0.10784912
1601137903929,858,-1.0944824,-0.35943604,0.10784912
1601137903929,859,-0.8671875,-0.12432861,-0.054992676
1601137903929,860,-1.6323242,-0.10870361,0.1593628
1601137903929,861,-1.0109863,-0.19073486,-0.020568848
1601137903929,862,-1.1782227,-0.30621338,0.004333496
1601137903929,863,-1.3869629,-0.5784302,0.2584839
1601137903930,864,-0.83691406,-0.21881104,-0.14678955
1601137903930,865,-1.0776367,-0.27886963,-0.09625244
1601137903930,866,-1.1098633,-0.32403564,-0.021057129
1601137903930,867,-1.6323242,-0.10870361,0.1593628
1601137903930,868,-1.6323242,-0.10870361,0.1593628
1601137903930,869,-1.1782227,-0.30621338,0.004333496
1601137903930,870,-1.1098633,-0.32403564,-0.021057129
1601137903930,871,-0.8671875,-0.12432861,-0.054992676
1601137903931,872,-1.0944824,-0.35943604,0.10784912
1601137903931,873,-1.1782227,-0.30621338,0.004333496
1601137903931,874,-0.92041016,-0.24639893,-0.11090088
1601137903938,875,-0.82250977,-0.10235596,-0.0178833
1601137903938,876,-1.3869629,-0.5784302,0.2584839
1601137903939,877,-0.81689453,-0.07281494,0.07879639
1601137903939,878,-1.0944824,-0.35943604,0.10784912
1601137903939,879,-1.2402344,-0.27838135,0.14398193
1601137903939,880,-1.6323242,-0.10870361,0.1593628
1601137903939,881,-0.7512207,0.007019043,0.24041748
1601137903939,882,-0.82250977,-0.10235596,-0.0178833
1601137903939,883,-1.1098633,-0.32403564,-0.021057129
1601137903939,884,-1.0776367,-0.27886963,-0.09625244
1601137903941,885,-1.1098633,-0.32403564,-0.021057129
1601137903941,886,-1.2402344,-0.27838135,0.14398193
1601137903941,887,-1.0944824,-0.35943604,0.10784912
1601137903941,888,-1.6323242,-0.10870361,0.1593628
1601137903941,889,-1.3869629,-0.5784302,0.2584839
1601137903945,890,-0.81689453,-0.07281494,0.07879639
1601137903945,891,-1.2402344,-0.27838135,0.14398193
1601137903945,892,-1.0109863,-0.19073486,-0.020568848
1601137903946,893,-0.7512207,0.007019043,0.24041748
1601137903946,894,-1.0109863,-0.19073486,-0.020568848
1601137903946,895,-1.1782227,-0.30621338,0.004333496
1601137903946,896,-0.79418945,-0.10675049,0.2826538
1601137903946,897,-1.3869629,-0.5784302,0.2584839
1601137903946,898,-0.79418945,-0.10675049,0.2826538
1601137903954,899,-1.3869629,-0.5784302,0.2584839
1601137903954,900,-1.6323242,-0.10870361,0.1593628
1601137903955,901,-0.8671875,-0.12432861,-0.054992676
1601137903955,902,-1.2402344,-0.27838135,0.14398193
1601137903955,903,-1.1782227,-0.30621338,0.004333496
1601137903955,904,-1.3869629,-0.5784302,0.2584839
1601137903955,905,-1.0944824,-0.35943604,0.10784912
1601137903955,906,-1.2402344,-0.27838135,0.14398193
1601137903956,907,-1.6323242,-0.10870361,0.1593628
1601137903956,908,-1.2402344,-0.27838135,0.14398193
1601137903956,909,-0.82250977,-0.10235596,-0.0178833
1601137903956,910,-1.3869629,-0.5784302,0.2584839
1601137903981,911,-1.2402344,-0.27838135,0.14398193
1601137903981,912,-1.0109863,-0.19073486,-0.020568848
1601137903982,913,-0.8671875,-0.12432861,-0.054992676
1601137903982,914,-1.0109863,-0.19073486,-0.020568848
1601137903982,915,-1.0944824,-0.35943604,0.10784912
1601137903982,916,-0.81689453,-0.07281494,0.07879639
1601137903982,917,-1.6323242,-0.10870361,0.1593628
1601137903982,918,-1.0109863,-0.19073486,-0.020568848
1601137903982,919,-1.3869629,-0.5784302,0.2584839
1601137903982,920,-0.7512207,0.007019043,0.24041748
1601137903982,921,-0.82250977,-0.10235596,-0.0178833
1601137903982,922,-0.8671875,-0.12432861,-0.054992676
1601137903982,923,-0.8671875,-0.12432861,-0.054992676
1601137903982,924,-0.82250977,-0.10235596,-0.0178833
1601137903982,925,-0.8671875,-0.12432861,-0.054992676
1601137903983,926,-0.82250977,-0.10235596,-0.0178833
1601137903983,927,-0.81689453,-0.07281494,0.07879639
1601137903983,928,-0.81689453,-0.07281494,0.07879639
1601137903983,929,-1.0109863,-0.19073486,-0.020568848
1601137903983,930,-0.79418945,-0.10675049,0.2826538
1601137903983,931,-0.7512207,0.007019043,0.24041748
1601137903983,932,-0.81689453,-0.07281494,0.07879639
1601137903983,933,-0.7512207,0.007019043,0.24041748
1601137903983,934,-1.0109863,-0.19073486,-0.020568848
1601137903983,935,-1.2402344,-0.27838135,0.14398193
1601137903983,936,-0.82250977,-0.10235596,-0.0178833
1601137903983,937,-0.79418945,-0.10675049,0.2826538
1601137903983,938,-0.81689453,-0.07281494,0.07879639
1601137903984,939,-0.7512207,0.007019043,0.24041748
1601137903984,940,-0.7512207,0.007019043,0.24041748
1601137903984,941,-0.79418945,-0.10675049,0.2826538
1601137903984,942,-0.8671875,-0.12432861,-0.054992676
1601137903986,943,-0.79418945,-0.10675049,0.2826538
1601137903986,944,-0.8671875,-0.12432861,-0.054992676
1601137903986,945,-0.82250977,-0.10235596,-0.0178833
1601137903986,946,-0.79418945,-0.10675049,0.2826538
1601137903986,947,-0.81689453,-0.07281494,0.07879639
1601137903986,948,-0.7512207,0.007019043,0.24041748
1601137903986,949,-0.82250977,-0.10235596,-0.0178833
1601137903986,950,-0.79418945,-0.10675049,0.2826538
1601137903986,951,-0.81689453,-0.07281494,0.07879639
1601137903986,952,-0.7512207,0.007019043,0.24041748
1601137903986,953,-0.79418945,-0.10675049,0.2826538
1601137903987,954,-1.0109863,-0.19073486,-0.020568848
1601137903987,955,-0.8671875,-0.12432861,-0.054992676
1601137903987,956,-0.82250977,-0.10235596,-0.0178833
1601137903987,957,-0.81689453,-0.07281494,0.07879639
1601137903987,958,-0.7512207,0.007019043,0.24041748
1601137903987,959,-0.79418945,-0.10675049,0.2826538
1601137906266,960,-0.92993164,-0.16217041,0.16790771
1601137906267,961,-0.92993164,-0.16217041,0.16790771
1601137906267,962,-0.92993164,-0.16217041,0.16790771
1601137906267,963,-1.1938477,-0.3147583,0.07928467
1601137906267,964,-0.92993164,-0.16217041,0.16790771
1601137906272,965,-1.1938477,-0.3147583,0.07928467
1601137906273,966,-0.92993164,-0.16217041,0.16790771
1601137906273,967,-1.1938477,-0.3147583,0.07928467
1601137906273,968,-0.92993164,-0.16217041,0.16790771
1601137906273,969,-1.1938477,-0.3147583,0.07928467
1601137906274,970,-0.92993164,-0.16217041,0.16790771
1601137906274,971,-1.1938477,-0.3147583,0.07928467
1601137906274,972,-1.2949219,-0.32476807,0.17596436
1601137906274,973,-0.92993164,-0.16217041,0.16790771
1601137906279,974,-0.92993164,-0.16217041,0.16790771
1601137906279,975,-1.2949219,-0.32476807,0.17596436
1601137906281,976,-1.255127,-0.30133057,0.11639404
1601137906281,977,-1.2949219,-0.32476807,0.17596436
1601137906281,978,-1.092041,-0.44781494,0.09661865
1601137906281,979,-1.1938477,-0.3147583,0.07928467
1601137906281,980,-1.1938477,-0.3147583,0.07928467
1601137906282,981,-1.2949219,-0.32476807,0.17596436
1601137906282,982,-1.255127,-0.30133057,0.11639404
1601137906282,983,-1.2949219,-0.32476807,0.17596436
1601137906282,984,-0.92993164,-0.16217041,0.16790771
1601137906290,985,-1.1938477,-0.3147583,0.07928467
1601137906291,986,-1.1938477,-0.3147583,0.07928467
1601137906291,987,-1.1938477,-0.3147583,0.07928467
1601137906291,988,-1.2949219,-0.32476807,0.17596436
1601137906291,989,-1.2949219,-0.32476807,0.17596436
1601137906291,990,-1.255127,-0.30133057,0.11639404
1601137906292,991,-1.255127,-0.30133057,0.11639404
1601137906293,992,-1.092041,-0.44781494,0.09661865
1601137906293,993,-1.092041,-0.44781494,0.09661865
1601137906293,994,-1.2949219,-0.32476807,0.17596436
1601137906293,995,-1.0681152,-0.39068604,0.184021
1601137906293,996,-1.0681152,-0.39068604,0.184021
1601137906293,997,-1.255127,-0.30133057,0.11639404
1601137906294,998,-1.255127,-0.30133057,0.11639404
1601137906294,999,-1.2949219,-0.32476807,0.17596436
1601137906294,1000,-0.8835449,-0.26397705,0.15789795
1601137906294,1001,-1.255127,-0.30133057,0.11639404
1601137906294,1002,-1.0681152,-0.39068604,0.184021
1601137906294,1003,-1.255127,-0.30133057,0.11639404
1601137906316,1004,-1.2949219,-0.32476807,0.17596436
1601137906316,1005,-1.092041,-0.44781494,0.09661865
1601137906316,1006,-1.1296387,-0.17144775,0.1293335
1601137906316,1007,-1.092041,-0.44781494,0.09661865
1601137906316,1008,-1.1271973,-0.21661377,0.10736084
1601137906316,1009,-1.092041,-0.44781494,0.09661865
1601137906316,1010,-1.0681152,-0.39068604,0.184021
1601137906316,1011,-0.8835449,-0.26397705,0.15789795
1601137906317,1012,-1.0681152,-0.39068604,0.184021
1601137906317,1013,-1.255127,-0.30133057,0.11639404
1601137906317,1014,-1.0681152,-0.39068604,0.184021
1601137906317,1015,-1.092041,-0.44781494,0.09661865
1601137906317,1016,-1.255127,-0.30133057,0.11639404
1601137906317,1017,-1.0681152,-0.39068604,0.184021
1601137906317,1018,-0.8835449,-0.26397705,0.15789795
1601137906317,1019,-1.092041,-0.44781494,0.09661865
1601137906318,1020,-0.8835449,-0.26397705,0.15789795
1601137906318,1021,-0.8835449,-0.26397705,0.15789795
1601137906318,1022,-1.1296387,-0.17144775,0.1293335
1601137906318,1023,-1.1296387,-0.17144775,0.1293335
1601137906318,1024,-1.092041,-0.44781494,0.09661865
1601137906318,1025,-0.8835449,-0.26397705,0.15789795
1601137906318,1026,-1.1271973,-0.21661377,0.10736084
1601137906321,1027,-1.2475586,-0.3579712,-0.03253174
1601137906321,1028,-1.1296387,-0.17144775,0.1293335
1601137906321,1029,-1.092041,-0.44781494,0.09661865
1601137906321,1030,-1.0681152,-0.39068604,0.184021
1601137906321,1031,-1.3232422,-0.31036377,-0.094055176
1601137906321,1032,-1.1296387,-0.17144775,0.1293335
1601137906321,1033,-0.8835449,-0.26397705,0.15789795
1601137906321,1034,-1.1271973,-0.21661377,0.10736084
1601137906321,1035,-1.1296387,-0.17144775,0.1293335
1601137906322,1036,-1.1296387,-0.17144775,0.1293335
1601137906322,1037,-1.1271973,-0.21661377,0.10736084
1601137906322,1038,-1.1271973,-0.21661377,0.10736084
1601137906322,1039,-1.2475586,-0.3579712,-0.03253174
1601137906322,1040,-1.0681152,-0.39068604,0.184021
1601137906322,1041,-1.1538086,-0.2354126,-0.2107544
1601137906323,1042,-0.8835449,-0.26397705,0.15789795
1601137906323,1043,-1.2475586,-0.3579712,-0.03253174
1601137906323,1044,-1.2475586,-0.3579712,-0.03253174
1601137906325,1045,-1.0681152,-0.39068604,0.184021
1601137906325,1046,-1.1271973,-0.21661377,0.10736084
1601137906325,1047,-0.8835449,-0.26397705,0.15789795
1601137906325,1048,-1.3232422,-0.31036377,-0.094055176
1601137906326,1049,-0.8835449,-0.26397705,0.15789795
1601137906326,1050,-1.1538086,-0.2354126,-0.2107544
1601137906327,1051,-1.1296387,-0.17144775,0.1293335
1601137906327,1052,-1.088623,-0.02911377,-0.22711182
1601137906327,1053,-1.3232422,-0.31036377,-0.094055176
1601137906331,1054,-1.1538086,-0.2354126,-0.2107544
1601137906331,1055,-1.2475586,-0.3579712,-0.03253174
1601137906331,1056,-1.088623,-0.02911377,-0.22711182
1601137906331,1057,-1.088623,-0.02911377,-0.22711182
1601137906331,1058,-1.1296387,-0.17144775,0.1293335
1601137906331,1059,-1.3232422,-0.31036377,-0.094055176
1601137906332,1060,-0.861084,-0.13970947,-0.15362549
1601137906332,1061,-0.861084,-0.13970947,-0.15362549
1601137906332,1062,-0.81030273,-0.2559204,-0.11651611
1601137906332,1063,-1.1271973,-0.21661377,0.10736084
1601137906347,1064,-1.1296387,-0.17144775,0.1293335
1601137906347,1065,-1.3232422,-0.31036377,-0.094055176
1601137906347,1066,-1.1271973,-0.21661377,0.10736084
1601137906347,1067,-1.1538086,-0.2354126,-0.2107544
1601137906347,1068,-0.861084,-0.13970947,-0.15362549
1601137906347,1069,-0.9641113,-0.38238525,-0.06524658
1601137906347,1070,-1.2475586,-0.3579712,-0.03253174
1601137906347,1071,-1.1108398,-0.36993408,-0.036193848
1601137906347,1072,-0.81030273,-0.2559204,-0.11651611
1601137906348,1073,-1.1271973,-0.21661377,0.10736084
1601137906348,1074,-1.2475586,-0.3579712,-0.03253174
1601137906348,1075,-1.1538086,-0.2354126,-0.2107544
1601137906348,1076,-1.1271973,-0.21661377,0.10736084
1601137906348,1077,-0.81030273,-0.2559204,-0.11651611
1601137906348,1078,-1.088623,-0.02911377,-0.22711182
1601137906348,1079,-1.2475586,-0.3579712,-0.03253174
1601137906348,1080,-0.861084,-0.13970947,-0.15362549
1601137906348,1081,-0.9641113,-0.38238525,-0.06524658
1601137906349,1082,-0.9641113,-0.38238525,-0.06524658
1601137906355,1083,-1.2475586,-0.3579712,-0.03253174
1601137906355,1084,-1.3232422,-0.31036377,-0.094055176
1601137906355,1085,-1.1108398,-0.36993408,-0.036193848
1601137906355,1086,-1.1538086,-0.2354126,-0.2107544
1601137906355,1087,-0.81030273,-0.2559204,-0.11651611
1601137906355,1088,-1.1083984,-0.24176025,-0.04473877
1601137906355,1089,-1.1108398,-0.36993408,-0.036193848
1601137906356,1090,-1.0588379,-0.29400635,-0.0071411133
1601137906356,1091,-1.3232422,-0.31036377,-0.094055176
1601137906356,1092,-1.3232422,-0.31036377,-0.094055176
1601137906356,1093,-1.3232422,-0.31036377,-0.094055176
1601137906366,1094,-1.088623,-0.02911377,-0.22711182
1601137906366,1095,-0.9641113,-0.38238525,-0.06524658
1601137906366,1096,-1.1083984,-0.24176025,-0.04473877
1601137906366,1097,-1.088623,-0.02911377,-0.22711182
1601137906366,1098,-0.9641113,-0.30645752,-0.00592041
1601137906366,1099,-1.2475586,-0.3579712,-0.03253174
1601137906366,1100,-0.861084,-0.13970947,-0.15362549
1601137906366,1101,-1.1538086,-0.2354126,-0.2107544
1601137906366,1102,-1.1538086,-0.2354126,-0.2107544
1601137906366,1103,-1.1538086,-0.2354126,-0.2107544
1601137906367,1104,-1.088623,-0.02911377,-0.22711182
1601137906367,1105,-0.861084,-0.13970947,-0.15362549
1601137906367,1106,-0.861084,-0.13970947,-0.15362549
1601137906367,1107,-1.088623,-0.02911377,-0.22711182
1601137906367,1108,-0.81030273,-0.2559204,-0.11651611
1601137906367,1109,-0.81030273,-0.2559204,-0.11651611
1601137906367,1110,-0.9880371,-0.2966919,-0.012512207
1601137906367,1111,-0.9641113,-0.38238525,-0.06524658
1601137906367,1112,-1.088623,-0.02911377,-0.22711182
1601137906369,1113,-1.1108398,-0.36993408,-0.036193848
1601137906370,1114,-1.3232422,-0.31036377,-0.094055176
1601137906376,1115,-0.81030273,-0.2559204,-0.11651611
1601137906377,1116,-0.9641113,-0.38238525,-0.06524658
1601137906377,1117,-1.1083984,-0.24176025,-0.04473877
1601137906377,1118,-1.1108398,-0.36993408,-0.036193848
1601137906377,1119,-0.861084,-0.13970947,-0.15362549
1601137906377,1120,-1.1257324,-0.28985596,-0.0713501
1601137906377,1121,-1.0588379,-0.29400635,-0.0071411133
1601137906377,1122,-0.861084,-0.13970947,-0.15362549
1601137906377,1123,-1.1083984,-0.24176025,-0.04473877
1601137906383,1124,-1.1538086,-0.2354126,-0.2107544
1601137906383,1125,-0.9641113,-0.38238525,-0.06524658
1601137906383,1126,-1.1108398,-0.36993408,-0.036193848
1601137906384,1127,-1.0588379,-0.29400635,-0.0071411133
1601137906384,1128,-1.1083984,-0.24176025,-0.04473877
1601137906384,1129,-0.81030273,-0.2559204,-0.11651611
1601137906384,1130,-0.9641113,-0.30645752,-0.00592041
1601137906385,1131,-1.0053711,-0.31134033,-0.06378174
1601137906385,1132,-1.0588379,-0.29400635,-0.0071411133
1601137906385,1133,-0.81030273,-0.2559204,-0.11651611
1601137906390,1134,-1.1083984,-0.24176025,-0.04473877
1601137906390,1135,-1.1108398,-0.36993408,-0.036193848
1601137906390,1136,-1.0588379,-0.29400635,-0.0071411133
1601137906390,1137,-1.088623,-0.02911377,-0.22711182
1601137906391,1138,-1.0588379,-0.29400635,-0.0071411133
1601137906391,1139,-1.1083984,-0.24176025,-0.04473877
1601137906391,1140,-0.9880371,-0.2966919,-0.012512207
1601137906392,1141,-1.0280762,-0.2300415,-0.074035645
1601137906392,1142,-0.9641113,-0.30645752,-0.00592041
1601137906392,1143,-0.9641113,-0.38238525,-0.06524658
1601137906392,1144,-1.1257324,-0.28985596,-0.0713501
1601137906392,1145,-0.9641113,-0.30645752,-0.00592041
1601137906392,1146,-1.0053711,-0.31134033,-0.06378174
1601137906392,1147,-0.861084,-0.13970947,-0.15362549
1601137906392,1148,-0.9641113,-0.30645752,-0.00592041
1601137906392,1149,-1.0588379,-0.29400635,-0.0071411133
1601137906393,1150,-1.0378418,-0.2468872,-0.08404541
1601137906394,1151,-0.9880371,-0.2966919,-0.012512207
1601137906395,1152,-1.1108398,-0.36993408,-0.036193848
1601137906402,1153,-0.9880371,-0.2966919,-0.012512207
1601137906402,1154,-0.9641113,-0.30645752,-0.00592041
1601137906403,1155,-1.0280762,-0.2300415,-0.074035645
1601137906403,1156,-0.9880371,-0.2966919,-0.012512207
1601137906403,1157,-0.9880371,-0.2966919,-0.012512207
1601137906403,1158,-1.0378418,-0.2468872,-0.08404541
1601137906403,1159,-1.1103516,-0.23883057,-0.08868408
1601137906404,1160,-1.1103516,-0.23883057,-0.08868408
1601137906404,1161,-0.9641113,-0.30645752,-0.00592041
1601137906405,1162,-1.1083984,-0.24176025,-0.04473877
1601137906405,1163,-0.9880371,-0.2966919,-0.012512207
1601137906405,1164,-1.1806641,-0.24713135,-0.07330322
1601137906405,1165,-0.81030273,-0.2559204,-0.11651611
1601137906405,1166,-1.1257324,-0.28985596,-0.0713501
1601137906408,1167,-1.1257324,-0.28985596,-0.0713501
1601137906408,1168,-1.1806641,-0.24713135,-0.07330322
1601137906408,1169,-1.1257324,-0.28985596,-0.0713501
1601137906408,1170,-1.2346191,-0.20977783,-0.035217285
1601137906409,1171,-1.1257324,-0.28985596,-0.0713501
1601137906409,1172,-1.0717773,-0.11090088,-0.019104004
1601137906409,1173,-1.1257324,-0.28985596,-0.0713501
1601137906410,1174,-1.2346191,-0.20977783,-0.035217285
1601137906410,1175,-1.0053711,-0.31134033,-0.06378174
1601137906410,1176,-0.9641113,-0.38238525,-0.06524658
1601137906414,1177,-1.0053711,-0.31134033,-0.06378174
1601137906414,1178,-0.9641113,-0.38238525,-0.06524658
1601137906414,1179,-1.1108398,-0.36993408,-0.036193848
1601137906414,1180,-1.0053711,-0.31134033,-0.06378174
1601137906415,1181,-0.9904785,-0.16949463,-0.003479004
1601137906415,1182,-1.0053711,-0.31134033,-0.06378174
1601137906415,1183,-1.0280762,-0.2300415,-0.074035645
1601137906415,1184,-1.0280762,-0.2300415,-0.074035645
1601137906415,1185,-1.0717773,-0.11090088,-0.019104004
1601137906415,1186,-1.0378418,-0.2468872,-0.08404541
1601137906415,1187,-1.0588379,-0.29400635,-0.0071411133
1601137906415,1188,-1.0280762,-0.2300415,-0.074035645
1601137906420,1189,-1.0217285,-0.09698486,0.0045776367
1601137906420,1190,-0.9641113,-0.30645752,-0.00592041
1601137906420,1191,-1.0053711,-0.31134033,-0.06378174
1601137906420,1192,-1.1108398,-0.36993408,-0.036193848
1601137906420,1193,-1.1103516,-0.23883057,-0.08868408
1601137906421,1194,-1.0280762,-0.2300415,-0.074035645
1601137906421,1195,-0.9904785,-0.16949463,-0.003479004
1601137906421,1196,-1.1806641,-0.24713135,-0.07330322
1601137906421,1197,-1.1083984,-0.24176025,-0.04473877
1601137906421,1198,-1.2346191,-0.20977783,-0.035217285
1601137906421,1199,-1.0588379,-0.29400635,-0.0071411133
1601137906421,1200,-1.0280762,-0.2300415,-0.074035645
1601137906451,1201,-1.0378418,-0.2468872,-0.08404541
1601137906451,1202,-1.0378418,-0.2468872,-0.08404541
1601137906451,1203,-1.1083984,-0.24176025,-0.04473877
1601137906452,1204,-1.0378418,-0.2468872,-0.08404541
1601137906452,1205,-1.074707,-0.09698486,-0.006652832
1601137906452,1206,-1.1103516,-0.23883057,-0.08868408
1601137906452,1207,-0.9641113,-0.30645752,-0.00592041
1601137906452,1208,-1.0588379,-0.29400635,-0.0071411133
1601137906452,1209,-0.9880371,-0.2966919,-0.012512207
1601137906452,1210,-1.0378418,-0.2468872,-0.08404541
1601137906452,1211,-0.9641113,-0.30645752,-0.00592041
1601137906452,1212,-1.1257324,-0.28985596,-0.0713501
1601137906452,1213,-1.1103516,-0.23883057,-0.08868408
1601137906452,1214,-1.0217285,-0.09698486,0.0045776367
1601137906453,1215,-1.0717773,-0.11090088,-0.019104004
1601137906453,1216,-1.1806641,-0.24713135,-0.07330322
1601137906453,1217,-1.1103516,-0.23883057,-0.08868408
1601137906453,1218,-1.2346191,-0.20977783,-0.035217285
1601137906453,1219,-1.1806641,-0.24713135,-0.07330322
1601137906453,1220,-1.0717773,-0.11090088,-0.019104004
1601137906453,1221,-1.0053711,-0.31134033,-0.06378174
1601137906453,1222,-0.9880371,-0.2966919,-0.012512207
1601137906453,1223,-1.074707,-0.09698486,-0.006652832
1601137906453,1224,-0.9880371,-0.2966919,-0.012512207
1601137906454,1225,-0.9904785,-0.16949463,-0.003479004
1601137906454,1226,-1.1806641,-0.24713135,-0.07330322
1601137906454,1227,-1.1103516,-0.23883057,-0.08868408
1601137906454,1228,-1.1257324,-0.28985596,-0.0713501
1601137906454,1229,-1.2346191,-0.20977783,-0.035217285
1601137906454,1230,-1.2346191,-0.20977783,-0.035217285
1601137906454,1231,-0.9904785,-0.16949463,-0.003479004
1601137906454,1232,-1.0280762,-0.2300415,-0.074035645
1601137906454,1233,-1.0717773,-0.11090088,-0.019104004
1601137906455,1234,-1.0717773,-0.11090088,-0.019104004
1601137906455,1235,-1.0053711,-0.31134033,-0.06378174
1601137906455,1236,-1.0378418,-0.2468872,-0.08404541
1601137906455,1237,-0.9904785,-0.16949463,-0.003479004
1601137906455,1238,-1.1103516,-0.23883057,-0.08868408
1601137906455,1239,-1.1806641,-0.24713135,-0.07330322
1601137906455,1240,-1.0280762,-0.2300415,-0.074035645
1601137906455,1241,-1.0217285,-0.09698486,0.0045776367
1601137906455,1242,-1.0378418,-0.2468872,-0.08404541
1601137906455,1243,-1.074707,-0.09698486,-0.006652832
1601137906455,1244,-1.1257324,-0.28985596,-0.0713501
1601137906456,1245,-1.1806641,-0.24713135,-0.07330322
1601137906456,1246,-0.9904785,-0.16949463,-0.003479004
1601137906456,1247,-1.0217285,-0.09698486,0.0045776367
1601137906456,1248,-1.0053711,-0.31134033,-0.06378174
1601137906456,1249,-1.2346191,-0.20977783,-0.035217285
1601137906456,1250,-1.0280762,-0.2300415,-0.074035645
1601137906456,1251,-1.2346191,-0.20977783,-0.035217285
1601137906456,1252,-1.0378418,-0.2468872,-0.08404541
1601137906456,1253,-1.0717773,-0.11090088,-0.019104004
1601137906456,1254,-1.1103516,-0.23883057,-0.08868408
1601137906457,1255,-1.0217285,-0.09698486,0.0045776367
1601137906457,1256,-1.074707,-0.09698486,-0.006652832
1601137906457,1257,-1.1103516,-0.23883057,-0.08868408
1601137906457,1258,-1.0217285,-0.09698486,0.0045776367
1601137906457,1259,-0.9904785,-0.16949463,-0.003479004
1601137906457,1260,-1.1806641,-0.24713135,-0.07330322
1601137906457,1261,-1.2346191,-0.20977783,-0.035217285
1601137906457,1262,-1.074707,-0.09698486,-0.006652832
1601137906457,1263,-1.1806641,-0.24713135,-0.07330322
1601137906458,1264,-1.0717773,-0.11090088,-0.019104004
1601137906458,1265,-1.074707,-0.09698486,-0.006652832
1601137906458,1266,-1.0217285,-0.09698486,0.0045776367
1601137906463,1267,-1.0717773,-0.11090088,-0.019104004
1601137906463,1268,-1.074707,-0.09698486,-0.006652832
1601137906463,1269,-0.9904785,-0.16949463,-0.003479004
1601137906463,1270,-1.2346191,-0.20977783,-0.035217285
1601137906466,1271,-0.9904785,-0.16949463,-0.003479004
1601137906467,1272,-1.0217285,-0.09698486,0.0045776367
1601137906467,1273,-1.0217285,-0.09698486,0.0045776367
1601137906467,1274,-1.074707,-0.09698486,-0.006652832
1601137906473,1275,-1.074707,-0.09698486,-0.006652832
1601137906473,1276,-1.0717773,-0.11090088,-0.019104004
1601137906473,1277,-0.9904785,-0.16949463,-0.003479004
1601137906475,1278,-1.0217285,-0.09698486,0.0045776367
1601137906475,1279,-1.074707,-0.09698486,-0.006652832
1601137908779,1280,-1.0202637,-0.13092041,0.050964355
1601137908785,1281,-1.0202637,-0.13092041,0.050964355
1601137908786,1282,-1.0202637,-0.13092041,0.050964355
1601137908787,1283,-0.9250488,-0.20465088,0.18035889
1601137908787,1284,-1.0202637,-0.13092041,0.050964355
1601137908787,1285,-1.0202637,-0.13092041,0.050964355
1601137908787,1286,-1.0202637,-0.13092041,0.050964355
1601137908788,1287,-1.0202637,-0.13092041,0.050964355
1601137908788,1288,-1.0202637,-0.13092041,0.050964355
1601137908788,1289,-0.9250488,-0.20465088,0.18035889
1601137908788,1290,-0.9250488,-0.20465088,0.18035889
1601137908788,1291,-1.0202637,-0.13092041,0.050964355
1601137908788,1292,-0.9250488,-0.20465088,0.18035889
1601137908788,1293,-0.9250488,-0.20465088,0.18035889
1601137908788,1294,-0.90771484,0.07757568,0.2531128
1601137908793,1295,-1.0202637,-0.13092041,0.050964355
1601137908793,1296,-0.9250488,-0.20465088,0.18035889
1601137908793,1297,-0.9250488,-0.20465088,0.18035889
1601137908793,1298,-0.90771484,0.07757568,0.2531128
1601137908793,1299,-0.90771484,0.07757568,0.2531128
1601137908793,1300,-0.90771484,0.07757568,0.2531128
1601137908793,1301,-1.0292969,-0.07110596,0.06463623
1601137908793,1302,-0.9250488,-0.20465088,0.18035889
1601137908793,1303,-1.0625,-0.32183838,0.042175293
1601137908793,1304,-1.0292969,-0.07110596,0.06463623
1601137908793,1305,-0.90771484,0.07757568,0.2531128
1601137908793,1306,-0.9250488,-0.20465088,0.18035889
1601137908794,1307,-1.0292969,-0.07110596,0.06463623
1601137908794,1308,-0.90771484,0.07757568,0.2531128
1601137908794,1309,-1.0292969,-0.07110596,0.06463623
1601137908794,1310,-1.0292969,-0.07110596,0.06463623
1601137908794,1311,-1.0625,-0.32183838,0.042175293
1601137908794,1312,-0.90771484,0.07757568,0.2531128
1601137908795,1313,-0.97875977,-0.23638916,0.047058105
1601137908800,1314,-1.0625,-0.32183838,0.042175293
1601137908803,1315,-0.90771484,0.07757568,0.2531128
1601137908803,1316,-0.97875977,-0.23638916,0.047058105
1601137908803,1317,-0.9250488,-0.20465088,0.18035889
1601137908803,1318,-0.8937988,-0.09039307,0.07513428
1601137908803,1319,-0.90771484,0.07757568,0.2531128
1601137908803,1320,-0.97875977,-0.23638916,0.047058105
1601137908803,1321,-0.8937988,-0.17462158,0.16156006
1601137908804,1322,-1.0292969,-0.07110596,0.06463623
1601137908804,1323,-0.8937988,-0.09039307,0.07513428
1601137908804,1324,-1.0292969,-0.07110596,0.06463623
1601137908804,1325,-1.0625,-0.32183838,0.042175293
1601137908811,1326,-1.0119629,-0.22442627,0.1954956
1601137908811,1327,-0.8937988,-0.09039307,0.07513428
1601137908811,1328,-0.97875977,-0.23638916,0.047058105
1601137908813,1329,-1.0292969,-0.07110596,0.06463623
1601137908813,1330,-0.8937988,-0.09039307,0.07513428
1601137908813,1331,-0.8937988,-0.17462158,0.16156006
1601137908813,1332,-1.0292969,-0.07110596,0.06463623
1601137908813,1333,-1.0625,-0.32183838,0.042175293
1601137908813,1334,-0.90771484,0.07757568,0.2531128
1601137908813,1335,-1.0625,-0.32183838,0.042175293
1601137908813,1336,-1.0119629,-0.22442627,0.1954956
1601137908813,1337,-1.0554199,-0.14117432,0.20062256
1601137908813,1338,-1.0625,-0.32183838,0.042175293
1601137908813,1339,-0.8937988,-0.17462158,0.16156006
1601137908813,1340,-1.0625,-0.32183838,0.042175293
1601137908813,1341,-1.0292969,-0.07110596,0.06463623
1601137908814,1342,-1.0554199,-0.14117432,0.20062256
1601137908814,1343,-0.97875977,-0.23638916,0.047058105
1601137908814,1344,-0.97875977,-0.23638916,0.047058105
1601137908814,1345,-0.8937988,-0.09039307,0.07513428
1601137908814,1346,-0.97875977,-0.23638916,0.047058105
1601137908814,1347,-1.0080566,-0.1885376,0.21868896
1601137908814,1348,-1.0119629,-0.22442627,0.1954956
1601137908814,1349,-0.97875977,-0.23638916,0.047058105
1601137908816,1350,-0.8937988,-0.09039307,0.07513428
1601137908816,1351,-0.8937988,-0.09039307,0.07513428
1601137908816,1352,-0.8937988,-0.17462158,0.16156006
1601137908816,1353,-0.8937988,-0.17462158,0.16156006
1601137908816,1354,-0.8937988,-0.17462158,0.16156006
1601137908817,1355,-1.0119629,-0.22442627,0.1954956
1601137908818,1356,-1.0241699,-0.18121338,0.20477295
1601137908819,1357,-0.8937988,-0.17462158,0.16156006
1601137908826,1358,-1.1262207,-0.101379395,0.12884521
1601137908826,1359,-1.0119629,-0.22442627,0.1954956
1601137908826,1360,-0.8937988,-0.09039307,0.07513428
1601137908826,1361,-1.0554199,-0.14117432,0.20062256
1601137908826,1362,-1.0554199,-0.14117432,0.20062256
1601137908826,1363,-1.0554199,-0.14117432,0.20062256
1601137908826,1364,-1.0625,-0.32183838,0.042175293
1601137908826,1365,-1.0080566,-0.1885376,0.21868896
1601137908826,1366,-1.0119629,-0.22442627,0.1954956
1601137908826,1367,-1.0080566,-0.1885376,0.21868896
1601137908826,1368,-0.99609375,-0.02178955,0.055114746
1601137908826,1369,-1.0119629,-0.22442627,0.1954956
1601137908827,1370,-1.0241699,-0.18121338,0.20477295
1601137908827,1371,-1.0554199,-0.14117432,0.20062256
1601137908827,1372,-1.1567383,0.08319092,0.08905029
1601137908837,1373,-1.0241699,-0.18121338,0.20477295
1601137908838,1374,-1.3210449,0.038757324,0.09906006
1601137908838,1375,-0.97875977,-0.23638916,0.047058105
1601137908838,1376,-0.8937988,-0.17462158,0.16156006
1601137908838,1377,-1.0080566,-0.1885376,0.21868896
1601137908838,1378,-1.0080566,-0.1885376,0.21868896
1601137908838,1379,-1.0554199,-0.14117432,0.20062256
1601137908839,1380,-1.1262207,-0.101379395,0.12884521
1601137908839,1381,-1.0080566,-0.1885376,0.21868896
1601137908839,1382,-0.99609375,-0.02178955,0.055114746
1601137908839,1383,-1.0625,-0.32183838,0.042175293
1601137908839,1384,-0.8937988,-0.09039307,0.07513428
1601137908839,1385,-0.97875977,-0.23638916,0.047058105
1601137908839,1386,-1.3181152,-0.12994385,-0.049865723
1601137908839,1387,-1.0119629,-0.22442627,0.1954956
1601137908839,1388,-1.0241699,-0.18121338,0.20477295
1601137908839,1389,-1.0241699,-0.18121338,0.20477295
1601137908839,1390,-1.1262207,-0.101379395,0.12884521
1601137908839,1391,-1.0554199,-0.14117432,0.20062256
1601137908839,1392,-1.0241699,-0.18121338,0.20477295
1601137908839,1393,-0.8937988,-0.09039307,0.07513428
1601137908839,1394,-1.0080566,-0.1885376,0.21868896
1601137908839,1395,-1.1262207,-0.101379395,0.12884521
1601137908840,1396,-0.8937988,-0.17462158,0.16156006
1601137908840,1397,-1.1262207,-0.101379395,0.12884521
1601137908840,1398,-1.1567383,0.08319092,0.08905029
1601137908842,1399,-0.8937988,-0.17462158,0.16156006
1601137908848,1400,-1.0241699,-0.18121338,0.20477295
1601137908848,1401,-1.1262207,-0.101379395,0.12884521
1601137908848,1402,-1.078125,-0.08868408,-0.12188721
1601137908849,1403,-1.1262207,-0.101379395,0.12884521
1601137908849,1404,-1.0119629,-0.22442627,0.1954956
1601137908849,1405,-1.0119629,-0.22442627,0.1954956
1601137908851,1406,-1.0554199,-0.14117432,0.20062256
1601137908851,1407,-1.3210449,0.038757324,0.09906006
1601137908851,1408,-1.0080566,-0.1885376,0.21868896
1601137908864,1409,-0.99609375,-0.02178955,0.055114746
1601137908865,1410,-0.9572754,-0.045959473,-0.1404419
1601137908865,1411,-0.99609375,-0.02178955,0.055114746
1601137908865,1412,-0.99609375,-0.02178955,0.055114746
1601137908865,1413,-1.1567383,0.08319092,0.08905029
1601137908865,1414,-0.99609375,-0.02178955,0.055114746
1601137908865,1415,-1.0080566,-0.1885376,0.21868896
1601137908871,1416,-1.0554199,-0.14117432,0.20062256
1601137908871,1417,-1.3181152,-0.12994385,-0.049865723
1601137908871,1418,-1.1567383,0.08319092,0.08905029
1601137908872,1419,-0.99731445,-0.19439697,-0.14849854
1601137908873,1420,-1.3210449,0.038757324,0.09906006
1601137908873,1421,-0.99609375,-0.02178955,0.055114746
1601137908873,1422,-1.1567383,0.08319092,0.08905029
1601137908873,1423,-1.3210449,0.038757324,0.09906006
1601137908873,1424,-1.1567383,0.08319092,0.08905029
1601137908873,1425,-1.0080566,-0.1885376,0.21868896
1601137908873,1426,-1.0241699,-0.18121338,0.20477295
1601137908873,1427,-1.0241699,-0.18121338,0.20477295
1601137908873,1428,-0.9074707,-0.26593018,-0.12872314
1601137908873,1429,-1.0241699,-0.18121338,0.20477295
1601137908873,1430,-1.3181152,-0.12994385,-0.049865723
1601137908874,1431,-1.1262207,-0.101379395,0.12884521
1601137908874,1432,-1.078125,-0.08868408,-0.12188721
1601137908874,1433,-1.1567383,0.08319092,0.08905029
1601137908874,1434,-0.9572754,-0.045959473,-0.1404419
1601137908874,1435,-1.3210449,0.038757324,0.09906006
1601137908874,1436,-1.3210449,0.038757324,0.09906006
1601137908874,1437,-1.3181152,-0.12994385,-0.049865723
1601137908874,1438,-1.1262207,-0.101379395,0.12884521
1601137908874,1439,-1.3210449,0.038757324,0.09906006
1601137908874,1440,-0.99609375,-0.02178955,0.055114746
1601137908876,1441,-1.3181152,-0.12994385,-0.049865723
1601137908876,1442,-0.96240234,-0.22906494,-0.09503174
1601137908884,1443,-1.078125,-0.08868408,-0.12188721
1601137908884,1444,-1.3181152,-0.12994385,-0.049865723
1601137908884,1445,-0.99731445,-0.19439697,-0.14849854
1601137908884,1446,-1.3181152,-0.12994385,-0.049865723
1601137908885,1447,-0.99609375,-0.02178955,0.055114746
1601137908885,1448,-1.1567383,0.08319092,0.08905029
1601137908885,1449,-1.1262207,-0.101379395,0.12884521
1601137908885,1450,-1.078125,-0.08868408,-0.12188721
1601137908885,1451,-1.078125,-0.08868408,-0.12188721
1601137908885,1452,-1.3210449,0.038757324,0.09906006
1601137908885,1453,-1.078125,-0.08868408,-0.12188721
1601137908886,1454,-1.0324707,-0.222229,-0.097961426
1601137908886,1455,-0.9572754,-0.045959473,-0.1404419
1601137908886,1456,-0.9572754,-0.045959473,-0.1404419
1601137908887,1457,-1.1567383,0.08319092,0.08905029
1601137908887,1458,-0.99609375,-0.02178955,0.055114746
1601137908887,1459,-0.99731445,-0.19439697,-0.14849854
1601137908887,1460,-0.9074707,-0.26593018,-0.12872314
1601137908887,1461,-0.9074707,-0.26593018,-0.12872314
1601137908887,1462,-0.96240234,-0.22906494,-0.09503174
1601137908896,1463,-1.078125,-0.08868408,-0.12188721
1601137908896,1464,-1.0263672,-0.22955322,-0.09552002
1601137908896,1465,-0.99731445,-0.19439697,-0.14849854
1601137908896,1466,-0.9572754,-0.045959473,-0.1404419
1601137908896,1467,-1.0231934,-0.22442627,-0.08380127
1601137908896,1468,-1.1567383,0.08319092,0.08905029
1601137908896,1469,-1.3181152,-0.12994385,-0.049865723
1601137908897,1470,-0.9572754,-0.045959473,-0.1404419
1601137908897,1471,-1.0324707,-0.222229,-0.097961426
1601137908897,1472,-1.3210449,0.038757324,0.09906006
1601137908897,1473,-0.99731445,-0.19439697,-0.14849854
1601137908897,1474,-0.9572754,-0.045959473,-0.1404419
1601137908897,1475,-1.3181152,-0.12994385,-0.049865723
1601137908898,1476,-0.9074707,-0.26593018,-0.12872314
1601137908898,1477,-1.078125,-0.08868408,-0.12188721
1601137908898,1478,-1.0146484,-0.190979,-0.090148926
1601137908898,1479,-0.96240234,-0.22906494,-0.09503174
1601137908898,1480,-1.3210449,0.038757324,0.09906006
1601137908911,1481,-0.99731445,-0.19439697,-0.14849854
1601137908911,1482,-0.99731445,-0.19439697,-0.14849854
1601137908911,1483,-0.96240234,-0.22906494,-0.09503174
1601137908911,1484,-0.9572754,-0.045959473,-0.1404419
1601137908912,1485,-1.078125,-0.08868408,-0.12188721
1601137908912,1486,-1.0324707,-0.222229,-0.097961426
1601137908912,1487,-1.0324707,-0.222229,-0.097961426
1601137908912,1488,-1.0263672,-0.22955322,-0.09552002
1601137908913,1489,-0.9074707,-0.26593018,-0.12872314
1601137908913,1490,-1.0231934,-0.22442627,-0.08380127
1601137908913,1491,-1.3181152,-0.12994385,-0.049865723
1601137908913,1492,-0.9074707,-0.26593018,-0.12872314
1601137908913,1493,-1.078125,-0.08868408,-0.12188721
1601137908913,1494,-1.2871094,-0.13458252,-0.23052979
1601137908913,1495,-0.9572754,-0.045959473,-0.1404419
1601137908913,1496,-0.9572754,-0.045959473,-0.1404419
1601137908913,1497,-1.0263672,-0.22955322,-0.09552002
1601137908913,1498,-1.0263672,-0.22955322,-0.09552002
1601137908914,1499,-0.9074707,-0.26593018,-0.12872314
1601137908914,1500,-1.0146484,-0.190979,-0.090148926
1601137908914,1501,-0.96240234,-0.22906494,-0.09503174
1601137908914,1502,-0.99731445,-0.19439697,-0.14849854
1601137908914,1503,-1.3884277,-0.36553955,-0.16119385
1601137908918,1504,-0.99731445,-0.19439697,-0.14849854
1601137908920,1505,-0.96240234,-0.22906494,-0.09503174
1601137908920,1506,-1.0231934,-0.22442627,-0.08380127
1601137908921,1507,-1.0231934,-0.22442627,-0.08380127
1601137908921,1508,-1.0324707,-0.222229,-0.097961426
1601137908921,1509,-1.0146484,-0.190979,-0.090148926
1601137908921,1510,-0.96240234,-0.22906494,-0.09503174
1601137908921,1511,-0.9074707,-0.26593018,-0.12872314
1601137908921,1512,-1.0324707,-0.222229,-0.097961426
1601137908921,1513,-0.9074707,-0.26593018,-0.12872314
1601137908921,1514,-1.072998,-0.20220947,-0.062072754
1601137908927,1515,-0.96240234,-0.22906494,-0.09503174
1601137908928,1516,-0.87841797,-0.17510986,0.02166748
1601137908928,1517,-1.0324707,-0.222229,-0.097961426
1601137908928,1518,-1.0146484,-0.190979,-0.090148926
1601137908928,1519,-1.0263672,-0.22955322,-0.09552002
1601137908928,1520,-0.99731445,-0.19439697,-0.14849854
1601137908928,1521,-1.0263672,-0.22955322,-0.09552002
1601137908928,1522,-0.9074707,-0.26593018,-0.12872314
1601137908928,1523,-1.2871094,-0.13458252,-0.23052979
1601137908928,1524,-0.96240234,-0.22906494,-0.09503174
1601137908928,1525,-0.97021484,-0.13482666,0.04046631
1601137908930,1526,-0.96240234,-0.22906494,-0.09503174
1601137908931,1527,-1.0231934,-0.22442627,-0.08380127
1601137908931,1528,-0.94140625,-0.11895752,-0.026672363
1601137908931,1529,-1.2871094,-0.13458252,-0.23052979
1601137908931,1530,-1.0324707,-0.222229,-0.097961426
1601137908931,1531,-1.0146484,-0.190979,-0.090148926
1601137908931,1532,-1.0231934,-0.22442627,-0.08380127
1601137908931,1533,-1.0263672,-0.22955322,-0.09552002
1601137908931,1534,-1.0263672,-0.22955322,-0.09552002
1601137908932,1535,-1.0324707,-0.222229,-0.097961426
1601137908932,1536,-1.2871094,-0.13458252,-0.23052979
1601137908932,1537,-1.0324707,-0.222229,-0.097961426
1601137908938,1538,-1.3884277,-0.36553955,-0.16119385
1601137908939,1539,-1.0146484,-0.190979,-0.090148926
1601137908939,1540,-1.0231934,-0.22442627,-0.08380127
1601137908939,1541,-1.2871094,-0.13458252,-0.23052979
1601137908939,1542,-1.0263672,-0.22955322,-0.09552002
1601137908939,1543,-1.3884277,-0.36553955,-0.16119385
1601137908939,1544,-1.0231934,-0.22442627,-0.08380127
1601137908939,1545,-1.2871094,-0.13458252,-0.23052979
1601137908939,1546,-1.0263672,-0.22955322,-0.09552002
1601137908939,1547,-1.3884277,-0.36553955,-0.16119385
1601137908940,1548,-1.072998,-0.20220947,-0.062072754
1601137908941,1549,-1.3884277,-0.36553955,-0.16119385
1601137908941,1550,-1.072998,-0.20220947,-0.062072754
1601137908945,1551,-1.0231934,-0.22442627,-0.08380127
1601137908945,1552,-0.87841797,-0.17510986,0.02166748
1601137908945,1553,-1.0146484,-0.190979,-0.090148926
1601137908945,1554,-1.3884277,-0.36553955,-0.16119385
1601137908945,1555,-0.87841797,-0.17510986,0.02166748
1601137908945,1556,-1.2871094,-0.13458252,-0.23052979
1601137908945,1557,-1.0231934,-0.22442627,-0.08380127
1601137908946,1558,-1.0146484,-0.190979,-0.090148926
1601137908946,1559,-1.072998,-0.20220947,-0.062072754
1601137908946,1560,-0.97021484,-0.13482666,0.04046631
1601137908946,1561,-1.3884277,-0.36553955,-0.16119385
1601137908946,1562,-0.87841797,-0.17510986,0.02166748
1601137908946,1563,-1.2871094,-0.13458252,-0.23052979
1601137908946,1564,-1.072998,-0.20220947,-0.062072754
1601137908946,1565,-1.072998,-0.20220947,-0.062072754
1601137908946,1566,-0.97021484,-0.13482666,0.04046631
1601137908946,1567,-1.0146484,-0.190979,-0.090148926
1601137908946,1568,-0.97021484,-0.13482666,0.04046631
1601137908946,1569,-0.87841797,-0.17510986,0.02166748
1601137908947,1570,-1.3884277,-0.36553955,-0.16119385
1601137908947,1571,-0.87841797,-0.17510986,0.02166748
1601137908951,1572,-0.94140625,-0.11895752,-0.026672363
1601137908952,1573,-1.2871094,-0.13458252,-0.23052979
1601137908952,1574,-0.94140625,-0.11895752,-0.026672363
1601137908952,1575,-1.3884277,-0.36553955,-0.16119385
1601137908952,1576,-0.94140625,-0.11895752,-0.026672363
1601137908952,1577,-1.072998,-0.20220947,-0.062072754
1601137908952,1578,-1.0146484,-0.190979,-0.090148926
1601137908952,1579,-0.97021484,-0.13482666,0.04046631
1601137908952,1580,-1.2871094,-0.13458252,-0.23052979
1601137908952,1581,-1.072998,-0.20220947,-0.062072754
1601137908952,1582,-1.3884277,-0.36553955,-0.16119385
1601137908952,1583,-0.97021484,-0.13482666,0.04046631
1601137908953,1584,-0.87841797,-0.17510986,0.02166748
1601137908954,1585,-1.072998,-0.20220947,-0.062072754
1601137908957,1586,-1.072998,-0.20220947,-0.062072754
1601137908957,1587,-0.94140625,-0.11895752,-0.026672363
1601137908957,1588,-0.87841797,-0.17510986,0.02166748
1601137908957,1589,-0.97021484,-0.13482666,0.04046631
1601137908957,1590,-0.87841797,-0.17510986,0.02166748
1601137908957,1591,-0.94140625,-0.11895752,-0.026672363
1601137908958,1592,-0.94140625,-0.11895752,-0.026672363
1601137908958,1593,-0.97021484,-0.13482666,0.04046631
1601137908958,1594,-0.94140625,-0.11895752,-0.026672363
1601137908958,1595,-0.87841797,-0.17510986,0.02166748
1601137908959,1596,-0.97021484,-0.13482666,0.04046631
1601137908959,1597,-0.97021484,-0.13482666,0.04046631
1601137908960,1598,-0.94140625,-0.11895752,-0.026672363
1601137908961,1599,-0.94140625,-0.11895752,-0.026672363
1601137911737,1600,-0.94750977,-0.085510254,-0.026672363
1601137911738,1601,-0.94750977,-0.085510254,-0.026672363
1601137911738,1602,-0.94750977,-0.085510254,-0.026672363
1601137911738,1603,-0.94750977,-0.085510254,-0.026672363
1601137911738,1604,-0.9104004,-0.10040283,-0.00982666
1601137911738,1605,-0.94750977,-0.085510254,-0.026672363
1601137911738,1606,-0.9104004,-0.10040283,-0.00982666
1601137911738,1607,-0.9104004,-0.10040283,-0.00982666
1601137911738,1608,-0.98413086,-0.1560669,-0.0134887695
1601137911738,1609,-0.94750977,-0.085510254,-0.026672363
1601137911738,1610,-0.94750977,-0.085510254,-0.026672363
1601137911738,1611,-0.94750977,-0.085510254,-0.026672363
1601137911739,1612,-1.0654297,-0.14703369,0.06561279
1601137911739,1613,-0.94750977,-0.085510254,-0.026672363
1601137911739,1614,-0.98413086,-0.1560669,-0.0134887695
1601137911739,1615,-0.94750977,-0.085510254,-0.026672363
1601137911739,1616,-0.9104004,-0.10040283,-0.00982666
1601137911739,1617,-0.98413086,-0.1560669,-0.0134887695
1601137911739,1618,-0.97436523,-0.117004395,0.08392334
1601137911739,1619,-0.9104004,-0.10040283,-0.00982666
1601137911739,1620,-0.9104004,-0.10040283,-0.00982666
1601137911739,1621,-1.0654297,-0.14703369,0.06561279
1601137911745,1622,-0.9104004,-0.10040283,-0.00982666
1601137911745,1623,-0.98413086,-0.1560669,-0.0134887695
1601137911745,1624,-0.97436523,-0.117004395,0.08392334
1601137911745,1625,-1.0654297,-0.14703369,0.06561279
1601137911745,1626,-0.9104004,-0.10040283,-0.00982666
1601137911745,1627,-0.98413086,-0.1560669,-0.0134887695
1601137911746,1628,-0.98413086,-0.1560669,-0.0134887695
1601137911746,1629,-0.9104004,-0.10040283,-0.00982666
1601137911746,1630,-0.97436523,-0.117004395,0.08392334
1601137911746,1631,-1.0654297,-0.14703369,0.06561279
1601137911746,1632,-0.9104004,-0.10040283,-0.00982666
1601137911746,1633,-0.8718262,-0.22906494,0.06121826
1601137911746,1634,-0.97436523,-0.117004395,0.08392334
1601137911746,1635,-0.8718262,-0.22906494,0.06121826
1601137911753,1636,-0.94970703,-0.26348877,0.04852295
1601137911753,1637,-0.98413086,-0.1560669,-0.0134887695
1601137911753,1638,-0.9819336,-0.24542236,0.010192871
1601137911753,1639,-1.0654297,-0.14703369,0.06561279
1601137911753,1640,-1.0654297,-0.14703369,0.06561279
1601137911753,1641,-0.98413086,-0.1560669,-0.0134887695
1601137911754,1642,-0.97436523,-0.117004395,0.08392334
1601137911754,1643,-0.98413086,-0.1560669,-0.0134887695
1601137911754,1644,-0.8718262,-0.22906494,0.06121826
1601137911754,1645,-0.8718262,-0.22906494,0.06121826
1601137911754,1646,-0.94970703,-0.26348877,0.04852295
1601137911754,1647,-0.94970703,-0.26348877,0.04852295
1601137911754,1648,-0.94970703,-0.26348877,0.04852295
1601137911754,1649,-1.0739746,-0.37213135,-0.003479004
1601137911755,1650,-0.97436523,-0.117004395,0.08392334
1601137911755,1651,-0.9819336,-0.24542236,0.010192871
1601137911755,1652,-1.0654297,-0.14703369,0.06561279
1601137911755,1653,-1.244873,-0.4649048,1.8310547E-4
1601137911755,1654,-0.98413086,-0.1560669,-0.0134887695
1601137911755,1655,-0.97436523,-0.117004395,0.08392334
1601137911756,1656,-1.0739746,-0.37213135,-0.003479004
1601137911756,1657,-0.9819336,-0.24542236,0.010192871
1601137911756,1658,-0.8718262,-0.22906494,0.06121826
1601137911756,1659,-1.4431152,-0.13482666,-0.15631104
1601137911756,1660,-1.0654297,-0.14703369,0.06561279
1601137911764,1661,-1.0654297,-0.14703369,0.06561279
1601137911764,1662,-0.8718262,-0.22906494,0.06121826
1601137911764,1663,-0.8718262,-0.22906494,0.06121826
1601137911764,1664,-1.0654297,-0.14703369,0.06561279
1601137911764,1665,-0.9819336,-0.24542236,0.010192871
1601137911764,1666,-1.244873,-0.4649048,1.8310547E-4
1601137911764,1667,-1.0739746,-0.37213135,-0.003479004
1601137911765,1668,-0.94970703,-0.26348877,0.04852295
1601137911765,1669,-1.4431152,-0.13482666,-0.15631104
1601137911765,1670,-0.97436523,-0.117004395,0.08392334
1601137911765,1671,-0.97436523,-0.117004395,0.08392334
1601137911765,1672,-0.9819336,-0.24542236,0.010192871
1601137911765,1673,-0.94970703,-0.26348877,0.04852295
1601137911765,1674,-0.94970703,-0.26348877,0.04852295
1601137911766,1675,-1.0739746,-0.37213135,-0.003479004
1601137911766,1676,-0.97436523,-0.117004395,0.08392334
1601137911766,1677,-1.244873,-0.4649048,1.8310547E-4
1601137911766,1678,-1.1689453,-0.74786377,-0.39483643
1601137911766,1679,-1.1689453,-0.74786377,-0.39483643
1601137911766,1680,-0.8718262,-0.22906494,0.06121826
1601137911767,1681,-0.8718262,-0.22906494,0.06121826
1601137911767,1682,-0.8718262,-0.22906494,0.06121826
1601137911773,1683,-1.0739746,-0.37213135,-0.003479004
1601137911774,1684,-0.9819336,-0.24542236,0.010192871
1601137911774,1685,-1.244873,-0.4649048,1.8310547E-4
1601137911774,1686,-1.4431152,-0.13482666,-0.15631104
1601137911774,1687,-1.0739746,-0.37213135,-0.003479004
1601137911774,1688,-0.9819336,-0.24542236,0.010192871
1601137911774,1689,-1.244873,-0.4649048,1.8310547E-4
1601137911775,1690,-0.94970703,-0.26348877,0.04852295
1601137911775,1691,-1.0739746,-0.37213135,-0.003479004
1601137911775,1692,-0.94970703,-0.26348877,0.04852295
1601137911775,1693,-1.244873,-0.4649048,1.8310547E-4
1601137911775,1694,-1.244873,-0.4649048,1.8310547E-4
1601137911775,1695,-0.9819336,-0.24542236,0.010192871
1601137911775,1696,-0.9819336,-0.24542236,0.010192871
1601137911776,1697,-1.1738281,-0.5408325,-0.39508057
1601137911776,1698,-1.1689453,-0.74786377,-0.39483643
1601137911776,1699,-1.4431152,-0.13482666,-0.15631104
1601137911776,1700,-0.94970703,-0.26348877,0.04852295
1601137911776,1701,-1.4431152,-0.13482666,-0.15631104
1601137911785,1702,-1.4431152,-0.13482666,-0.15631104
1601137911786,1703,-1.0739746,-0.37213135,-0.003479004
1601137911786,1704,-1.1738281,-0.5408325,-0.39508057
1601137911786,1705,-1.0739746,-0.37213135,-0.003479004
1601137911786,1706,-1.2324219,-0.1560669,-0.44024658
1601137911786,1707,-1.1738281,-0.5408325,-0.39508057
1601137911786,1708,-1.244873,-0.4649048,1.8310547E-4
1601137911786,1709,-0.9819336,-0.24542236,0.010192871
1601137911786,1710,-1.2324219,-0.1560669,-0.44024658
1601137911786,1711,-1.4431152,-0.13482666,-0.15631104
1601137911787,1712,-1.1225586,-0.12335205,-0.23370361
1601137911787,1713,-1.1689453,-0.74786377,-0.39483643
1601137911787,1714,-1.244873,-0.4649048,1.8310547E-4
1601137911787,1715,-1.1689453,-0.74786377,-0.39483643
1601137911787,1716,-1.1689453,-0.74786377,-0.39483643
1601137911787,1717,-1.4431152,-0.13482666,-0.15631104
1601137911787,1718,-1.4431152,-0.13482666,-0.15631104
1601137911787,1719,-1.1738281,-0.5408325,-0.39508057
1601137911788,1720,-1.1738281,-0.5408325,-0.39508057
1601137911788,1721,-1.0739746,-0.37213135,-0.003479004
1601137911788,1722,-1.1689453,-0.74786377,-0.39483643
1601137911788,1723,-0.8444824,-0.12213135,-0.101135254
1601137911788,1724,-1.1225586,-0.12335205,-0.23370361
1601137911788,1725,-1.1738281,-0.5408325,-0.39508057
1601137911788,1726,-1.1689453,-0.74786377,-0.39483643
1601137911788,1727,-0.72265625,-0.10089111,-0.028869629
1601137911788,1728,-1.1738281,-0.5408325,-0.39508057
1601137911789,1729,-1.2324219,-0.1560669,-0.44024658
1601137911789,1730,-1.2324219,-0.1560669,-0.44024658
1601137911789,1731,-1.244873,-0.4649048,1.8310547E-4
1601137911789,1732,-1.2324219,-0.1560669,-0.44024658
1601137911789,1733,-1.1738281,-0.5408325,-0.39508057
1601137911789,1734,-0.8444824,-0.12213135,-0.101135254
1601137911794,1735,-0.7385254,-0.20977783,-0.08258057
1601137911794,1736,-1.2324219,-0.1560669,-0.44024658
1601137911795,1737,-1.1689453,-0.74786377,-0.39483643
1601137911795,1738,-1.4431152,-0.13482666,-0.15631104
1601137911795,1739,-1.0021973,-0.33258057,-0.12335205
1601137911795,1740,-1.1225586,-0.12335205,-0.23370361
1601137911795,1741,-1.1689453,-0.74786377,-0.39483643
1601137911795,1742,-1.2324219,-0.1560669,-0.44024658
1601137911795,1743,-1.1738281,-0.5408325,-0.39508057
1601137911795,1744,-0.72265625,-0.10089111,-0.028869629
1601137911800,1745,-1.1738281,-0.5408325,-0.39508057
1601137911800,1746,-1.1225586,-0.12335205,-0.23370361
1601137911800,1747,-1.1806641,-0.55963135,-0.07623291
1601137911800,1748,-1.2324219,-0.1560669,-0.44024658
1601137911800,1749,-0.8444824,-0.12213135,-0.101135254
1601137911800,1750,-1.1225586,-0.12335205,-0.23370361
1601137911801,1751,-1.2324219,-0.1560669,-0.44024658
1601137911801,1752,-1.2324219,-0.1560669,-0.44024658
1601137911801,1753,-0.8444824,-0.12213135,-0.101135254
1601137911801,1754,-1.1225586,-0.12335205,-0.23370361
1601137911801,1755,-1.1225586,-0.12335205,-0.23370361
1601137911801,1756,-1.2990723,-0.38580322,0.020446777
1601137911802,1757,-0.72265625,-0.10089111,-0.028869629
1601137911803,1758,-0.7385254,-0.20977783,-0.08258057
1601137911803,1759,-0.7385254,-0.20977783,-0.08258057
1601137911804,1760,-0.72265625,-0.10089111,-0.028869629
1601137911806,1761,-0.8444824,-0.12213135,-0.101135254
1601137911807,1762,-0.8444824,-0.12213135,-0.101135254
1601137911807,1763,-1.2922363,-0.34674072,-0.039123535
1601137911810,1764,-1.1225586,-0.12335205,-0.23370361
1601137911810,1765,-1.0021973,-0.33258057,-0.12335205
1601137911810,1766,-0.7385254,-0.20977783,-0.08258057
1601137911811,1767,-0.8444824,-0.12213135,-0.101135254
1601137911812,1768,-1.1225586,-0.12335205,-0.23370361
1601137911812,1769,-0.72265625,-0.10089111,-0.028869629
1601137911812,1770,-1.1831055,-0.472229,0.0060424805
1601137911813,1771,-1.1806641,-0.55963135,-0.07623291
1601137911814,1772,-1.0021973,-0.33258057,-0.12335205
1601137911819,1773,-1.0021973,-0.33258057,-0.12335205
1601137911821,1774,-1.1806641,-0.55963135,-0.07623291
1601137911821,1775,-0.7385254,-0.20977783,-0.08258057
1601137911822,1776,-1.2990723,-0.38580322,0.020446777
1601137911822,1777,-0.72265625,-0.10089111,-0.028869629
1601137911822,1778,-1.171875,-0.44537354,0.055114746
1601137911822,1779,-1.2922363,-0.34674072,-0.039123535
1601137911822,1780,-1.2990723,-0.38580322,0.020446777
1601137911822,1781,-1.2536621,-0.32110596,-0.01763916
1601137911822,1782,-0.8444824,-0.12213135,-0.101135254
1601137911822,1783,-1.1831055,-0.472229,0.0060424805
1601137911822,1784,-0.72265625,-0.10089111,-0.028869629
1601137911823,1785,-0.8444824,-0.12213135,-0.101135254
1601137911823,1786,-1.171875,-0.44537354,0.055114746
1601137911823,1787,-1.1225586,-0.12335205,-0.23370361
1601137911823,1788,-1.2536621,-0.32110596,-0.01763916
1601137911827,1789,-1.1806641,-0.55963135,-0.07623291
1601137911827,1790,-1.2922363,-0.34674072,-0.039123535
1601137911828,1791,-1.2597656,-0.2276001,-0.074035645
1601137911828,1792,-0.72265625,-0.10089111,-0.028869629
1601137911828,1793,-0.72265625,-0.10089111,-0.028869629
1601137911828,1794,-0.7385254,-0.20977783,-0.08258057
1601137911828,1795,-0.7385254,-0.20977783,-0.08258057
1601137911828,1796,-1.0021973,-0.33258057,-0.12335205
1601137911829,1797,-0.8444824,-0.12213135,-0.101135254
1601137911829,1798,-1.2597656,-0.2276001,-0.074035645
1601137911830,1799,-1.1831055,-0.472229,0.0060424805
1601137911841,1800,-1.2990723,-0.38580322,0.020446777
1601137911841,1801,-1.171875,-0.44537354,0.055114746
1601137911841,1802,-0.7385254,-0.20977783,-0.08258057
1601137911841,1803,-1.2922363,-0.34674072,-0.039123535
1601137911841,1804,-1.0021973,-0.33258057,-0.12335205
1601137911841,1805,-1.0021973,-0.33258057,-0.12335205
1601137911842,1806,-0.72265625,-0.10089111,-0.028869629
1601137911842,1807,-1.1806641,-0.55963135,-0.07623291
1601137911842,1808,-1.1806641,-0.55963135,-0.07623291
1601137911842,1809,-1.2990723,-0.38580322,0.020446777
1601137911842,1810,-1.0021973,-0.33258057,-0.12335205
1601137911842,1811,-1.2536621,-0.32110596,-0.01763916
1601137911842,1812,-0.7385254,-0.20977783,-0.08258057
1601137911842,1813,-1.1806641,-0.55963135,-0.07623291
1601137911842,1814,-1.1831055,-0.472229,0.0060424805
1601137911843,1815,-1.1806641,-0.55963135,-0.07623291
1601137911843,1816,-1.2580566,-0.22540283,-0.08404541
1601137911843,1817,-1.2990723,-0.38580322,0.020446777
1601137911843,1818,-0.7385254,-0.20977783,-0.08258057
1601137911843,1819,-1.2922363,-0.34674072,-0.039123535
1601137911843,1820,-1.2990723,-0.38580322,0.020446777
1601137911843,1821,-1.0021973,-0.33258057,-0.12335205
1601137911843,1822,-1.0021973,-0.33258057,-0.12335205
1601137911843,1823,-1.2922363,-0.34674072,-0.039123535
1601137911844,1824,-1.171875,-0.44537354,0.055114746
1601137911844,1825,-1.1269531,-0.17144775,-0.085998535
1601137911846,1826,-1.1831055,-0.472229,0.0060424805
1601137911851,1827,-1.1806641,-0.55963135,-0.07623291
1601137911852,1828,-1.1806641,-0.55963135,-0.07623291
1601137911853,1829,-1.1633301,-0.09918213,-0.035949707
1601137911853,1830,-1.1831055,-0.472229,0.0060424805
1601137911853,1831,-1.2580566,-0.22540283,-0.08404541
1601137911853,1832,-1.2536621,-0.32110596,-0.01763916
1601137911853,1833,-1.171875,-0.44537354,0.055114746
1601137911854,1834,-1.2597656,-0.2276001,-0.074035645
1601137911854,1835,-1.171875,-0.44537354,0.055114746
1601137911854,1836,-1.2536621,-0.32110596,-0.01763916
1601137911856,1837,-1.2990723,-0.38580322,0.020446777
1601137911857,1838,-1.2990723,-0.38580322,0.020446777
1601137911857,1839,-1.2922363,-0.34674072,-0.039123535
1601137911857,1840,-1.2922363,-0.34674072,-0.039123535
1601137911857,1841,-1.2922363,-0.34674072,-0.039123535
1601137911858,1842,-1.1269531,-0.17144775,-0.085998535
1601137911858,1843,-1.2990723,-0.38580322,0.020446777
1601137911858,1844,-1.1831055,-0.472229,0.0060424805
1601137911858,1845,-1.2580566,-0.22540283,-0.08404541
1601137911859,1846,-1.2597656,-0.2276001,-0.074035645
1601137911860,1847,-1.1831055,-0.472229,0.0060424805
1601137911861,1848,-0.91674805,0.010681152,0.038024902
1601137911861,1849,-1.2597656,-0.2276001,-0.074035645
1601137911861,1850,-1.1831055,-0.472229,0.0060424805
1601137911861,1851,-1.2536621,-0.32110596,-0.01763916
1601137911862,1852,-1.2597656,-0.2276001,-0.074035645
1601137911862,1853,-1.171875,-0.44537354,0.055114746
1601137911862,1854,-1.2580566,-0.22540283,-0.08404541
1601137911862,1855,-1.1633301,-0.09918213,-0.035949707
1601137911862,1856,-1.171875,-0.44537354,0.055114746
1601137911862,1857,-1.2580566,-0.22540283,-0.08404541
1601137911862,1858,-1.2536621,-0.32110596,-0.01763916
1601137911862,1859,-1.1269531,-0.17144775,-0.085998535
1601137911863,1860,-0.76660156,-0.018127441,0.066833496
1601137911863,1861,-1.2580566,-0.22540283,-0.08404541
1601137911867,1862,-1.1269531,-0.17144775,-0.085998535
1601137911868,1863,-1.2922363,-0.34674072,-0.039123535
1601137911868,1864,-1.1633301,-0.09918213,-0.035949707
1601137911868,1865,-1.1831055,-0.472229,0.0060424805
1601137911869,1866,-0.91674805,0.010681152,0.038024902
1601137911869,1867,-1.171875,-0.44537354,0.055114746
1601137911869,1868,-0.91674805,0.010681152,0.038024902
1601137911870,1869,-0.7687988,-0.08135986,0.1539917
1601137911870,1870,-1.2536621,-0.32110596,-0.01763916
1601137911870,1871,-1.1269531,-0.17144775,-0.085998535
1601137911876,1872,-1.171875,-0.44537354,0.055114746
1601137911876,1873,-1.2536621,-0.32110596,-0.01763916
1601137911876,1874,-1.1269531,-0.17144775,-0.085998535
1601137911876,1875,-1.2597656,-0.2276001,-0.074035645
1601137911877,1876,-0.76660156,-0.018127441,0.066833496
1601137911877,1877,-1.2597656,-0.2276001,-0.074035645
1601137911877,1878,-1.1633301,-0.09918213,-0.035949707
1601137911877,1879,-0.76660156,-0.018127441,0.066833496
1601137911877,1880,-1.2536621,-0.32110596,-0.01763916
1601137911877,1881,-1.1633301,-0.09918213,-0.035949707
1601137911877,1882,-1.2597656,-0.2276001,-0.074035645
1601137911877,1883,-0.7687988,-0.08135986,0.1539917
1601137911878,1884,-1.1633301,-0.09918213,-0.035949707
1601137911878,1885,-1.2580566,-0.22540283,-0.08404541
1601137911878,1886,-0.7687988,-0.08135986,0.1539917
1601137911878,1887,-1.2597656,-0.2276001,-0.074035645
1601137911878,1888,-0.91674805,0.010681152,0.038024902
1601137911878,1889,-1.2580566,-0.22540283,-0.08404541
1601137911878,1890,-1.2580566,-0.22540283,-0.08404541
1601137911880,1891,-0.91674805,0.010681152,0.038024902
1601137911880,1892,-1.2580566,-0.22540283,-0.08404541
1601137911882,1893,-1.1269531,-0.17144775,-0.085998535
1601137911883,1894,-1.1633301,-0.09918213,-0.035949707
1601137911883,1895,-1.1269531,-0.17144775,-0.085998535
1601137911883,1896,-0.76660156,-0.018127441,0.066833496
1601137911883,1897,-0.76660156,-0.018127441,0.066833496
1601137911883,1898,-1.1269531,-0.17144775,-0.085998535
1601137911883,1899,-0.91674805,0.010681152,0.038024902
1601137911883,1900,-1.1269531,-0.17144775,-0.085998535
1601137911886,1901,-1.1633301,-0.09918213,-0.035949707
1601137911887,1902,-0.7687988,-0.08135986,0.1539917
1601137911891,1903,-1.1633301,-0.09918213,-0.035949707
1601137911892,1904,-1.1633301,-0.09918213,-0.035949707
1601137911893,1905,-0.91674805,0.010681152,0.038024902
1601137911893,1906,-0.7687988,-0.08135986,0.1539917
1601137911893,1907,-0.91674805,0.010681152,0.038024902
1601137911894,1908,-0.76660156,-0.018127441,0.066833496
1601137911898,1909,-0.76660156,-0.018127441,0.066833496
1601137911898,1910,-0.91674805,0.010681152,0.038024902
1601137911899,1911,-0.76660156,-0.018127441,0.066833496
1601137911899,1912,-0.7687988,-0.08135986,0.1539917
1601137911899,1913,-0.76660156,-0.018127441,0.066833496
1601137911899,1914,-0.7687988,-0.08135986,0.1539917
1601137911899,1915,-0.7687988,-0.08135986,0.1539917
1601137911899,1916,-0.91674805,0.010681152,0.038024902
1601137911901,1917,-0.7687988,-0.08135986,0.1539917
1601137911901,1918,-0.76660156,-0.018127441,0.066833496
1601137911902,1919,-0.7687988,-0.08135986,0.1539917
1601137913866,1920,-0.8581543,-0.054992676,0.08929443
1601137913875,1921,-0.8581543,-0.054992676,0.08929443
1601137913875,1922,-0.8581543,-0.054992676,0.08929443
1601137913876,1923,-0.8581543,-0.054992676,0.08929443
1601137913876,1924,-0.8581543,-0.054992676,0.08929443
1601137913876,1925,-0.8581543,-0.054992676,0.08929443
1601137913876,1926,-0.8581543,-0.054992676,0.08929443
1601137913876,1927,-0.8581543,-0.054992676,0.08929443
1601137913876,1928,-1.1262207,-0.24371338,0.01751709
1601137913876,1929,-1.1262207,-0.24371338,0.01751709
1601137913877,1930,-1.2434082,-0.26446533,0.089782715
1601137913880,1931,-1.1262207,-0.24371338,0.01751709
1601137913880,1932,-1.2631836,-0.2859497,0.06976318
1601137913880,1933,-1.1262207,-0.24371338,0.01751709
1601137913880,1934,-1.2434082,-0.26446533,0.089782715
1601137913880,1935,-1.1262207,-0.24371338,0.01751709
1601137913880,1936,-1.2631836,-0.2859497,0.06976318
1601137913881,1937,-1.2434082,-0.26446533,0.089782715
1601137913882,1938,-1.1262207,-0.24371338,0.01751709
1601137913882,1939,-1.1262207,-0.24371338,0.01751709
1601137913882,1940,-1.2434082,-0.26446533,0.089782715
1601137913882,1941,-0.8581543,-0.054992676,0.08929443
1601137913882,1942,-1.078125,-0.32989502,0.09539795
1601137913883,1943,-1.2434082,-0.26446533,0.089782715
1601137913883,1944,-0.96362305,-0.34088135,0.14324951
1601137913883,1945,-1.1262207,-0.24371338,0.01751709
1601137913883,1946,-0.9753418,-0.40704346,0.14813232
1601137913889,1947,-1.1262207,-0.24371338,0.01751709
1601137913889,1948,-0.8581543,-0.054992676,0.08929443
1601137913890,1949,-1.078125,-0.32989502,0.09539795
1601137913890,1950,-1.2434082,-0.26446533,0.089782715
1601137913890,1951,-1.2631836,-0.2859497,0.06976318
1601137913890,1952,-1.2631836,-0.2859497,0.06976318
1601137913890,1953,-0.96362305,-0.34088135,0.14324951
1601137913890,1954,-1.2434082,-0.26446533,0.089782715
1601137913890,1955,-1.0515137,-0.23956299,0.16033936
1601137913890,1956,-1.078125,-0.32989502,0.09539795
1601137913890,1957,-1.2631836,-0.2859497,0.06976318
1601137913891,1958,-0.9753418,-0.40704346,0.14813232
1601137913891,1959,-1.2631836,-0.2859497,0.06976318
1601137913891,1960,-1.1262207,-0.24371338,0.01751709
1601137913891,1961,-1.2631836,-0.2859497,0.06976318
1601137913891,1962,-1.078125,-0.32989502,0.09539795
1601137913891,1963,-1.2434082,-0.26446533,0.089782715
1601137913897,1964,-1.078125,-0.32989502,0.09539795
1601137913898,1965,-1.078125,-0.32989502,0.09539795
1601137913898,1966,-0.96362305,-0.34088135,0.14324951
1601137913898,1967,-1.2434082,-0.26446533,0.089782715
1601137913898,1968,-1.0126953,-0.17510986,0.18670654
1601137913898,1969,-1.0515137,-0.23956299,0.16033936
1601137913898,1970,-1.078125,-0.32989502,0.09539795
1601137913898,1971,-1.2631836,-0.2859497,0.06976318
1601137913898,1972,-0.96362305,-0.34088135,0.14324951
1601137913898,1973,-1.078125,-0.32989502,0.09539795
1601137913899,1974,-0.9753418,-0.40704346,0.14813232
1601137913899,1975,-0.96362305,-0.34088135,0.14324951
1601137913899,1976,-0.96362305,-0.34088135,0.14324951
1601137913899,1977,-0.9753418,-0.40704346,0.14813232
1601137913899,1978,-0.9753418,-0.40704346,0.14813232
1601137913899,1979,-1.2434082,-0.26446533,0.089782715
1601137913899,1980,-0.9753418,-0.40704346,0.14813232
1601137913899,1981,-1.0126953,-0.17510986,0.18670654
1601137913899,1982,-0.96362305,-0.34088135,0.14324951
1601137913904,1983,-0.96362305,-0.34088135,0.14324951
1601137913904,1984,-1.0515137,-0.23956299,0.16033936
1601137913904,1985,-1.0515137,-0.23956299,0.16033936
1601137913904,1986,-1.2631836,-0.2859497,0.06976318
1601137913905,1987,-0.9753418,-0.40704346,0.14813232
1601137913905,1988,-1.2631836,-0.2859497,0.06976318
1601137913905,1989,-1.0515137,-0.23956299,0.16033936
1601137913905,1990,-1.0515137,-0.23956299,0.16033936
1601137913905,1991,-0.89990234,-0.18414307,0.2909546
1601137913906,1992,-0.9753418,-0.40704346,0.14813232
1601137913906,1993,-1.0126953,-0.17510986,0.18670654
1601137913906,1994,-1.0126953,-0.17510986,0.18670654
1601137913911,1995,-1.0515137,-0.23956299,0.16033936
1601137913911,1996,-0.89990234,-0.18414307,0.2909546
1601137913911,1997,-1.078125,-0.32989502,0.09539795
1601137913912,1998,-1.0126953,-0.17510986,0.18670654
1601137913912,1999,-1.0126953,-0.17510986,0.18670654
1601137913912,2000,-0.96362305,-0.34088135,0.14324951
1601137913912,2001,-1.0515137,-0.23956299,0.16033936
1601137913912,2002,-0.9753418,-0.40704346,0.14813232
1601137913912,2003,-1.078125,-0.32989502,0.09539795
1601137913912,2004,-0.89990234,-0.18414307,0.2909546
1601137913917,2005,-1.0126953,-0.17510986,0.18670654
1601137913917,2006,-1.0588379,-0.21270752,0.2020874
1601137913918,2007,-1.0588379,-0.21270752,0.2020874
1601137913918,2008,-0.89990234,-0.18414307,0.2909546
1601137913918,2009,-0.89990234,-0.18414307,0.2909546
1601137913918,2010,-0.89990234,-0.18414307,0.2909546
1601137913918,2011,-1.0515137,-0.23956299,0.16033936
1601137913918,2012,-1.0126953,-0.17510986,0.18670654
1601137913918,2013,-0.96362305,-0.34088135,0.14324951
1601137913918,2014,-1.0588379,-0.21270752,0.2020874
1601137913923,2015,-0.89990234,-0.18414307,0.2909546
1601137913923,2016,-1.0256348,-0.24493408,0.08343506
1601137913924,2017,-1.0588379,-0.21270752,0.2020874
1601137913924,2018,-1.0588379,-0.21270752,0.2020874
1601137913924,2019,-1.0588379,-0.21270752,0.2020874
1601137913924,2020,-1.0256348,-0.24493408,0.08343506
1601137913924,2021,-1.0126953,-0.17510986,0.18670654
1601137913924,2022,-1.0256348,-0.24493408,0.08343506
1601137913924,2023,-1.0256348,-0.24493408,0.08343506
1601137913924,2024,-0.9641113,-0.2468872,-0.013244629
1601137913929,2025,-1.0256348,-0.24493408,0.08343506
1601137913929,2026,-0.9641113,-0.2468872,-0.013244629
1601137913929,2027,-1.0256348,-0.24493408,0.08343506
1601137913929,2028,-1.0588379,-0.21270752,0.2020874
1601137913930,2029,-0.9641113,-0.2468872,-0.013244629
1601137913930,2030,-0.89990234,-0.18414307,0.2909546
1601137913930,2031,-0.9641113,-0.2468872,-0.013244629
1601137913930,2032,-1.0256348,-0.24493408,0.08343506
1601137913930,2033,-1.1245117,-0.2913208,-0.034973145
1601137913930,2034,-0.9641113,-0.2468872,-0.013244629
1601137913935,2035,-1.1245117,-0.2913208,-0.034973145
1601137913935,2036,-1.1245117,-0.2913208,-0.034973145
1601137913935,2037,-0.89990234,-0.18414307,0.2909546
1601137913936,2038,-1.0588379,-0.21270752,0.2020874
1601137913936,2039,-0.9753418,-0.40704346,0.14813232
1601137913936,2040,-1.1245117,-0.2913208,-0.034973145
1601137913936,2041,-1.0515137,-0.23956299,0.16033936
1601137913936,2042,-1.1245117,-0.2913208,-0.034973145
1601137913936,2043,-0.9641113,-0.2468872,-0.013244629
1601137913936,2044,-1.0537109,-0.27886963,0.019470215
1601137913936,2045,-1.0537109,-0.27886963,0.019470215
1601137913937,2046,-1.0588379,-0.21270752,0.2020874
1601137913948,2047,-1.0256348,-0.24493408,0.08343506
1601137913949,2048,-1.0537109,-0.27886963,0.019470215
1601137913949,2049,-1.0126953,-0.17510986,0.18670654
1601137913949,2050,-1.0537109,-0.27886963,0.019470215
1601137913949,2051,-1.1403809,-0.18218994,0.015075684
1601137913949,2052,-0.89990234,-0.18414307,0.2909546
1601137913949,2053,-1.1245117,-0.2913208,-0.034973145
1601137913949,2054,-1.1403809,-0.18218994,0.015075684
1601137913949,2055,-1.0588379,-0.21270752,0.2020874
1601137913949,2056,-1.0256348,-0.24493408,0.08343506
1601137913949,2057,-1.0214844,-0.19488525,0.005065918
1601137913950,2058,-1.0256348,-0.24493408,0.08343506
1601137913950,2059,-1.0537109,-0.27886963,0.019470215
1601137913950,2060,-0.9641113,-0.2468872,-0.013244629
1601137913950,2061,-0.9641113,-0.2468872,-0.013244629
1601137913950,2062,-1.0214844,-0.19488525,0.005065918
1601137913950,2063,-1.1403809,-0.18218994,0.015075684
1601137913950,2064,-1.1245117,-0.2913208,-0.034973145
1601137913950,2065,-1.0537109,-0.27886963,0.019470215
1601137913950,2066,-1.0305176,-0.21099854,0.02923584
1601137913951,2067,-0.9641113,-0.2468872,-0.013244629
1601137913951,2068,-1.1403809,-0.18218994,0.015075684
1601137913951,2069,-1.1403809,-0.18218994,0.015075684
1601137913951,2070,-1.1245117,-0.2913208,-0.034973145
1601137913951,2071,-1.0214844,-0.19488525,0.005065918
1601137913951,2072,-1.0305176,-0.21099854,0.02923584
1601137913951,2073,-1.0214844,-0.19488525,0.005065918
1601137913973,2074,-1.1403809,-0.18218994,0.015075684
1601137913973,2075,-1.0537109,-0.27886963,0.019470215
1601137913973,2076,-1.0422363,-0.22271729,0.022155762
1601137913973,2077,-1.0214844,-0.19488525,0.005065918
1601137913973,2078,-1.1245117,-0.2913208,-0.034973145
1601137913974,2079,-0.9641113,-0.2468872,-0.013244629
1601137913974,2080,-1.0537109,-0.27886963,0.019470215
1601137913974,2081,-1.0305176,-0.21099854,0.02923584
1601137913974,2082,-1.1403809,-0.18218994,0.015075684
1601137913974,2083,-1.0305176,-0.21099854,0.02923584
1601137913974,2084,-1.0422363,-0.22271729,0.022155762
1601137913974,2085,-1.0214844,-0.19488525,0.005065918
1601137913974,2086,-1.0175781,-0.32452393,-0.07672119
1601137913974,2087,-1.1403809,-0.18218994,0.015075684
1601137913974,2088,-1.0305176,-0.21099854,0.02923584
1601137913975,2089,-1.0537109,-0.27886963,0.019470215
1601137913975,2090,-1.0422363,-0.22271729,0.022155762
1601137913975,2091,-1.1245117,-0.2913208,-0.034973145
1601137913975,2092,-1.0214844,-0.19488525,0.005065918
1601137913975,2093,-1.0537109,-0.27886963,0.019470215
1601137913975,2094,-1.0175781,-0.32452393,-0.07672119
1601137913975,2095,-1.0488281,-0.61676025,-0.21221924
1601137913975,2096,-1.0422363,-0.22271729,0.022155762
1601137913975,2097,-0.9782715,-0.14239502,-0.04083252
1601137913976,2098,-1.0214844,-0.19488525,0.005065918
1601137913976,2099,-1.0422363,-0.22271729,0.022155762
1601137913976,2100,-1.0305176,-0.21099854,0.02923584
1601137913976,2101,-1.0175781,-0.32452393,-0.07672119
1601137913976,2102,-1.1403809,-0.18218994,0.015075684
1601137913976,2103,-1.0488281,-0.61676025,-0.21221924
1601137913976,2104,-1.1403809,-0.18218994,0.015075684
1601137913976,2105,-1.0214844,-0.19488525,0.005065918
1601137913976,2106,-1.0305176,-0.21099854,0.02923584
1601137913977,2107,-0.9406738,-0.32476807,-0.14459229
1601137913977,2108,-1.0305176,-0.21099854,0.02923584
1601137913977,2109,-1.0305176,-0.21099854,0.02923584
1601137913977,2110,-1.0422363,-0.22271729,0.022155762
1601137913977,2111,-1.0422363,-0.22271729,0.022155762
1601137913977,2112,-1.0488281,-0.61676025,-0.21221924
1601137913977,2113,-1.0214844,-0.19488525,0.005065918
1601137913977,2114,-1.0175781,-0.32452393,-0.07672119
1601137913978,2115,-0.9782715,-0.14239502,-0.04083252
1601137913978,2116,-0.9782715,-0.14239502,-0.04083252
1601137913978,2117,-1.0175781,-0.32452393,-0.07672119
1601137913978,2118,-1.0422363,-0.22271729,0.022155762
1601137913978,2119,-1.0422363,-0.22271729,0.022155762
1601137913979,2120,-0.9406738,-0.32476807,-0.14459229
1601137913983,2121,-1.0175781,-0.32452393,-0.07672119
1601137913983,2122,-1.0488281,-0.61676025,-0.21221924
1601137913983,2123,-1.0488281,-0.61676025,-0.21221924
1601137913983,2124,-1.0305176,-0.21099854,0.02923584
1601137913984,2125,-0.9782715,-0.14239502,-0.04083252
1601137913984,2126,-1.0175781,-0.32452393,-0.07672119
1601137913984,2127,-1.0488281,-0.61676025,-0.21221924
1601137913984,2128,-1.0175781,-0.32452393,-0.07672119
1601137913984,2129,-1.0488281,-0.61676025,-0.21221924
1601137913984,2130,-0.9658203,-0.41046143,-0.20098877
1601137913992,2131,-0.9658203,-0.41046143,-0.20098877
1601137913992,2132,-0.9782715,-0.14239502,-0.04083252
1601137913992,2133,-1.2512207,-0.63653564,0.012878418
1601137913992,2134,-1.0175781,-0.32452393,-0.07672119
1601137913992,2135,-0.9406738,-0.32476807,-0.14459229
1601137913992,2136,-0.9406738,-0.32476807,-0.14459229
1601137913992,2137,-0.9782715,-0.14239502,-0.04083252
1601137913992,2138,-0.9658203,-0.41046143,-0.20098877
1601137913993,2139,-1.0488281,-0.61676025,-0.21221924
1601137913993,2140,-0.9406738,-0.32476807,-0.14459229
1601137913993,2141,-1.2512207,-0.63653564,0.012878418
1601137913993,2142,-0.9658203,-0.41046143,-0.20098877
1601137913993,2143,-1.0422363,-0.22271729,0.022155762
1601137913993,2144,-1.2512207,-0.63653564,0.012878418
1601137913993,2145,-1.0488281,-0.61676025,-0.21221924
1601137913993,2146,-1.2512207,-0.63653564,0.012878418
1601137913993,2147,-1.2563477,-0.22564697,0.039978027
1601137913993,2148,-0.9782715,-0.14239502,-0.04083252
1601137914005,2149,-1.2563477,-0.22564697,0.039978027
1601137914006,2150,-0.9406738,-0.32476807,-0.14459229
1601137914006,2151,-1.2563477,-0.22564697,0.039978027
1601137914006,2152,-0.9658203,-0.41046143,-0.20098877
1601137914006,2153,-0.9782715,-0.14239502,-0.04083252
1601137914006,2154,-1.0175781,-0.32452393,-0.07672119
1601137914006,2155,-1.2563477,-0.22564697,0.039978027
1601137914006,2156,-0.84765625,0.10662842,0.14520264
1601137914006,2157,-1.2512207,-0.63653564,0.012878418
1601137914006,2158,-0.9782715,-0.14239502,-0.04083252
1601137914006,2159,-1.0488281,-0.61676025,-0.21221924
1601137914006,2160,-1.2563477,-0.22564697,0.039978027
1601137914006,2161,-0.9782715,-0.14239502,-0.04083252
1601137914006,2162,-0.9658203,-0.41046143,-0.20098877
1601137914007,2163,-0.9406738,-0.32476807,-0.14459229
1601137914007,2164,-0.84765625,0.10662842,0.14520264
1601137914007,2165,-0.9658203,-0.41046143,-0.20098877
1601137914007,2166,-0.84765625,0.10662842,0.14520264
1601137914007,2167,-1.2512207,-0.63653564,0.012878418
1601137914007,2168,-0.84765625,0.10662842,0.14520264
1601137914007,2169,-0.9406738,-0.32476807,-0.14459229
1601137914007,2170,-0.84765625,0.10662842,0.14520264
1601137914007,2171,-0.9658203,-0.41046143,-0.20098877
1601137914007,2172,-0.9111328,-0.03692627,0.0065307617
1601137914007,2173,-0.9111328,-0.03692627,0.0065307617
1601137914007,2174,-0.9406738,-0.32476807,-0.14459229
1601137914008,2175,-1.0285645,-0.10064697,0.16229248
1601137914010,2176,-0.9111328,-0.03692627,0.0065307617
1601137914010,2177,-1.2563477,-0.22564697,0.039978027
1601137914011,2178,-1.0285645,-0.10064697,0.16229248
1601137914027,2179,-0.84765625,0.10662842,0.14520264
1601137914027,2180,-1.0285645,-0.10064697,0.16229248
1601137914027,2181,-0.9406738,-0.32476807,-0.14459229
1601137914028,2182,-0.8864746,0.021911621,0.14935303
1601137914028,2183,-0.8864746,0.021911621,0.14935303
1601137914028,2184,-0.9111328,-0.03692627,0.0065307617
1601137914028,2185,-0.94189453,-0.04815674,0.032165527
1601137914028,2186,-1.2512207,-0.63653564,0.012878418
1601137914028,2187,-0.8864746,0.021911621,0.14935303
1601137914028,2188,-1.2512207,-0.63653564,0.012878418
1601137914030,2189,-0.94189453,-0.04815674,0.032165527
1601137914030,2190,-0.9111328,-0.03692627,0.0065307617
1601137914030,2191,-0.9873047,-0.18414307,0.10076904
1601137914030,2192,-0.9658203,-0.41046143,-0.20098877
1601137914030,2193,-0.94189453,-0.04815674,0.032165527
1601137914031,2194,-0.9873047,-0.18414307,0.10076904
1601137914031,2195,-0.9111328,-0.03692627,0.0065307617
1601137914031,2196,-1.0285645,-0.10064697,0.16229248
1601137914031,2197,-1.0285645,-0.10064697,0.16229248
1601137914031,2198,-1.2512207,-0.63653564,0.012878418
1601137914032,2199,-1.2563477,-0.22564697,0.039978027
1601137914032,2200,-1.2563477,-0.22564697,0.039978027
1601137914032,2201,-1.2563477,-0.22564697,0.039978027
1601137914032,2202,-0.9873047,-0.18414307,0.10076904
1601137914032,2203,-0.8864746,0.021911621,0.14935303
1601137914032,2204,-0.84765625,0.10662842,0.14520264
1601137914032,2205,-0.8864746,0.021911621,0.14935303
1601137914032,2206,-0.9658203,-0.41046143,-0.20098877
1601137914032,2207,-0.84765625,0.10662842,0.14520264
1601137914032,2208,-1.2512207,-0.63653564,0.012878418
1601137914032,2209,-0.84765625,0.10662842,0.14520264
1601137914032,2210,-0.9111328,-0.03692627,0.0065307617
1601137914037,2211,-1.0285645,-0.10064697,0.16229248
1601137914037,2212,-0.94189453,-0.04815674,0.032165527
1601137914037,2213,-0.94189453,-0.04815674,0.032165527
1601137914037,2214,-1.2563477,-0.22564697,0.039978027
1601137914037,2215,-0.9111328,-0.03692627,0.0065307617
1601137914037,2216,-0.9873047,-0.18414307,0.10076904
1601137914037,2217,-1.0285645,-0.10064697,0.16229248
1601137914037,2218,-0.8864746,0.021911621,0.14935303
1601137914037,2219,-0.9111328,-0.03692627,0.0065307617
1601137914038,2220,-0.9873047,-0.18414307,0.10076904
1601137914038,2221,-0.84765625,0.10662842,0.14520264
1601137914038,2222,-0.8864746,0.021911621,0.14935303
1601137914038,2223,-1.0285645,-0.10064697,0.16229248
1601137914038,2224,-0.94189453,-0.04815674,0.032165527
1601137914040,2225,-1.0285645,-0.10064697,0.16229248
1601137914041,2226,-0.9873047,-0.18414307,0.10076904
1601137914044,2227,-0.94189453,-0.04815674,0.032165527
1601137914044,2228,-0.9111328,-0.03692627,0.0065307617
1601137914044,2229,-0.8864746,0.021911621,0.14935303
1601137914044,2230,-0.9873047,-0.18414307,0.10076904
1601137914044,2231,-1.0285645,-0.10064697,0.16229248
1601137914046,2232,-0.8864746,0.021911621,0.14935303
1601137914046,2233,-0.8864746,0.021911621,0.14935303
1601137914046,2234,-0.94189453,-0.04815674,0.032165527
1601137914047,2235,-0.9873047,-0.18414307,0.10076904
1601137914049,2236,-0.94189453,-0.04815674,0.032165527
1601137914050,2237,-0.94189453,-0.04815674,0.032165527
1601137914052,2238,-0.9873047,-0.18414307,0.10076904
1601137914052,2239,-0.9873047,-0.18414307,0.10076904
1601137916402,2240,-0.9953613,-0.17779541,0.10614014
1601137916405,2241,-0.9953613,-0.17779541,0.10614014
1601137916406,2242,-1.0229492,-0.1843872,0.1251831
1601137916407,2243,-0.9953613,-0.17779541,0.10614014
1601137916407,2244,-0.9953613,-0.17779541,0.10614014
1601137916407,2245,-0.9953613,-0.17779541,0.10614014
1601137916407,2246,-1.0229492,-0.1843872,0.1251831
1601137916411,2247,-0.9953613,-0.17779541,0.10614014
1601137916411,2248,-1.0229492,-0.1843872,0.1251831
1601137916411,2249,-0.9953613,-0.17779541,0.10614014
1601137916411,2250,-0.9953613,-0.17779541,0.10614014
1601137916412,2251,-0.9953613,-0.17779541,0.10614014
1601137916412,2252,-1.0229492,-0.1843872,0.1251831
1601137916412,2253,-1.0229492,-0.1843872,0.1251831
1601137916412,2254,-1.0827637,-0.23345947,0.18988037
1601137916412,2255,-1.0827637,-0.23345947,0.18988037
