# Sensor position: Wrist
# Sensor side: Right
# Activity type: Climbing stairs
# Activity code: 12
# Subject id: s1709221
timestamp,seq,accel_x,accel_y,accel_z
1601474409490,0,-1.2780762,0.045837402,-0.3430786
1601474409490,1,-1.2780762,0.045837402,-0.3430786
1601474409491,2,-1.2780762,0.045837402,-0.3430786
1601474409492,3,-0.857666,-0.024475098,-0.2300415
1601474409493,4,-0.60009766,-0.20733643,-0.18609619
1601474409494,5,-0.5786133,-0.15997314,-0.17120361
1601474409494,6,-0.857666,-0.024475098,-0.2300415
1601474409495,7,-0.60009766,-0.20733643,-0.18609619
1601474409497,8,-0.857666,-0.024475098,-0.2300415
1601474409499,9,-0.5786133,-0.15997314,-0.17120361
1601474409499,10,-0.75439453,-0.11138916,-0.13287354
1601474409499,11,-0.60009766,-0.20733643,-0.18609619
1601474409502,12,-0.75439453,-0.11138916,-0.13287354
1601474409502,13,-0.5786133,-0.15997314,-0.17120361
1601474409502,14,-1.2431641,-0.13531494,-0.12823486
1601474409502,15,-1.2431641,-0.13531494,-0.12823486
1601474409503,16,-0.75439453,-0.11138916,-0.13287354
1601474409504,17,-1.6037598,-0.051330566,-0.15826416
1601474409505,18,-1.6037598,-0.051330566,-0.15826416
1601474409505,19,-1.2431641,-0.13531494,-0.12823486
1601474409505,20,-1.345459,-0.09259033,-0.039123535
1601474409505,21,-1.6037598,-0.051330566,-0.15826416
1601474409506,22,-1.345459,-0.09259033,-0.039123535
1601474409507,23,-1.0446777,0.06072998,-0.07965088
1601474409507,24,-1.345459,-0.09259033,-0.039123535
1601474409510,25,-1.0446777,0.06072998,-0.07965088
1601474409510,26,-0.782959,-0.23809814,0.02557373
1601474409510,27,-1.0446777,0.06072998,-0.07965088
1601474409510,28,-0.782959,-0.23809814,0.02557373
1601474409512,29,-0.8076172,-0.19390869,-0.012023926
1601474409513,30,-0.8076172,-0.19390869,-0.012023926
1601474409513,31,-0.9482422,-0.09088135,-0.014221191
1601474409515,32,-0.9482422,-0.09088135,-0.014221191
1601474409515,33,-0.782959,-0.23809814,0.02557373
1601474409515,34,-1.0380859,-0.07305908,0.015563965
1601474409515,35,-1.0380859,-0.07305908,0.015563965
1601474409515,36,-0.8076172,-0.19390869,-0.012023926
1601474409515,37,-1.2797852,0.049987793,-0.08746338
1601474409516,38,-0.9482422,-0.09088135,-0.014221191
1601474409516,39,-1.2797852,0.049987793,-0.08746338
1601474409516,40,-1.0380859,-0.07305908,0.015563965
1601474409517,41,-1.2797852,0.049987793,-0.08746338
1601474409518,42,-1.458252,-0.0803833,-0.16729736
1601474409519,43,-1.1237793,-0.17559814,-0.255188
1601474409519,44,-1.458252,-0.0803833,-0.16729736
1601474409520,45,-0.8547363,-0.09625244,-0.2300415
1601474409520,46,-1.458252,-0.0803833,-0.16729736
1601474409521,47,-1.1237793,-0.17559814,-0.255188
1601474409522,48,-0.69433594,-0.20684814,-0.11651611
1601474409522,49,-1.1237793,-0.17559814,-0.255188
1601474409523,50,-0.8547363,-0.09625244,-0.2300415
1601474409523,51,-0.7451172,-0.16241455,-0.1338501
1601474409523,52,-0.8547363,-0.09625244,-0.2300415
1601474409524,53,-0.69433594,-0.20684814,-0.11651611
1601474409528,54,-0.7451172,-0.16241455,-0.1338501
1601474409528,55,-0.69433594,-0.20684814,-0.11651611
1601474409531,56,-0.86865234,-0.097229004,-0.10479736
1601474409531,57,-0.86865234,-0.097229004,-0.10479736
1601474409531,58,-0.7451172,-0.16241455,-0.1338501
1601474409531,59,-1.0483398,-0.11236572,-0.10699463
1601474409531,60,-1.0483398,-0.11236572,-0.10699463
1601474409531,61,-1.3381348,-0.11090088,-0.11798096
1601474409531,62,-1.3381348,-0.11090088,-0.11798096
1601474409534,63,-0.86865234,-0.097229004,-0.10479736
1601474409534,64,-1.4057617,-0.10870361,-0.12286377
1601474409534,65,-1.0483398,-0.11236572,-0.10699463
1601474409534,66,-1.3381348,-0.11090088,-0.11798096
1601474409535,67,-1.1328125,-0.121398926,-0.10845947
1601474409535,68,-1.4057617,-0.10870361,-0.12286377
1601474409535,69,-1.4057617,-0.10870361,-0.12286377
1601474409535,70,-1.1328125,-0.121398926,-0.10845947
1601474409537,71,-0.98291016,-0.024230957,-0.12310791
1601474409538,72,-1.1328125,-0.121398926,-0.10845947
1601474409538,73,-0.78515625,-0.16241455,-0.07086182
1601474409539,74,-0.77246094,-0.12384033,-0.06842041
1601474409539,75,-0.98291016,-0.024230957,-0.12310791
1601474409539,76,-0.80493164,-0.06427002,-0.03253174
1601474409539,77,-0.98291016,-0.024230957,-0.12310791
1601474409539,78,-0.78515625,-0.16241455,-0.07086182
1601474409539,79,-0.77246094,-0.12384033,-0.06842041
1601474409540,80,-0.78515625,-0.16241455,-0.07086182
1601474409541,81,-0.80493164,-0.06427002,-0.03253174
1601474409541,82,-0.84936523,-0.044006348,0.06878662
1601474409541,83,-0.77246094,-0.12384033,-0.06842041
1601474409542,84,-1.175293,-0.18829346,-0.0010375977
1601474409542,85,-0.84936523,-0.044006348,0.06878662
1601474409542,86,-1.4987793,-0.25616455,-0.18878174
1601474409543,87,-0.80493164,-0.06427002,-0.03253174
1601474409544,88,-0.84936523,-0.044006348,0.06878662
1601474409544,89,-1.175293,-0.18829346,-0.0010375977
1601474409547,90,-1.1501465,-0.34429932,-0.116760254
1601474409547,91,-1.4987793,-0.25616455,-0.18878174
1601474409547,92,-1.175293,-0.18829346,-0.0010375977
1601474409547,93,-1.1501465,-0.34429932,-0.116760254
1601474409549,94,-1.4987793,-0.25616455,-0.18878174
1601474409549,95,-1.1501465,-0.34429932,-0.116760254
1601474412222,96,-1.1245117,-0.13165283,-0.23297119
1601474412223,97,-1.1245117,-0.13165283,-0.23297119
1601474412225,98,-0.8762207,-0.09893799,-0.21466064
1601474412227,99,-1.1245117,-0.13165283,-0.23297119
1601474412229,100,-0.8762207,-0.09893799,-0.21466064
1601474412232,101,-0.7927246,-0.21099854,-0.2078247
1601474412232,102,-0.7927246,-0.21099854,-0.2078247
1601474412233,103,-0.8762207,-0.09893799,-0.21466064
1601474412234,104,-0.7475586,-0.28741455,-0.20367432
1601474412234,105,-0.7475586,-0.28741455,-0.20367432
1601474412234,106,-0.8208008,-0.3135376,-0.16070557
1601474412238,107,-0.8208008,-0.3135376,-0.16070557
1601474412239,108,-0.7927246,-0.21099854,-0.2078247
1601474412239,109,-1.1181641,-0.2966919,-0.1765747
1601474412239,110,-0.7475586,-0.28741455,-0.20367432
1601474412244,111,-1.1181641,-0.2966919,-0.1765747
1601474412244,112,-0.8208008,-0.3135376,-0.16070557
1601474412244,113,-1.387207,-0.19390869,-0.2156372
1601474412244,114,-1.1181641,-0.2966919,-0.1765747
1601474412244,115,-1.387207,-0.19390869,-0.2156372
1601474412245,116,-1.387207,-0.19390869,-0.2156372
1601474412247,117,-1.4855957,-0.11407471,-0.23980713
1601474412248,118,-1.4855957,-0.11407471,-0.23980713
1601474412248,119,-1.4855957,-0.11407471,-0.23980713
1601474412248,120,-1.0917969,0.03338623,-0.18707275
1601474412248,121,-1.0917969,0.03338623,-0.18707275
1601474412249,122,-1.0917969,0.03338623,-0.18707275
1601474412251,123,-0.91137695,-0.10845947,-0.15362549
1601474412251,124,-0.91137695,-0.10845947,-0.15362549
1601474412252,125,-0.91137695,-0.10845947,-0.15362549
1601474412252,126,-0.8066406,-0.255188,-0.002746582
1601474412253,127,-0.8066406,-0.255188,-0.002746582
1601474412254,128,-0.6970215,-0.3381958,0.09588623
1601474412256,129,-0.5571289,-0.30181885,0.13226318
1601474412256,130,-0.6970215,-0.3381958,0.09588623
1601474412256,131,-0.8066406,-0.255188,-0.002746582
1601474412257,132,-0.7956543,-0.1585083,0.08050537
1601474412258,133,-0.6970215,-0.3381958,0.09588623
1601474412261,134,-1.0373535,-0.17510986,0.055358887
1601474412263,135,-0.5571289,-0.30181885,0.13226318
1601474412264,136,-0.5571289,-0.30181885,0.13226318
1601474412266,137,-1.3364258,-0.15020752,-0.032287598
1601474412267,138,-0.7956543,-0.1585083,0.08050537
1601474412270,139,-0.7956543,-0.1585083,0.08050537
1601474412270,140,-1.4897461,0.014587402,-0.15802002
1601474412270,141,-1.0373535,-0.17510986,0.055358887
1601474412271,142,-1.3149414,-0.25909424,-0.14727783
1601474412271,143,-1.0373535,-0.17510986,0.055358887
1601474412272,144,-1.3364258,-0.15020752,-0.032287598
1601474412274,145,-1.3364258,-0.15020752,-0.032287598
1601474412276,146,-1.4897461,0.014587402,-0.15802002
1601474412276,147,-1.1945801,-0.07696533,-0.19464111
1601474412276,148,-1.3149414,-0.25909424,-0.14727783
1601474412278,149,-0.7919922,-0.057678223,-0.17242432
1601474412278,150,-1.4897461,0.014587402,-0.15802002
1601474412278,151,-1.1945801,-0.07696533,-0.19464111
1601474412279,152,-0.7919922,-0.057678223,-0.17242432
1601474412282,153,-1.3149414,-0.25909424,-0.14727783
1601474412282,154,-0.5991211,-0.25152588,-0.16900635
1601474412284,155,-1.1945801,-0.07696533,-0.19464111
1601474412284,156,-0.623291,-0.175354,-0.17315674
1601474412285,157,-0.5991211,-0.25152588,-0.16900635
1601474412288,158,-0.94628906,-0.09307861,-0.19293213
1601474412288,159,-0.7919922,-0.057678223,-0.17242432
1601474412288,160,-0.623291,-0.175354,-0.17315674
1601474412290,161,-1.2546387,-0.11480713,-0.190979
1601474412290,162,-0.5991211,-0.25152588,-0.16900635
1601474412293,163,-0.94628906,-0.09307861,-0.19293213
1601474412293,164,-1.3994141,0.011657715,-0.1687622
1601474412294,165,-1.2546387,-0.11480713,-0.190979
1601474412294,166,-0.623291,-0.175354,-0.17315674
1601474412294,167,-1.3994141,0.011657715,-0.1687622
1601474412294,168,-1.1481934,-0.17218018,-0.014953613
1601474412299,169,-1.1481934,-0.17218018,-0.014953613
1601474412300,170,-1.0603027,-0.06890869,-0.014953613
1601474412300,171,-0.94628906,-0.09307861,-0.19293213
1601474412304,172,-1.2546387,-0.11480713,-0.190979
1601474412305,173,-1.0603027,-0.06890869,-0.014953613
1601474412305,174,-0.6328125,-0.20635986,0.026062012
1601474412307,175,-1.3994141,0.011657715,-0.1687622
1601474412308,176,-0.66625977,-0.237854,-0.020812988
1601474412308,177,-0.6328125,-0.20635986,0.026062012
1601474412310,178,-1.1481934,-0.17218018,-0.014953613
1601474412311,179,-0.87280273,-0.11505127,-0.024963379
1601474412314,180,-1.0603027,-0.06890869,-0.014953613
1601474412314,181,-0.66625977,-0.237854,-0.020812988
1601474412316,182,-1.1604004,-0.116760254,-0.14361572
1601474412316,183,-0.6328125,-0.20635986,0.026062012
1601474412316,184,-0.87280273,-0.11505127,-0.024963379
1601474412318,185,-1.1604004,-0.116760254,-0.14361572
1601474412318,186,-0.66625977,-0.237854,-0.020812988
1601474412321,187,-1.3730469,0.12908936,-0.10797119
1601474412321,188,-1.3730469,0.12908936,-0.10797119
1601474412323,189,-0.87280273,-0.11505127,-0.024963379
1601474412328,190,-1.1604004,-0.116760254,-0.14361572
1601474412332,191,-1.3730469,0.12908936,-0.10797119
1601474414756,192,-1.3901367,-0.16290283,-0.09210205
1601474414756,193,-1.3901367,-0.16290283,-0.09210205
1601474414757,194,-1.3901367,-0.16290283,-0.09210205
1601474414757,195,-1.1037598,-0.14654541,-0.1428833
1601474414760,196,-1.1037598,-0.14654541,-0.1428833
1601474414760,197,-0.921875,-0.08770752,-0.13092041
1601474414760,198,-1.1037598,-0.14654541,-0.1428833
1601474414760,199,-0.921875,-0.08770752,-0.13092041
1601474414760,200,-0.73999023,-0.14483643,-0.13018799
1601474414764,201,-0.921875,-0.08770752,-0.13092041
1601474414766,202,-0.73999023,-0.14483643,-0.13018799
1601474414766,203,-0.73999023,-0.14483643,-0.13018799
1601474414770,204,-0.7121582,-0.14703369,-0.13092041
1601474414771,205,-0.7121582,-0.14703369,-0.13092041
1601474414771,206,-0.7121582,-0.14703369,-0.13092041
1601474414771,207,-0.7661133,-0.105529785,-0.1194458
1601474414771,208,-0.7661133,-0.105529785,-0.1194458
1601474414771,209,-1.0161133,-0.09234619,-0.10797119
1601474414771,210,-0.7661133,-0.105529785,-0.1194458
1601474414771,211,-1.4208984,-0.051818848,-0.10357666
1601474414771,212,-1.0161133,-0.09234619,-0.10797119
1601474414772,213,-1.4782715,-0.04107666,-0.12628174
1601474414773,214,-1.0161133,-0.09234619,-0.10797119
1601474414774,215,-1.2543945,-0.11578369,-0.036193848
1601474414774,216,-0.9655762,0.073913574,-0.049621582
1601474414774,217,-1.4208984,-0.051818848,-0.10357666
1601474414774,218,-0.6345215,-0.26031494,0.0016479492
1601474414775,219,-1.4208984,-0.051818848,-0.10357666
1601474414775,220,-1.4782715,-0.04107666,-0.12628174
1601474414776,221,-0.6203613,-0.13311768,-0.0256958
1601474414779,222,-1.4782715,-0.04107666,-0.12628174
1601474414779,223,-1.2543945,-0.11578369,-0.036193848
1601474414779,224,-1.2543945,-0.11578369,-0.036193848
1601474414779,225,-0.9655762,0.073913574,-0.049621582
1601474414780,226,-0.8144531,-0.023986816,-0.055236816
1601474414780,227,-0.6345215,-0.26031494,0.0016479492
1601474414780,228,-0.9279785,-0.11920166,-0.023254395
1601474414780,229,-0.9655762,0.073913574,-0.049621582
1601474414780,230,-0.6203613,-0.13311768,-0.0256958
1601474414781,231,-1.1757812,-0.06329346,0.0289917
1601474414783,232,-0.8144531,-0.023986816,-0.055236816
1601474414783,233,-1.5581055,0.10076904,-0.10845947
1601474414783,234,-0.9279785,-0.11920166,-0.023254395
1601474414787,235,-0.6345215,-0.26031494,0.0016479492
1601474414787,236,-1.1757812,-0.06329346,0.0289917
1601474414787,237,-1.4104004,-0.15875244,-0.105041504
1601474414787,238,-0.6203613,-0.13311768,-0.0256958
1601474414787,239,-1.1477051,-0.10308838,-0.21051025
1601474414787,240,-1.5581055,0.10076904,-0.10845947
1601474414787,241,-0.9033203,-0.031066895,-0.16680908
1601474414792,242,-0.8144531,-0.023986816,-0.055236816
1601474414792,243,-1.4104004,-0.15875244,-0.105041504
1601474414792,244,-0.7507324,-0.12286377,-0.21124268
1601474414792,245,-0.9279785,-0.11920166,-0.023254395
1601474414792,246,-1.1477051,-0.10308838,-0.21051025
1601474414792,247,-0.61450195,-0.1741333,-0.18145752
1601474414792,248,-1.1757812,-0.06329346,0.0289917
1601474414794,249,-0.70166016,-0.11065674,-0.15777588
1601474414795,250,-1.5581055,0.10076904,-0.10845947
1601474414796,251,-0.9033203,-0.031066895,-0.16680908
1601474414796,252,-1.4104004,-0.15875244,-0.105041504
1601474414797,253,-0.93408203,-0.15777588,-0.09698486
1601474414799,254,-0.7507324,-0.12286377,-0.21124268
1601474414800,255,-1.1477051,-0.10308838,-0.21051025
1601474414800,256,-1.2297363,-0.12408447,-0.070129395
1601474414800,257,-0.9033203,-0.031066895,-0.16680908
1601474414801,258,-0.61450195,-0.1741333,-0.18145752
1601474414802,259,-0.7507324,-0.12286377,-0.21124268
1601474414803,260,-1.5192871,-0.030090332,-0.128479
1601474414806,261,-0.70166016,-0.11065674,-0.15777588
1601474414806,262,-0.61450195,-0.1741333,-0.18145752
1601474414806,263,-0.93408203,-0.15777588,-0.09698486
1601474414807,264,-1.3505859,-0.03692627,-0.12750244
1601474414809,265,-1.2297363,-0.12408447,-0.070129395
1601474414809,266,-0.70166016,-0.11065674,-0.15777588
1601474414812,267,-1.0991211,0.2489624,-0.2654419
1601474414812,268,-0.93408203,-0.15777588,-0.09698486
1601474414812,269,-0.9929199,0.13641357,-0.2234497
1601474414812,270,-1.2297363,-0.12408447,-0.070129395
1601474414812,271,-1.5192871,-0.030090332,-0.128479
1601474414815,272,-0.7595215,0.018981934,-0.09112549
1601474414815,273,-1.3505859,-0.03692627,-0.12750244
1601474414815,274,-1.0991211,0.2489624,-0.2654419
1601474414815,275,-1.5192871,-0.030090332,-0.128479
1601474414817,276,-0.9929199,0.13641357,-0.2234497
1601474414817,277,-0.6022949,-0.04058838,-0.042297363
1601474414818,278,-0.7595215,0.018981934,-0.09112549
1601474414818,279,-1.3505859,-0.03692627,-0.12750244
1601474414819,280,-0.6660156,-0.12042236,-0.0012817383
1601474414820,281,-1.0991211,0.2489624,-0.2654419
1601474414821,282,-0.9929199,0.13641357,-0.2234497
1601474414821,283,-0.7595215,0.018981934,-0.09112549
1601474414829,284,-0.6022949,-0.04058838,-0.042297363
1601474414830,285,-0.6660156,-0.12042236,-0.0012817383
1601474414831,286,-0.6022949,-0.04058838,-0.042297363
1601474414831,287,-0.6660156,-0.12042236,-0.0012817383
1601474417298,288,-0.80908203,-0.1026001,0.054870605
1601474417299,289,-0.80908203,-0.1026001,0.054870605
1601474417302,290,-1.0961914,-0.11138916,0.035095215
1601474417303,291,-0.80908203,-0.1026001,0.054870605
1601474417305,292,-1.0961914,-0.11138916,0.035095215
1601474417305,293,-1.3198242,-0.07086182,-0.028869629
1601474417305,294,-1.3198242,-0.07086182,-0.028869629
1601474417305,295,-1.3452148,-0.14068604,-0.070617676
1601474417309,296,-1.0961914,-0.11138916,0.035095215
1601474417309,297,-1.3452148,-0.14068604,-0.070617676
1601474417310,298,-1.4001465,-0.1716919,-0.12774658
1601474417310,299,-1.3198242,-0.07086182,-0.028869629
1601474417311,300,-1.0979004,0.22406006,-0.20977783
1601474417311,301,-1.3452148,-0.14068604,-0.070617676
1601474417316,302,-0.85791016,0.05633545,-0.2029419
1601474417316,303,-1.4001465,-0.1716919,-0.12774658
1601474417316,304,-0.6669922,-0.06964111,-0.144104
1601474417320,305,-1.4001465,-0.1716919,-0.12774658
1601474417325,306,-0.6911621,-0.10479736,-0.10015869
1601474417325,307,-1.0979004,0.22406006,-0.20977783
1601474417325,308,-1.0979004,0.22406006,-0.20977783
1601474417325,309,-0.857666,-0.121398926,-0.07891846
1601474417325,310,-0.85791016,0.05633545,-0.2029419
1601474417327,311,-0.6669922,-0.06964111,-0.144104
1601474417328,312,-0.6911621,-0.10479736,-0.10015869
1601474417331,313,-0.857666,-0.121398926,-0.07891846
1601474417331,314,-1.1689453,-0.12896729,-0.05987549
1601474417332,315,-1.4033203,-0.06964111,-0.08795166
1601474417339,316,-0.85791016,0.05633545,-0.2029419
1601474417339,317,-1.1689453,-0.12896729,-0.05987549
1601474417340,318,-1.4611816,-0.0960083,-0.11236572
1601474417342,319,-0.6669922,-0.06964111,-0.144104
1601474417343,320,-0.6911621,-0.10479736,-0.10015869
1601474417343,321,-1.4033203,-0.06964111,-0.08795166
1601474417344,322,-1.1032715,-0.20391846,-0.020812988
1601474417346,323,-0.80249023,-0.040100098,-0.022766113
1601474417347,324,-1.4611816,-0.0960083,-0.11236572
1601474417348,325,-0.857666,-0.121398926,-0.07891846
1601474417350,326,-0.5864258,-0.16217041,0.011169434
1601474417350,327,-1.1032715,-0.20391846,-0.020812988
1601474417351,328,-1.1689453,-0.12896729,-0.05987549
1601474417352,329,-0.748291,-0.13653564,-0.018371582
1601474417352,330,-0.80249023,-0.040100098,-0.022766113
1601474417355,331,-1.4033203,-0.06964111,-0.08795166
1601474417356,332,-1.4611816,-0.0960083,-0.11236572
1601474417357,333,-0.5864258,-0.16217041,0.011169434
1601474417357,334,-1.1032715,-0.20391846,-0.020812988
1601474417358,335,-0.9484863,-0.1519165,-0.023498535
1601474417362,336,-0.80249023,-0.040100098,-0.022766113
1601474417363,337,-0.748291,-0.13653564,-0.018371582
1601474417363,338,-0.5864258,-0.16217041,0.011169434
1601474417363,339,-0.9484863,-0.1519165,-0.023498535
1601474417363,340,-0.748291,-0.13653564,-0.018371582
1601474417363,341,-1.1538086,-0.04937744,-0.024475098
1601474417363,342,-0.9484863,-0.1519165,-0.023498535
1601474417363,343,-1.3596191,0.12249756,-0.04156494
1601474417365,344,-1.1538086,-0.04937744,-0.024475098
1601474417365,345,-1.1538086,-0.04937744,-0.024475098
1601474417365,346,-1.3596191,0.12249756,-0.04156494
1601474417366,347,-1.4665527,-0.16314697,-0.11065674
1601474417366,348,-1.1425781,-0.12188721,-0.17559814
1601474417366,349,-1.3596191,0.12249756,-0.04156494
1601474417366,350,-0.8769531,-0.09210205,-0.16900635
1601474417371,351,-1.4665527,-0.16314697,-0.11065674
1601474417371,352,-1.4665527,-0.16314697,-0.11065674
1601474417371,353,-0.65185547,-0.19659424,-0.13824463
1601474417372,354,-1.1425781,-0.12188721,-0.17559814
1601474417372,355,-0.67700195,-0.09185791,-0.12652588
1601474417372,356,-0.8769531,-0.09210205,-0.16900635
1601474417373,357,-0.8835449,-0.109191895,-0.1416626
1601474417373,358,-0.65185547,-0.19659424,-0.13824463
1601474417373,359,-1.0817871,-0.14581299,-0.14459229
1601474417373,360,-1.1425781,-0.12188721,-0.17559814
1601474417373,361,-0.67700195,-0.09185791,-0.12652588
1601474417373,362,-1.3774414,-0.1296997,-0.1026001
1601474417373,363,-0.8769531,-0.09210205,-0.16900635
1601474417373,364,-1.5334473,-0.08453369,-0.11505127
1601474417373,365,-0.8835449,-0.109191895,-0.1416626
1601474417373,366,-1.2023926,-0.031066895,-0.08868408
1601474417375,367,-0.65185547,-0.19659424,-0.13824463
1601474417375,368,-1.0817871,-0.14581299,-0.14459229
1601474417375,369,-0.67700195,-0.09185791,-0.12652588
1601474417375,370,-1.0603027,0.17547607,-0.1362915
1601474417376,371,-1.3774414,-0.1296997,-0.1026001
1601474417376,372,-0.77734375,-0.09161377,-0.06402588
1601474417377,373,-1.5334473,-0.08453369,-0.11505127
1601474417379,374,-0.8835449,-0.109191895,-0.1416626
1601474417380,375,-1.2023926,-0.031066895,-0.08868408
1601474417382,376,-1.0817871,-0.14581299,-0.14459229
1601474417382,377,-1.0603027,0.17547607,-0.1362915
1601474417382,378,-1.3774414,-0.1296997,-0.1026001
1601474417382,379,-1.5334473,-0.08453369,-0.11505127
1601474417382,380,-1.2023926,-0.031066895,-0.08868408
1601474417383,381,-1.0603027,0.17547607,-0.1362915
1601474417383,382,-0.77734375,-0.09161377,-0.06402588
1601474417384,383,-0.77734375,-0.09161377,-0.06402588
1601474419828,384,-0.49291992,-0.0725708,0.020935059
1601474419831,385,-0.49291992,-0.0725708,0.020935059
1601474419831,386,-0.49291992,-0.0725708,0.020935059
1601474419831,387,-0.5292969,-0.08868408,-0.006652832
1601474419831,388,-0.5292969,-0.08868408,-0.006652832
1601474419832,389,-0.5292969,-0.08868408,-0.006652832
1601474419832,390,-0.79833984,-0.08673096,0.007751465
1601474419835,391,-1.1682129,-0.062072754,0.026306152
1601474419835,392,-0.79833984,-0.08673096,0.007751465
1601474419836,393,-0.79833984,-0.08673096,0.007751465
1601474419837,394,-1.5678711,0.012145996,-0.08062744
1601474419838,395,-1.1682129,-0.062072754,0.026306152
1601474419842,396,-1.5087891,-0.105285645,-0.06939697
1601474419842,397,-1.1682129,-0.062072754,0.026306152
1601474419842,398,-1.5678711,0.012145996,-0.08062744
1601474419842,399,-1.2231445,0.004333496,-0.23638916
1601474419842,400,-1.5087891,-0.105285645,-0.06939697
1601474419842,401,-1.0249023,-0.074279785,-0.23687744
1601474419843,402,-1.5678711,0.012145996,-0.08062744
1601474419843,403,-1.2231445,0.004333496,-0.23638916
1601474419845,404,-1.0249023,-0.074279785,-0.23687744
1601474419846,405,-1.5087891,-0.105285645,-0.06939697
1601474419846,406,-0.7495117,-0.14727783,-0.20806885
1601474419849,407,-0.7495117,-0.14727783,-0.20806885
1601474419853,408,-0.55371094,-0.16412354,-0.13214111
1601474419853,409,-1.2231445,0.004333496,-0.23638916
1601474419857,410,-0.55371094,-0.16412354,-0.13214111
1601474419857,411,-0.6447754,-0.1885376,-0.07330322
1601474419858,412,-1.0249023,-0.074279785,-0.23687744
1601474419858,413,-0.6447754,-0.1885376,-0.07330322
1601474419858,414,-0.7495117,-0.14727783,-0.20806885
1601474419858,415,-0.9614258,-0.28399658,-0.07525635
1601474419858,416,-0.9614258,-0.28399658,-0.07525635
1601474419859,417,-0.55371094,-0.16412354,-0.13214111
1601474419861,418,-1.1574707,-0.24786377,0.0040893555
1601474419861,419,-1.1574707,-0.24786377,0.0040893555
1601474419865,420,-0.6447754,-0.1885376,-0.07330322
1601474419865,421,-1.3681641,-0.19390869,-0.020568848
1601474419866,422,-1.3681641,-0.19390869,-0.020568848
1601474419870,423,-1.2749023,-0.11065674,-0.15045166
1601474419870,424,-0.9614258,-0.28399658,-0.07525635
1601474419870,425,-1.2749023,-0.11065674,-0.15045166
1601474419872,426,-1.2321777,0.028503418,-0.2781372
1601474419873,427,-1.1574707,-0.24786377,0.0040893555
1601474419874,428,-1.2321777,0.028503418,-0.2781372
1601474419875,429,-0.98779297,-0.05279541,-0.10357666
1601474419875,430,-1.3681641,-0.19390869,-0.020568848
1601474419875,431,-0.98779297,-0.05279541,-0.10357666
1601474419876,432,-0.7260742,-0.08135986,0.023376465
1601474419877,433,-0.6430664,-0.062316895,0.066833496
1601474419877,434,-0.7404785,-0.11431885,0.0099487305
1601474419879,435,-1.2749023,-0.11065674,-0.15045166
1601474419879,436,-0.8354492,-0.2678833,0.09539795
1601474419879,437,-0.7260742,-0.08135986,0.023376465
1601474419881,438,-1.2321777,0.028503418,-0.2781372
1601474419881,439,-0.6430664,-0.062316895,0.066833496
1601474419882,440,-0.98779297,-0.05279541,-0.10357666
1601474419885,441,-0.7260742,-0.08135986,0.023376465
1601474419885,442,-0.7404785,-0.11431885,0.0099487305
1601474419886,443,-0.6430664,-0.062316895,0.066833496
1601474419886,444,-1.1420898,-0.22125244,0.20257568
1601474419889,445,-0.8354492,-0.2678833,0.09539795
1601474419889,446,-1.4016113,-0.09893799,0.062683105
1601474419889,447,-0.7404785,-0.11431885,0.0099487305
1601474419889,448,-1.3669434,-0.2859497,-0.046447754
1601474419890,449,-0.8354492,-0.2678833,0.09539795
1601474419890,450,-1.1420898,-0.22125244,0.20257568
1601474419893,451,-1.2265625,-0.11895752,-0.11968994
1601474419893,452,-1.1420898,-0.22125244,0.20257568
1601474419893,453,-1.4016113,-0.09893799,0.062683105
1601474419893,454,-1.0810547,0.070251465,-0.20465088
1601474419894,455,-1.4016113,-0.09893799,0.062683105
1601474419894,456,-0.8588867,-0.08746338,-0.14874268
1601474419901,457,-1.3669434,-0.2859497,-0.046447754
1601474419901,458,-1.3669434,-0.2859497,-0.046447754
1601474419901,459,-0.72021484,-0.089416504,-0.1038208
1601474419901,460,-1.2265625,-0.11895752,-0.11968994
1601474419902,461,-0.69311523,-0.09136963,-0.06842041
1601474419902,462,-1.2265625,-0.11895752,-0.11968994
1601474419902,463,-1.0810547,0.070251465,-0.20465088
1601474419902,464,-1.0810547,0.070251465,-0.20465088
1601474419902,465,-0.78027344,-0.17779541,-0.07183838
1601474419904,466,-0.8588867,-0.08746338,-0.14874268
1601474419904,467,-1.0334473,-0.1453247,-0.0725708
1601474419905,468,-0.8588867,-0.08746338,-0.14874268
1601474419906,469,-1.2814941,-0.109191895,-0.08648682
1601474419906,470,-0.72021484,-0.089416504,-0.1038208
1601474419907,471,-0.72021484,-0.089416504,-0.1038208
1601474419911,472,-0.69311523,-0.09136963,-0.06842041
1601474419911,473,-0.69311523,-0.09136963,-0.06842041
1601474419912,474,-0.78027344,-0.17779541,-0.07183838
1601474419912,475,-0.78027344,-0.17779541,-0.07183838
1601474419912,476,-1.0334473,-0.1453247,-0.0725708
1601474419912,477,-1.0334473,-0.1453247,-0.0725708
1601474419913,478,-1.2814941,-0.109191895,-0.08648682
1601474419913,479,-1.2814941,-0.109191895,-0.08648682
1601474422560,480,-1.3793945,-0.051330566,-0.13726807
1601474422560,481,-1.3793945,-0.051330566,-0.13726807
1601474422561,482,-1.3793945,-0.051330566,-0.13726807
1601474422564,483,-1.1501465,-0.14068604,-0.015197754
1601474422569,484,-1.1501465,-0.14068604,-0.015197754
1601474422569,485,-1.1501465,-0.14068604,-0.015197754
1601474422571,486,-0.9211426,0.09588623,-0.0068969727
1601474422571,487,-0.9211426,0.09588623,-0.0068969727
1601474422572,488,-0.6723633,-0.1687622,0.007019043
1601474422572,489,-0.9211426,0.09588623,-0.0068969727
1601474422572,490,-0.6723633,-0.1687622,0.007019043
1601474422572,491,-0.7512207,-0.078186035,-3.0517578E-4
1601474422576,492,-0.7512207,-0.078186035,-3.0517578E-4
1601474422576,493,-0.6723633,-0.1687622,0.007019043
1601474422576,494,-0.83496094,-0.06793213,0.0065307617
1601474422578,495,-0.83496094,-0.06793213,0.0065307617
1601474422578,496,-0.7512207,-0.078186035,-3.0517578E-4
1601474422586,497,-1.1396484,-0.13092041,-0.06744385
1601474422586,498,-0.83496094,-0.06793213,0.0065307617
1601474422586,499,-1.1396484,-0.13092041,-0.06744385
1601474422588,500,-1.3366699,0.058044434,-0.081604004
1601474422589,501,-1.4772949,-0.06768799,-0.08111572
1601474422589,502,-1.1396484,-0.13092041,-0.06744385
1601474422589,503,-1.1196289,-0.13458252,-0.09503174
1601474422589,504,-1.3366699,0.058044434,-0.081604004
1601474422589,505,-1.0063477,-0.023010254,-0.109436035
1601474422590,506,-1.4772949,-0.06768799,-0.08111572
1601474422590,507,-0.7780762,-0.07720947,-0.16925049
1601474422590,508,-0.654541,-0.20391846,-0.20489502
1601474422590,509,-1.1196289,-0.13458252,-0.09503174
1601474422590,510,-0.68847656,-0.10675049,-0.16436768
1601474422590,511,-1.0063477,-0.023010254,-0.109436035
1601474422590,512,-0.8859863,-0.16583252,-0.14312744
1601474422591,513,-1.1220703,-0.25909424,-0.10333252
1601474422592,514,-0.7780762,-0.07720947,-0.16925049
1601474422593,515,-1.3366699,0.058044434,-0.081604004
1601474422594,516,-0.654541,-0.20391846,-0.20489502
1601474422596,517,-1.3574219,-0.08648682,-0.046447754
1601474422598,518,-1.536377,0.024353027,-0.1428833
1601474422598,519,-0.68847656,-0.10675049,-0.16436768
1601474422598,520,-1.4772949,-0.06768799,-0.08111572
1601474422601,521,-1.1196289,-0.13458252,-0.09503174
1601474422601,522,-1.3493652,0.009216309,-0.3008423
1601474422601,523,-1.0063477,-0.023010254,-0.109436035
1601474422604,524,-0.9682617,0.22039795,-0.23175049
1601474422604,525,-0.7780762,-0.07720947,-0.16925049
1601474422604,526,-0.8859863,-0.16583252,-0.14312744
1601474422604,527,-0.654541,-0.20391846,-0.20489502
1601474422606,528,-0.68847656,-0.10675049,-0.16436768
1601474422606,529,-0.7727051,0.010681152,-0.046447754
1601474422607,530,-0.8859863,-0.16583252,-0.14312744
1601474422607,531,-1.1220703,-0.25909424,-0.10333252
1601474422607,532,-0.5539551,-0.04083252,0.030456543
1601474422607,533,-1.3574219,-0.08648682,-0.046447754
1601474422607,534,-0.5593262,0.0119018555,0.001159668
1601474422609,535,-1.536377,0.024353027,-0.1428833
1601474422609,536,-0.75341797,-0.13214111,-0.02178955
1601474422610,537,-1.0732422,-0.22906494,0.07366943
1601474422610,538,-1.3493652,0.009216309,-0.3008423
1601474422610,539,-1.1220703,-0.25909424,-0.10333252
1601474422611,540,-1.3496094,0.3300171,0.10662842
1601474422611,541,-1.3574219,-0.08648682,-0.046447754
1601474422611,542,-1.536377,0.024353027,-0.1428833
1601474422613,543,-1.3977051,0.09710693,0.10809326
1601474422614,544,-1.3493652,0.009216309,-0.3008423
1601474422616,545,-0.9682617,0.22039795,-0.23175049
1601474422616,546,-0.7727051,0.010681152,-0.046447754
1601474422616,547,-0.5539551,-0.04083252,0.030456543
1601474422618,548,-0.5593262,0.0119018555,0.001159668
1601474422619,549,-1.3227539,0.04901123,-0.08770752
1601474422620,550,-1.1049805,0.19793701,-0.23858643
1601474422620,551,-0.9682617,0.22039795,-0.23175049
1601474422622,552,-0.75341797,-0.13214111,-0.02178955
1601474422622,553,-0.9111328,0.02947998,-0.1843872
1601474422622,554,-0.7727051,0.010681152,-0.046447754
1601474422624,555,-1.0732422,-0.22906494,0.07366943
1601474422624,556,-0.5539551,-0.04083252,0.030456543
1601474422624,557,-0.82592773,-0.054260254,-0.19122314
1601474422626,558,-1.3496094,0.3300171,0.10662842
1601474422626,559,-1.3977051,0.09710693,0.10809326
1601474422628,560,-0.5593262,0.0119018555,0.001159668
1601474422628,561,-0.720459,-0.11187744,-0.13092041
1601474422628,562,-0.75341797,-0.13214111,-0.02178955
1601474422633,563,-1.0732422,-0.22906494,0.07366943
1601474422634,564,-1.3227539,0.04901123,-0.08770752
1601474422634,565,-1.3496094,0.3300171,0.10662842
1601474422634,566,-1.1049805,0.19793701,-0.23858643
1601474422634,567,-1.3977051,0.09710693,0.10809326
1601474422634,568,-1.3227539,0.04901123,-0.08770752
1601474422634,569,-0.9111328,0.02947998,-0.1843872
1601474422634,570,-1.1049805,0.19793701,-0.23858643
1601474422634,571,-0.82592773,-0.054260254,-0.19122314
1601474422634,572,-0.9111328,0.02947998,-0.1843872
1601474422634,573,-0.720459,-0.11187744,-0.13092041
1601474422634,574,-0.82592773,-0.054260254,-0.19122314
1601474422634,575,-0.720459,-0.11187744,-0.13092041
1601474425092,576,-0.6816406,-0.033996582,-0.05718994
1601474425095,577,-0.89282227,-0.055236816,-0.093322754
1601474425095,578,-0.6816406,-0.033996582,-0.05718994
1601474425098,579,-1.152832,-0.061340332,-0.13775635
1601474425098,580,-0.6816406,-0.033996582,-0.05718994
1601474425098,581,-0.89282227,-0.055236816,-0.093322754
1601474425098,582,-0.89282227,-0.055236816,-0.093322754
1601474425098,583,-1.4260254,0.018005371,-0.24298096
1601474425102,584,-1.152832,-0.061340332,-0.13775635
1601474425103,585,-1.3381348,-0.13848877,-0.11431885
1601474425103,586,-1.152832,-0.061340332,-0.13775635
1601474425104,587,-1.0078125,0.06732178,-0.08404541
1601474425104,588,-1.4260254,0.018005371,-0.24298096
1601474425105,589,-1.4260254,0.018005371,-0.24298096
1601474425106,590,-1.3381348,-0.13848877,-0.11431885
1601474425106,591,-0.6677246,-0.055480957,0.0016479492
1601474425110,592,-1.0078125,0.06732178,-0.08404541
1601474425111,593,-0.5998535,-0.035461426,-0.014953613
1601474425111,594,-1.3381348,-0.13848877,-0.11431885
1601474425111,595,-0.6677246,-0.055480957,0.0016479492
1601474425111,596,-0.84643555,-0.003479004,-0.08648682
1601474425111,597,-1.0078125,0.06732178,-0.08404541
1601474425111,598,-1.0009766,-0.14703369,-0.06890869
1601474425111,599,-0.6677246,-0.055480957,0.0016479492
1601474425111,600,-0.5998535,-0.035461426,-0.014953613
1601474425111,601,-0.5998535,-0.035461426,-0.014953613
1601474425113,602,-0.84643555,-0.003479004,-0.08648682
1601474425114,603,-1.1889648,-0.08648682,-0.022033691
1601474425114,604,-0.84643555,-0.003479004,-0.08648682
1601474425117,605,-1.0009766,-0.14703369,-0.06890869
1601474425117,606,-1.0009766,-0.14703369,-0.06890869
1601474425117,607,-1.5263672,0.1239624,-0.17803955
1601474425119,608,-1.1889648,-0.08648682,-0.022033691
1601474425120,609,-1.1889648,-0.08648682,-0.022033691
1601474425122,610,-1.359375,-0.16949463,-0.14752197
1601474425123,611,-1.5263672,0.1239624,-0.17803955
1601474425126,612,-1.5263672,0.1239624,-0.17803955
1601474425126,613,-1.0656738,-0.113342285,-0.20220947
1601474425128,614,-1.359375,-0.16949463,-0.14752197
1601474425128,615,-1.359375,-0.16949463,-0.14752197
1601474425129,616,-0.93530273,-0.06085205,-0.19342041
1601474425132,617,-1.0656738,-0.113342285,-0.20220947
1601474425133,618,-0.73828125,-0.10797119,-0.19146729
1601474425133,619,-1.0656738,-0.113342285,-0.20220947
1601474425133,620,-0.93530273,-0.06085205,-0.19342041
1601474425134,621,-0.6538086,-0.11651611,-0.19659424
1601474425135,622,-0.93530273,-0.06085205,-0.19342041
1601474425140,623,-0.73828125,-0.10797119,-0.19146729
1601474425140,624,-0.7409668,-0.15826416,-0.16802979
1601474425140,625,-0.73828125,-0.10797119,-0.19146729
1601474425140,626,-1.078125,-0.17242432,-0.1404419
1601474425140,627,-0.6538086,-0.11651611,-0.19659424
1601474425140,628,-1.4125977,-0.031066895,-0.16339111
1601474425140,629,-0.6538086,-0.11651611,-0.19659424
1601474425140,630,-0.7409668,-0.15826416,-0.16802979
1601474425144,631,-0.7409668,-0.15826416,-0.16802979
1601474425144,632,-1.479248,-0.046447754,-0.16558838
1601474425144,633,-1.078125,-0.17242432,-0.1404419
1601474425145,634,-1.078125,-0.17242432,-0.1404419
1601474425145,635,-1.2092285,-0.07183838,-0.09185791
1601474425145,636,-1.4125977,-0.031066895,-0.16339111
1601474425148,637,-1.4125977,-0.031066895,-0.16339111
1601474425149,638,-1.0441895,0.16668701,-0.16558838
1601474425149,639,-1.479248,-0.046447754,-0.16558838
1601474425151,640,-1.479248,-0.046447754,-0.16558838
1601474425152,641,-0.80126953,-0.073791504,-0.097961426
1601474425152,642,-1.2092285,-0.07183838,-0.09185791
1601474425156,643,-1.2092285,-0.07183838,-0.09185791
1601474425157,644,-0.58691406,-0.105041504,0.010192871
1601474425157,645,-1.0441895,0.16668701,-0.16558838
1601474425158,646,-0.62402344,-0.054504395,0.011169434
1601474425158,647,-1.0441895,0.16668701,-0.16558838
1601474425160,648,-0.80126953,-0.073791504,-0.097961426
1601474425160,649,-0.79125977,-0.06719971,-0.008605957
1601474425160,650,-0.80126953,-0.073791504,-0.097961426
1601474425162,651,-0.58691406,-0.105041504,0.010192871
1601474425163,652,-0.58691406,-0.105041504,0.010192871
1601474425166,653,-0.62402344,-0.054504395,0.011169434
1601474425166,654,-0.93115234,-0.159729,0.03265381
1601474425166,655,-0.62402344,-0.054504395,0.011169434
1601474425166,656,-1.1513672,-0.1104126,0.0289917
1601474425166,657,-1.4086914,0.039733887,-0.07647705
1601474425171,658,-0.79125977,-0.06719971,-0.008605957
1601474425172,659,-1.5791016,-0.07354736,-0.16827393
1601474425172,660,-0.79125977,-0.06719971,-0.008605957
1601474425172,661,-0.93115234,-0.159729,0.03265381
1601474425172,662,-1.1179199,0.20379639,-0.2468872
1601474425172,663,-0.93115234,-0.159729,0.03265381
1601474425175,664,-1.1513672,-0.1104126,0.0289917
1601474425175,665,-1.1513672,-0.1104126,0.0289917
1601474425175,666,-1.4086914,0.039733887,-0.07647705
1601474425175,667,-1.4086914,0.039733887,-0.07647705
1601474425175,668,-1.5791016,-0.07354736,-0.16827393
1601474425176,669,-1.5791016,-0.07354736,-0.16827393
1601474425177,670,-1.1179199,0.20379639,-0.2468872
1601474425177,671,-1.1179199,0.20379639,-0.2468872
1601474427635,672,-0.97094727,-0.027893066,-0.2144165
1601474427635,673,-0.97094727,-0.027893066,-0.2144165
1601474427635,674,-0.97094727,-0.027893066,-0.2144165
1601474427638,675,-0.7937012,0.055358887,-0.18023682
1601474427638,676,-0.7937012,0.055358887,-0.18023682
1601474427638,677,-0.7937012,0.055358887,-0.18023682
1601474427639,678,-0.68774414,-0.055725098,-0.10845947
1601474427640,679,-0.68774414,-0.055725098,-0.10845947
1601474427640,680,-0.68774414,-0.055725098,-0.10845947
1601474427643,681,-0.72875977,-0.062561035,-0.043029785
1601474427643,682,-0.72875977,-0.062561035,-0.043029785
1601474427643,683,-0.72875977,-0.062561035,-0.043029785
1601474427647,684,-0.9008789,-0.058166504,-0.07525635
1601474427647,685,-0.9008789,-0.058166504,-0.07525635
1601474427647,686,-1.1462402,-0.10308838,-0.093811035
1601474427647,687,-0.9008789,-0.058166504,-0.07525635
1601474427647,688,-1.1462402,-0.10308838,-0.093811035
1601474427647,689,-1.1462402,-0.10308838,-0.093811035
1601474427647,690,-1.3251953,-0.0713501,-0.11968994
1601474427648,691,-1.3251953,-0.0713501,-0.11968994
1601474427652,692,-1.3251953,-0.0713501,-0.11968994
1601474427652,693,-1.3500977,-0.06817627,-0.109191895
1601474427652,694,-1.3500977,-0.06817627,-0.109191895
1601474427658,695,-1.0524902,0.13446045,-0.120666504
1601474427659,696,-1.0524902,0.13446045,-0.120666504
1601474427659,697,-0.80444336,0.05657959,-0.11602783
1601474427659,698,-0.68188477,-0.19781494,-0.03643799
1601474427660,699,-0.80444336,0.05657959,-0.11602783
1601474427660,700,-0.80859375,-0.023986816,-0.01739502
1601474427660,701,-0.68188477,-0.19781494,-0.03643799
1601474427660,702,-0.9238281,-0.07940674,-0.008850098
1601474427660,703,-0.80859375,-0.023986816,-0.01739502
1601474427660,704,-1.0046387,-0.09967041,0.06854248
1601474427660,705,-0.9238281,-0.07940674,-0.008850098
1601474427660,706,-1.2924805,0.09442139,-0.020568848
1601474427660,707,-1.0046387,-0.09967041,0.06854248
1601474427660,708,-1.5722656,-0.024230957,-0.14434814
1601474427660,709,-1.2924805,0.09442139,-0.020568848
1601474427660,710,-1.2087402,-0.21270752,-0.16217041
1601474427660,711,-1.5722656,-0.024230957,-0.14434814
1601474427660,712,-1.1159668,-0.016418457,-0.19708252
1601474427661,713,-1.2087402,-0.21270752,-0.16217041
1601474427663,714,-1.3500977,-0.06817627,-0.109191895
1601474427663,715,-0.7458496,-0.11553955,-0.13238525
1601474427664,716,-1.1159668,-0.016418457,-0.19708252
1601474427664,717,-1.0524902,0.13446045,-0.120666504
1601474427666,718,-0.53686523,-0.23101807,-0.10430908
1601474427666,719,-0.80444336,0.05657959,-0.11602783
1601474427667,720,-0.6557617,-0.14019775,-0.10211182
1601474427667,721,-0.97875977,-0.17559814,-0.12652588
1601474427667,722,-0.68188477,-0.19781494,-0.03643799
1601474427667,723,-0.7458496,-0.11553955,-0.13238525
1601474427667,724,-1.2897949,-0.054260254,-0.12506104
1601474427668,725,-0.80859375,-0.023986816,-0.01739502
1601474427670,726,-0.53686523,-0.23101807,-0.10430908
1601474427670,727,-1.5095215,0.019226074,-0.101623535
1601474427670,728,-0.6557617,-0.14019775,-0.10211182
1601474427671,729,-0.97875977,-0.17559814,-0.12652588
1601474427672,730,-0.9238281,-0.07940674,-0.008850098
1601474427672,731,-1.3339844,0.058044434,-0.1807251
1601474427672,732,-1.2897949,-0.054260254,-0.12506104
1601474427676,733,-1.0046387,-0.09967041,0.06854248
1601474427676,734,-1.1403809,-0.030578613,-0.19659424
1601474427676,735,-1.2924805,0.09442139,-0.020568848
1601474427676,736,-0.9602051,0.059509277,-0.13824463
1601474427676,737,-1.5095215,0.019226074,-0.101623535
1601474427676,738,-1.5722656,-0.024230957,-0.14434814
1601474427676,739,-0.6052246,-0.08428955,0.018737793
1601474427676,740,-1.3339844,0.058044434,-0.1807251
1601474427677,741,-1.2087402,-0.21270752,-0.16217041
1601474427677,742,-0.43969727,-0.081604004,0.11273193
1601474427678,743,-1.1159668,-0.016418457,-0.19708252
1601474427679,744,-0.7294922,-0.082092285,-0.019104004
1601474427680,745,-1.1403809,-0.030578613,-0.19659424
1601474427680,746,-0.7458496,-0.11553955,-0.13238525
1601474427680,747,-0.92993164,-0.08013916,-0.037902832
1601474427680,748,-0.9602051,0.059509277,-0.13824463
1601474427680,749,-0.53686523,-0.23101807,-0.10430908
1601474427681,750,-0.6052246,-0.08428955,0.018737793
1601474427683,751,-1.157959,-0.14605713,0.0014038086
1601474427684,752,-0.6557617,-0.14019775,-0.10211182
1601474427684,753,-0.43969727,-0.081604004,0.11273193
1601474427685,754,-0.7294922,-0.082092285,-0.019104004
1601474427685,755,-0.97875977,-0.17559814,-0.12652588
1601474427686,756,-0.92993164,-0.08013916,-0.037902832
1601474427688,757,-1.2897949,-0.054260254,-0.12506104
1601474427688,758,-1.157959,-0.14605713,0.0014038086
1601474427689,759,-1.5095215,0.019226074,-0.101623535
1601474427690,760,-1.3339844,0.058044434,-0.1807251
1601474427693,761,-1.1403809,-0.030578613,-0.19659424
1601474427693,762,-0.9602051,0.059509277,-0.13824463
1601474427694,763,-0.6052246,-0.08428955,0.018737793
1601474427696,764,-0.43969727,-0.081604004,0.11273193
1601474427697,765,-0.7294922,-0.082092285,-0.019104004
1601474427698,766,-0.92993164,-0.08013916,-0.037902832
1601474427698,767,-1.157959,-0.14605713,0.0014038086
1601474430365,768,-1.5942383,0.13226318,-0.0947876
1601474430365,769,-1.5942383,0.13226318,-0.0947876
1601474430366,770,-1.5881348,0.0368042,-0.12408447
1601474430370,771,-1.5881348,0.0368042,-0.12408447
1601474430371,772,-1.5942383,0.13226318,-0.0947876
1601474430378,773,-1.5881348,0.0368042,-0.12408447
1601474430379,774,-1.1923828,0.047790527,-0.22174072
1601474430380,775,-1.1923828,0.047790527,-0.22174072
1601474430389,776,-0.951416,0.059753418,-0.25567627
1601474430389,777,-0.951416,0.059753418,-0.25567627
1601474430389,778,-1.1923828,0.047790527,-0.22174072
1601474430390,779,-0.6496582,-0.062805176,-0.18389893
1601474430391,780,-0.951416,0.059753418,-0.25567627
1601474430394,781,-0.6496582,-0.062805176,-0.18389893
1601474430397,782,-0.6496582,-0.062805176,-0.18389893
1601474430398,783,-0.65600586,-0.08746338,-0.18634033
1601474430398,784,-0.65600586,-0.08746338,-0.18634033
1601474430399,785,-0.6867676,-0.08721924,-0.124816895
1601474430399,786,-0.6867676,-0.08721924,-0.124816895
1601474430400,787,-0.65600586,-0.08746338,-0.18634033
1601474430403,788,-0.8642578,-0.117004395,-0.10455322
1601474430403,789,-0.6867676,-0.08721924,-0.124816895
1601474430404,790,-1.0678711,-0.120666504,-0.08477783
1601474430404,791,-0.8642578,-0.117004395,-0.10455322
1601474430404,792,-1.3476562,-0.06036377,-0.11798096
1601474430404,793,-0.8642578,-0.117004395,-0.10455322
1601474430405,794,-1.4746094,-0.06329346,-0.17974854
1601474430406,795,-1.1435547,-0.18511963,-0.09918213
1601474430409,796,-1.0678711,-0.120666504,-0.08477783
1601474430410,797,-0.9243164,0.09320068,-0.08721924
1601474430410,798,-1.0678711,-0.120666504,-0.08477783
1601474430410,799,-0.6755371,-0.082092285,-0.035217285
1601474430410,800,-1.3476562,-0.06036377,-0.11798096
1601474430410,801,-1.3476562,-0.06036377,-0.11798096
1601474430410,802,-1.4746094,-0.06329346,-0.17974854
1601474430412,803,-1.4746094,-0.06329346,-0.17974854
1601474430412,804,-1.1435547,-0.18511963,-0.09918213
1601474430413,805,-0.9243164,0.09320068,-0.08721924
1601474430414,806,-1.1435547,-0.18511963,-0.09918213
1601474430417,807,-0.6755371,-0.082092285,-0.035217285
1601474430417,808,-0.9243164,0.09320068,-0.08721924
1601474430417,809,-0.8000488,-0.086242676,-0.0647583
1601474430417,810,-0.6755371,-0.082092285,-0.035217285
1601474430418,811,-0.9030762,-0.07110596,-0.08526611
1601474430418,812,-0.8000488,-0.086242676,-0.0647583
1601474430418,813,-0.92163086,-0.10845947,0.101501465
1601474430419,814,-0.9030762,-0.07110596,-0.08526611
1601474430419,815,-0.92163086,-0.10845947,0.101501465
1601474430423,816,-1.2231445,0.18670654,-0.047424316
1601474430424,817,-1.2231445,0.18670654,-0.047424316
1601474430424,818,-0.8000488,-0.086242676,-0.0647583
1601474430424,819,-1.659668,0.026062012,-0.14849854
1601474430425,820,-1.659668,0.026062012,-0.14849854
1601474430425,821,-0.9030762,-0.07110596,-0.08526611
1601474430425,822,-1.215332,-0.055236816,-0.11480713
1601474430425,823,-0.92163086,-0.10845947,0.101501465
1601474430425,824,-1.0786133,-0.013000488,-0.20611572
1601474430425,825,-1.2231445,0.18670654,-0.047424316
1601474430429,826,-0.7824707,-0.034729004,-0.21954346
1601474430430,827,-1.659668,0.026062012,-0.14849854
1601474430430,828,-1.215332,-0.055236816,-0.11480713
1601474430430,829,-0.65600586,-0.15802002,-0.20147705
1601474430430,830,-1.215332,-0.055236816,-0.11480713
1601474430430,831,-0.63427734,-0.054748535,-0.1921997
1601474430430,832,-1.0786133,-0.013000488,-0.20611572
1601474430430,833,-0.8371582,-0.09991455,-0.19464111
1601474430430,834,-0.7824707,-0.034729004,-0.21954346
1601474430430,835,-0.9875488,-0.19171143,-0.128479
1601474430431,836,-0.65600586,-0.15802002,-0.20147705
1601474430431,837,-1.3686523,0.04901123,-0.16021729
1601474430434,838,-0.63427734,-0.054748535,-0.1921997
1601474430434,839,-1.0786133,-0.013000488,-0.20611572
1601474430434,840,-1.5319824,-0.1687622,-0.25445557
1601474430434,841,-0.8371582,-0.09991455,-0.19464111
1601474430435,842,-1.3347168,-0.06866455,-0.23321533
1601474430435,843,-0.7824707,-0.034729004,-0.21954346
1601474430435,844,-0.9526367,0.13128662,-0.17266846
1601474430435,845,-0.9875488,-0.19171143,-0.128479
1601474430435,846,-0.93896484,0.09906006,-0.190979
1601474430436,847,-0.65600586,-0.15802002,-0.20147705
1601474430436,848,-0.7741699,0.017028809,-0.12042236
1601474430440,849,-1.3686523,0.04901123,-0.16021729
1601474430440,850,-0.63427734,-0.054748535,-0.1921997
1601474430443,851,-0.8371582,-0.09991455,-0.19464111
1601474430443,852,-0.9875488,-0.19171143,-0.128479
1601474430443,853,-1.3686523,0.04901123,-0.16021729
1601474430443,854,-1.5319824,-0.1687622,-0.25445557
1601474430443,855,-1.3347168,-0.06866455,-0.23321533
1601474430443,856,-0.9526367,0.13128662,-0.17266846
1601474430443,857,-0.93896484,0.09906006,-0.190979
1601474430443,858,-0.7741699,0.017028809,-0.12042236
1601474430445,859,-1.5319824,-0.1687622,-0.25445557
1601474430448,860,-1.3347168,-0.06866455,-0.23321533
1601474430448,861,-0.9526367,0.13128662,-0.17266846
1601474430448,862,-0.93896484,0.09906006,-0.190979
1601474430448,863,-0.7741699,0.017028809,-0.12042236
1601474432897,864,-0.609375,0.0045776367,-0.06378174
1601474432898,865,-0.609375,0.0045776367,-0.06378174
1601474432906,866,-0.6921387,-0.019836426,-0.07696533
1601474432906,867,-0.6921387,-0.019836426,-0.07696533
1601474432906,868,-0.8317871,-0.07305908,-0.082092285
1601474432906,869,-0.609375,0.0045776367,-0.06378174
1601474432907,870,-0.8317871,-0.07305908,-0.082092285
1601474432907,871,-0.6921387,-0.019836426,-0.07696533
1601474432907,872,-0.99780273,-0.09942627,-0.043273926
1601474432908,873,-0.8317871,-0.07305908,-0.082092285
1601474432908,874,-0.99780273,-0.09942627,-0.043273926
1601474432911,875,-0.99780273,-0.09942627,-0.043273926
1601474432911,876,-1.3205566,0.051208496,-0.058654785
1601474432911,877,-1.3205566,0.051208496,-0.058654785
1601474432912,878,-1.3205566,0.051208496,-0.058654785
1601474432913,879,-1.5473633,0.05291748,-0.22906494
1601474432917,880,-1.5473633,0.05291748,-0.22906494
1601474432917,881,-1.2929688,-0.12042236,-0.18267822
1601474432917,882,-1.5473633,0.05291748,-0.22906494
1601474432917,883,-1.1594238,0.11907959,-0.2888794
1601474432917,884,-0.8930664,0.08026123,-0.24884033
1601474432921,885,-1.2929688,-0.12042236,-0.18267822
1601474432922,886,-1.2929688,-0.12042236,-0.18267822
1601474432922,887,-0.7993164,-0.0017700195,-0.19146729
1601474432922,888,-1.1594238,0.11907959,-0.2888794
1601474432923,889,-1.1594238,0.11907959,-0.2888794
1601474432924,890,-0.6760254,-0.07672119,-0.1482544
1601474432925,891,-0.8930664,0.08026123,-0.24884033
1601474432927,892,-0.8930664,0.08026123,-0.24884033
1601474432927,893,-0.63964844,-0.11383057,-0.11456299
1601474432928,894,-0.7993164,-0.0017700195,-0.19146729
1601474432930,895,-0.7993164,-0.0017700195,-0.19146729
1601474432930,896,-0.6760254,-0.07672119,-0.1482544
1601474432931,897,-0.8154297,-0.14312744,-0.11773682
1601474432931,898,-0.6760254,-0.07672119,-0.1482544
1601474432931,899,-0.63964844,-0.11383057,-0.11456299
1601474432931,900,-0.63964844,-0.11383057,-0.11456299
1601474432933,901,-1.121582,-0.09942627,-0.1428833
1601474432935,902,-0.8154297,-0.14312744,-0.11773682
1601474432935,903,-1.1809082,-0.074279785,-0.097961426
1601474432937,904,-0.8154297,-0.14312744,-0.11773682
1601474432938,905,-1.121582,-0.09942627,-0.1428833
1601474432938,906,-1.3029785,-0.004699707,-0.09185791
1601474432939,907,-1.121582,-0.09942627,-0.1428833
1601474432940,908,-1.1809082,-0.074279785,-0.097961426
1601474432943,909,-1.1809082,-0.074279785,-0.097961426
1601474432943,910,-1.2202148,6.713867E-4,-0.062072754
1601474432943,911,-1.3029785,-0.004699707,-0.09185791
1601474432945,912,-1.3029785,-0.004699707,-0.09185791
1601474432946,913,-0.954834,0.02142334,-0.093566895
1601474432946,914,-1.2202148,6.713867E-4,-0.062072754
1601474432946,915,-1.2202148,6.713867E-4,-0.062072754
1601474432946,916,-0.954834,0.02142334,-0.093566895
1601474432948,917,-0.8120117,-0.08428955,0.020690918
1601474432950,918,-0.8120117,-0.08428955,0.020690918
1601474432950,919,-0.954834,0.02142334,-0.093566895
1601474432950,920,-0.84277344,-0.016418457,-0.02154541
1601474432951,921,-0.84277344,-0.016418457,-0.02154541
1601474432953,922,-0.8391113,-0.02178955,-0.022277832
1601474432953,923,-0.8120117,-0.08428955,0.020690918
1601474432956,924,-0.8391113,-0.02178955,-0.022277832
1601474432956,925,-0.8808594,-0.0154418945,0.003112793
1601474432956,926,-0.84277344,-0.016418457,-0.02154541
1601474432956,927,-0.8808594,-0.0154418945,0.003112793
1601474432956,928,-1.0620117,0.026062012,0.042175293
1601474432961,929,-1.4599609,0.034851074,-0.069885254
1601474432961,930,-1.0620117,0.026062012,0.042175293
1601474432961,931,-1.4599609,0.034851074,-0.069885254
1601474432961,932,-1.4606934,-0.23175049,-0.010314941
1601474432961,933,-0.8391113,-0.02178955,-0.022277832
1601474432961,934,-1.4606934,-0.23175049,-0.010314941
1601474432962,935,-1.1325684,-0.17706299,-0.09185791
1601474432964,936,-1.1325684,-0.17706299,-0.09185791
1601474432964,937,-0.89038086,-0.019836426,-0.13067627
1601474432965,938,-0.8808594,-0.0154418945,0.003112793
1601474432966,939,-0.89038086,-0.019836426,-0.13067627
1601474432968,940,-1.0620117,0.026062012,0.042175293
1601474432968,941,-0.7080078,-0.15240479,-0.11505127
1601474432971,942,-0.7080078,-0.15240479,-0.11505127
1601474432971,943,-1.4599609,0.034851074,-0.069885254
1601474432971,944,-0.73999023,-0.15167236,-0.17706299
1601474432972,945,-0.8208008,-0.10772705,-0.17071533
1601474432972,946,-0.91308594,-0.17388916,-0.13531494
1601474432976,947,-0.73999023,-0.15167236,-0.17706299
1601474432976,948,-1.4606934,-0.23175049,-0.010314941
1601474432977,949,-1.109375,-0.14190674,-0.08746338
1601474432977,950,-0.8208008,-0.10772705,-0.17071533
1601474432977,951,-1.1325684,-0.17706299,-0.09185791
1601474432978,952,-0.91308594,-0.17388916,-0.13531494
1601474432979,953,-0.89038086,-0.019836426,-0.13067627
1601474432979,954,-1.109375,-0.14190674,-0.08746338
1601474432981,955,-0.7080078,-0.15240479,-0.11505127
1601474432982,956,-0.73999023,-0.15167236,-0.17706299
1601474432983,957,-0.8208008,-0.10772705,-0.17071533
1601474432984,958,-0.91308594,-0.17388916,-0.13531494
1601474432986,959,-1.109375,-0.14190674,-0.08746338
1601474435431,960,-1.362793,-0.1296997,-0.016418457
1601474435432,961,-1.362793,-0.1296997,-0.016418457
1601474435436,962,-1.362793,-0.1296997,-0.016418457
1601474435436,963,-1.4990234,-0.12677002,-0.10357666
1601474435437,964,-1.4990234,-0.12677002,-0.10357666
1601474435437,965,-1.4990234,-0.12677002,-0.10357666
1601474435446,966,-1.0859375,0.16522217,-0.12823486
1601474435447,967,-1.0859375,0.16522217,-0.12823486
1601474435448,968,-1.0859375,0.16522217,-0.12823486
1601474435448,969,-1.0712891,-0.053771973,-0.29644775
1601474435448,970,-1.0712891,-0.053771973,-0.29644775
1601474435449,971,-1.0712891,-0.053771973,-0.29644775
1601474435449,972,-0.7265625,0.0014038086,-0.14752197
1601474435457,973,-0.7265625,0.0014038086,-0.14752197
1601474435457,974,-0.6657715,-0.093322754,-0.07305908
1601474435457,975,-0.7265625,0.0014038086,-0.14752197
1601474435457,976,-0.77734375,-0.07110596,-0.074279785
1601474435457,977,-0.6657715,-0.093322754,-0.07305908
1601474435458,978,-0.8383789,-0.085998535,-0.011779785
1601474435458,979,-0.6657715,-0.093322754,-0.07305908
1601474435458,980,-0.77734375,-0.07110596,-0.074279785
1601474435464,981,-1.0075684,-0.17388916,0.06439209
1601474435464,982,-0.77734375,-0.07110596,-0.074279785
1601474435464,983,-0.8383789,-0.085998535,-0.011779785
1601474435466,984,-0.8383789,-0.085998535,-0.011779785
1601474435466,985,-1.2490234,0.081726074,-0.078430176
1601474435469,986,-1.0075684,-0.17388916,0.06439209
1601474435470,987,-1.3537598,-0.12701416,-0.13214111
1601474435470,988,-1.0075684,-0.17388916,0.06439209
1601474435470,989,-1.2490234,0.081726074,-0.078430176
1601474435473,990,-1.3537598,-0.12701416,-0.13214111
1601474435476,991,-1.0070801,-0.10040283,-0.15264893
1601474435476,992,-1.0070801,-0.10040283,-0.15264893
1601474435476,993,-1.2490234,0.081726074,-0.078430176
1601474435480,994,-1.0041504,0.0040893555,-0.19830322
1601474435480,995,-1.0041504,0.0040893555,-0.19830322
1601474435481,996,-0.7614746,-0.049621582,-0.20172119
1601474435481,997,-1.3537598,-0.12701416,-0.13214111
1601474435481,998,-0.7614746,-0.049621582,-0.20172119
1601474435485,999,-0.84228516,-0.1716919,-0.20880127
1601474435486,1000,-1.0070801,-0.10040283,-0.15264893
1601474435486,1001,-0.84228516,-0.1716919,-0.20880127
1601474435490,1002,-0.92993164,-0.108947754,-0.18780518
1601474435490,1003,-1.0041504,0.0040893555,-0.19830322
1601474435491,1004,-0.92993164,-0.108947754,-0.18780518
1601474435493,1005,-0.9794922,-0.15045166,-0.11187744
1601474435494,1006,-0.7614746,-0.049621582,-0.20172119
1601474435494,1007,-1.125,-0.10089111,-0.10015869
1601474435494,1008,-0.9794922,-0.15045166,-0.11187744
1601474435496,1009,-1.125,-0.10089111,-0.10015869
1601474435497,1010,-0.84228516,-0.1716919,-0.20880127
1601474435500,1011,-1.3688965,0.012634277,-0.16900635
1601474435501,1012,-0.92993164,-0.108947754,-0.18780518
1601474435501,1013,-1.3688965,0.012634277,-0.16900635
1601474435503,1014,-0.9794922,-0.15045166,-0.11187744
1601474435507,1015,-1.5629883,0.066833496,-0.21636963
1601474435507,1016,-1.125,-0.10089111,-0.10015869
1601474435507,1017,-1.5629883,0.066833496,-0.21636963
1601474435507,1018,-1.3688965,0.012634277,-0.16900635
1601474435509,1019,-1.123291,0.20892334,-0.19830322
1601474435511,1020,-1.123291,0.20892334,-0.19830322
1601474435511,1021,-0.9279785,0.16009521,-0.21783447
1601474435511,1022,-1.5629883,0.066833496,-0.21636963
1601474435512,1023,-0.62646484,0.027038574,-0.0635376
1601474435514,1024,-1.123291,0.20892334,-0.19830322
1601474435514,1025,-0.9279785,0.16009521,-0.21783447
1601474435517,1026,-0.5686035,-0.051818848,-0.0076293945
1601474435517,1027,-0.9279785,0.16009521,-0.21783447
1601474435517,1028,-0.62646484,0.027038574,-0.0635376
1601474435519,1029,-0.5686035,-0.051818848,-0.0076293945
1601474435519,1030,-0.62646484,0.027038574,-0.0635376
1601474435519,1031,-0.78100586,-0.016662598,-0.034729004
1601474435520,1032,-0.78100586,-0.016662598,-0.034729004
1601474435521,1033,-1.0080566,-0.010803223,-0.01763916
1601474435522,1034,-0.5686035,-0.051818848,-0.0076293945
1601474435524,1035,-1.0510254,-0.11895752,0.06878662
1601474435525,1036,-0.78100586,-0.016662598,-0.034729004
1601474435528,1037,-1.0080566,-0.010803223,-0.01763916
1601474435530,1038,-1.4626465,0.0602417,-0.039855957
1601474435538,1039,-1.0510254,-0.11895752,0.06878662
1601474435543,1040,-1.0080566,-0.010803223,-0.01763916
1601474435543,1041,-1.5239258,-0.054260254,-0.06866455
1601474435543,1042,-1.0510254,-0.11895752,0.06878662
1601474435544,1043,-1.4626465,0.0602417,-0.039855957
1601474435544,1044,-1.1901855,0.018249512,-0.12774658
1601474435544,1045,-1.4626465,0.0602417,-0.039855957
1601474435544,1046,-0.97802734,0.14105225,-0.12213135
1601474435544,1047,-1.5239258,-0.054260254,-0.06866455
1601474435544,1048,-1.1901855,0.018249512,-0.12774658
1601474435544,1049,-0.97802734,0.14105225,-0.12213135
1601474435544,1050,-0.67529297,0.021911621,-0.07525635
1601474435545,1051,-0.67529297,0.021911621,-0.07525635
1601474435545,1052,-1.5239258,-0.054260254,-0.06866455
1601474435545,1053,-1.1901855,0.018249512,-0.12774658
1601474435547,1054,-0.97802734,0.14105225,-0.12213135
1601474435547,1055,-0.67529297,0.021911621,-0.07525635
1601474438546,1056,-0.55493164,0.0927124,-0.027160645
1601474438547,1057,-0.55493164,0.0927124,-0.027160645
1601474438553,1058,-0.55493164,0.0927124,-0.027160645
1601474438553,1059,-0.6633301,-0.11431885,-0.08380127
1601474438554,1060,-0.6633301,-0.11431885,-0.08380127
1601474438554,1061,-0.9296875,-0.14190674,-0.049621582
1601474438554,1062,-0.6633301,-0.11431885,-0.08380127
1601474438555,1063,-0.9296875,-0.14190674,-0.049621582
1601474438555,1064,-1.1005859,-0.12164307,-0.030090332
1601474438556,1065,-1.1005859,-0.12164307,-0.030090332
1601474438556,1066,-1.2858887,-0.0491333,-0.0037231445
1601474438556,1067,-1.2858887,-0.0491333,-0.0037231445
1601474438556,1068,-1.3735352,0.062927246,-0.066467285
1601474438559,1069,-1.1628418,-0.070617676,-0.0044555664
1601474438560,1070,-0.9296875,-0.14190674,-0.049621582
1601474438560,1071,-1.3735352,0.062927246,-0.066467285
1601474438561,1072,-0.90649414,0.11541748,-0.028381348
1601474438566,1073,-1.1628418,-0.070617676,-0.0044555664
1601474438566,1074,-1.1005859,-0.12164307,-0.030090332
1601474438566,1075,-0.7602539,-0.09429932,0.015319824
1601474438566,1076,-1.2858887,-0.0491333,-0.0037231445
1601474438566,1077,-0.90649414,0.11541748,-0.028381348
1601474438567,1078,-1.3735352,0.062927246,-0.066467285
1601474438568,1079,-0.7602539,-0.09429932,0.015319824
1601474438568,1080,-1.1628418,-0.070617676,-0.0044555664
1601474438570,1081,-0.81030273,-0.06109619,0.015563965
1601474438571,1082,-0.81030273,-0.06109619,0.015563965
1601474438571,1083,-0.90649414,0.11541748,-0.028381348
1601474438572,1084,-0.8378906,-0.032043457,-0.015686035
1601474438572,1085,-0.8378906,-0.032043457,-0.015686035
1601474438574,1086,-0.7602539,-0.09429932,0.015319824
1601474438574,1087,-0.8828125,-0.17071533,0.04144287
1601474438575,1088,-0.8828125,-0.17071533,0.04144287
1601474438575,1089,-0.81030273,-0.06109619,0.015563965
1601474438577,1090,-1.0986328,0.13763428,0.082214355
1601474438577,1091,-1.0986328,0.13763428,0.082214355
1601474438577,1092,-0.8378906,-0.032043457,-0.015686035
1601474438578,1093,-1.7211914,0.08685303,-0.16265869
1601474438579,1094,-1.7211914,0.08685303,-0.16265869
1601474438579,1095,-0.8828125,-0.17071533,0.04144287
1601474438580,1096,-1.482666,-0.17437744,-0.062561035
1601474438581,1097,-1.482666,-0.17437744,-0.062561035
1601474438582,1098,-1.0986328,0.13763428,0.082214355
1601474438583,1099,-1.2016602,-0.013244629,-0.11846924
1601474438587,1100,-1.7211914,0.08685303,-0.16265869
1601474438587,1101,-0.87524414,0.034851074,-0.117492676
1601474438587,1102,-1.2016602,-0.013244629,-0.11846924
1601474438587,1103,-1.482666,-0.17437744,-0.062561035
1601474438587,1104,-0.60302734,-0.12994385,-0.10772705
1601474438587,1105,-0.87524414,0.034851074,-0.117492676
1601474438590,1106,-1.2016602,-0.013244629,-0.11846924
1601474438590,1107,-0.60302734,-0.12994385,-0.10772705
1601474438590,1108,-0.5739746,-0.14556885,-0.15899658
1601474438591,1109,-0.87524414,0.034851074,-0.117492676
1601474438591,1110,-0.62939453,-0.12896729,-0.16827393
1601474438591,1111,-0.5739746,-0.14556885,-0.15899658
1601474438591,1112,-0.84521484,-0.21514893,-0.11505127
1601474438591,1113,-0.62939453,-0.12896729,-0.16827393
1601474438591,1114,-0.60302734,-0.12994385,-0.10772705
1601474438592,1115,-0.5739746,-0.14556885,-0.15899658
1601474438593,1116,-1.3591309,-0.10357666,-0.14483643
1601474438593,1117,-0.62939453,-0.12896729,-0.16827393
1601474438595,1118,-0.84521484,-0.21514893,-0.11505127
1601474438596,1119,-1.6608887,0.01776123,-0.14141846
1601474438596,1120,-0.84521484,-0.21514893,-0.11505127
1601474438597,1121,-1.4482422,-0.0015258789,-0.08404541
1601474438597,1122,-1.3591309,-0.10357666,-0.14483643
1601474438598,1123,-1.1811523,0.1708374,-0.20513916
1601474438603,1124,-1.6608887,0.01776123,-0.14141846
1601474438603,1125,-1.0517578,0.105895996,-0.2444458
1601474438604,1126,-1.4482422,-0.0015258789,-0.08404541
1601474438604,1127,-1.1811523,0.1708374,-0.20513916
1601474438605,1128,-1.3591309,-0.10357666,-0.14483643
1601474438605,1129,-1.0517578,0.105895996,-0.2444458
1601474438607,1130,-1.6608887,0.01776123,-0.14141846
1601474438607,1131,-0.54541016,0.09881592,-0.028381348
1601474438607,1132,-1.4482422,-0.0015258789,-0.08404541
1601474438608,1133,-0.54541016,0.09881592,-0.028381348
1601474438609,1134,-1.1811523,0.1708374,-0.20513916
1601474438624,1135,-1.0517578,0.105895996,-0.2444458
1601474438624,1136,-0.48486328,-0.15118408,-0.08404541
1601474438624,1137,-0.48486328,-0.15118408,-0.08404541
1601474438624,1138,-0.54541016,0.09881592,-0.028381348
1601474438624,1139,-0.4350586,-0.066711426,-0.053527832
1601474438624,1140,-0.48486328,-0.15118408,-0.08404541
1601474438625,1141,-0.4350586,-0.066711426,-0.053527832
1601474438625,1142,-0.8366699,-0.15093994,-0.02960205
1601474438625,1143,-0.4350586,-0.066711426,-0.053527832
1601474438625,1144,-0.8366699,-0.15093994,-0.02960205
1601474438625,1145,-1.4067383,-0.014709473,-0.09552002
1601474438625,1146,-1.4067383,-0.014709473,-0.09552002
1601474438625,1147,-0.8366699,-0.15093994,-0.02960205
1601474438625,1148,-1.6374512,-0.015930176,-0.024475098
1601474438625,1149,-1.6374512,-0.015930176,-0.024475098
1601474438625,1150,-1.4067383,-0.014709473,-0.09552002
1601474438625,1151,-1.6374512,-0.015930176,-0.024475098
