# Sensor position: Front pocket (trouser)
# Sensor side: Right
# Activity type: Descending stairs
# Activity code: 13
# Subject id: s1709221
timestamp,seq,accel_x,accel_y,accel_z
1601473435076,0,-0.060302734,-0.956604,0.04925537
1601473435077,1,-0.060302734,-0.956604,0.04925537
1601473435077,2,-0.060302734,-0.956604,0.04925537
1601473435083,3,-0.099609375,-0.99835205,0.042663574
1601473435083,4,-0.099609375,-0.99835205,0.042663574
1601473435083,5,-0.099609375,-0.99835205,0.042663574
1601473435087,6,-0.11352539,-1.062561,0.054138184
1601473435087,7,-0.11352539,-1.062561,0.054138184
1601473435087,8,-0.0715332,-1.0623169,0.034851074
1601473435087,9,-0.06591797,-1.0425415,0.03387451
1601473435091,10,-0.0715332,-1.0623169,0.034851074
1601473435093,11,-0.11352539,-1.062561,0.054138184
1601473435093,12,-0.0715332,-1.0623169,0.034851074
1601473435093,13,-0.06591797,-1.0425415,0.03387451
1601473435094,14,-0.06591797,-1.0425415,0.03387451
1601473435095,15,-0.06298828,-1.0276489,0.028503418
1601473435096,16,-0.06298828,-1.0276489,0.028503418
1601473435096,17,0.061279297,-1.111145,0.109069824
1601473435096,18,-0.06298828,-1.0276489,0.028503418
1601473435097,19,0.061279297,-1.111145,0.109069824
1601473435097,20,-0.028564453,-0.9866333,0.0993042
1601473435097,21,0.061279297,-1.111145,0.109069824
1601473435100,22,-0.028564453,-0.9866333,0.0993042
1601473435100,23,-0.028564453,-0.9866333,0.0993042
1601473435100,24,-0.12451172,-0.87579346,-0.07281494
1601473435100,25,-0.12451172,-0.87579346,-0.07281494
1601473435100,26,-0.12451172,-0.87579346,-0.07281494
1601473435100,27,0.045166016,-0.84161377,-0.02960205
1601473435100,28,0.045166016,-0.84161377,-0.02960205
1601473435101,29,0.045166016,-0.84161377,-0.02960205
1601473435104,30,0.16552734,-0.86260986,0.074401855
1601473435104,31,0.16552734,-0.86260986,0.074401855
1601473435104,32,0.16552734,-0.86260986,0.074401855
1601473435104,33,0.10058594,-1.0574341,0.20965576
1601473435104,34,-0.13427734,-1.6990356,0.007751465
1601473435104,35,0.10058594,-1.0574341,0.20965576
1601473435106,36,0.10058594,-1.0574341,0.20965576
1601473435106,37,-0.24121094,-1.0305786,-0.2786255
1601473435106,38,-0.13427734,-1.6990356,0.007751465
1601473435106,39,-0.07299805,-1.0784302,-0.105773926
1601473435109,40,-0.13427734,-1.6990356,0.007751465
1601473435109,41,0.0031738281,-0.9800415,-0.017150879
1601473435109,42,-0.24121094,-1.0305786,-0.2786255
1601473435109,43,-0.24121094,-1.0305786,-0.2786255
1601473435109,44,-0.07299805,-1.0784302,-0.105773926
1601473435109,45,0.0031738281,-0.9800415,-0.017150879
1601473435110,46,-0.06958008,-1.039856,-0.13067627
1601473435110,47,-0.06958008,-1.039856,-0.13067627
1601473435113,48,-0.07299805,-1.0784302,-0.105773926
1601473435113,49,-0.12573242,-1.0405884,-0.13531494
1601473435113,50,-0.12573242,-1.0405884,-0.13531494
1601473435113,51,-0.12548828,-1.1060181,-0.1506958
1601473435113,52,-0.12548828,-1.1060181,-0.1506958
1601473435113,53,-0.1081543,-1.0369263,-0.17144775
1601473435113,54,0.0031738281,-0.9800415,-0.017150879
1601473435113,55,-0.1003418,-1.0056763,-0.1716919
1601473435113,56,-0.1081543,-1.0369263,-0.17144775
1601473435113,57,-0.06958008,-1.039856,-0.13067627
1601473435114,58,-0.1003418,-1.0056763,-0.1716919
1601473435115,59,-0.12792969,-1.0576782,-0.14141846
1601473435116,60,-0.12792969,-1.0576782,-0.14141846
1601473435116,61,-0.12573242,-1.0405884,-0.13531494
1601473435116,62,-0.07739258,-1.1072388,-0.15924072
1601473435116,63,-0.07739258,-1.1072388,-0.15924072
1601473435116,64,-0.12548828,-1.1060181,-0.1506958
1601473435117,65,-0.15014648,-1.1275024,-0.120666504
1601473435117,66,-0.1081543,-1.0369263,-0.17144775
1601473435118,67,-0.15014648,-1.1275024,-0.120666504
1601473435119,68,-0.1003418,-1.0056763,-0.1716919
1601473435119,69,-0.06298828,-1.1321411,-0.030578613
1601473435119,70,-0.12792969,-1.0576782,-0.14141846
1601473435119,71,-0.06298828,-1.1321411,-0.030578613
1601473435121,72,-0.07739258,-1.1072388,-0.15924072
1601473435121,73,0.03955078,-1.1375122,0.1749878
1601473435121,74,-0.15014648,-1.1275024,-0.120666504
1601473435121,75,0.03955078,-1.1375122,0.1749878
1601473435123,76,0.28295898,-1.2456665,0.24310303
1601473435124,77,-0.06298828,-1.1321411,-0.030578613
1601473435124,78,-0.12060547,-0.84161377,-0.054016113
1601473435124,79,0.03955078,-1.1375122,0.1749878
1601473435124,80,-0.0769043,-0.84454346,0.11859131
1601473435124,81,0.28295898,-1.2456665,0.24310303
1601473435125,82,-0.19946289,-0.8164673,0.03265381
1601473435126,83,-0.12060547,-0.84161377,-0.054016113
1601473435129,84,0.008056641,-0.9963989,0.042663574
1601473435129,85,0.28295898,-1.2456665,0.24310303
1601473435129,86,0.09790039,-1.1641235,0.15789795
1601473435130,87,-0.0769043,-0.84454346,0.11859131
1601473435130,88,-0.12060547,-0.84161377,-0.054016113
1601473435130,89,-0.19946289,-0.8164673,0.03265381
1601473435131,90,-0.0769043,-0.84454346,0.11859131
1601473435131,91,0.008056641,-0.9963989,0.042663574
1601473435132,92,-0.19946289,-0.8164673,0.03265381
1601473435132,93,0.008056641,-0.9963989,0.042663574
1601473435133,94,0.09790039,-1.1641235,0.15789795
1601473435133,95,0.09790039,-1.1641235,0.15789795
1601473437617,96,0.22094727,-1.1133423,0.12713623
1601473437618,97,0.22094727,-1.1133423,0.12713623
1601473437618,98,0.22094727,-1.1133423,0.12713623
1601473437624,99,0.07861328,-1.0657349,0.0914917
1601473437624,100,0.07861328,-1.0657349,0.0914917
1601473437625,101,0.07861328,-1.0657349,0.0914917
1601473437627,102,0.07373047,-1.0322876,0.027282715
1601473437627,103,0.07373047,-1.0322876,0.027282715
1601473437627,104,0.10253906,-0.96051025,0.042175293
1601473437631,105,0.10253906,-0.96051025,0.042175293
1601473437631,106,0.07373047,-1.0322876,0.027282715
1601473437632,107,0.19360352,-0.9963989,0.06439209
1601473437638,108,0.096191406,-0.89971924,0.07489014
1601473437640,109,0.10253906,-0.96051025,0.042175293
1601473437640,110,0.19360352,-0.9963989,0.06439209
1601473437640,111,0.11206055,-0.8657837,0.06878662
1601473437641,112,0.19360352,-0.9963989,0.06439209
1601473437641,113,0.096191406,-0.89971924,0.07489014
1601473437641,114,0.088134766,-0.7932739,0.14031982
1601473437648,115,0.11206055,-0.8657837,0.06878662
1601473437648,116,0.15795898,-0.90875244,0.19573975
1601473437648,117,0.096191406,-0.89971924,0.07489014
1601473437649,118,0.11206055,-0.8657837,0.06878662
1601473437649,119,0.088134766,-0.7932739,0.14031982
1601473437650,120,-0.20483398,-1.3323364,-0.07354736
1601473437650,121,-0.15429688,-1.423645,-0.20220947
1601473437650,122,0.15795898,-0.90875244,0.19573975
1601473437650,123,-0.19213867,-1.171936,-0.30230713
1601473437652,124,-0.20483398,-1.3323364,-0.07354736
1601473437657,125,0.088134766,-0.7932739,0.14031982
1601473437657,126,-0.15429688,-1.423645,-0.20220947
1601473437657,127,-0.009277344,-0.9727173,-0.062072754
1601473437657,128,0.15795898,-0.90875244,0.19573975
1601473437657,129,0.053222656,-0.8882446,-0.09503174
1601473437657,130,0.0026855469,-0.9085083,-0.11505127
1601473437660,131,0.16601562,-1.0552368,-0.086242676
1601473437660,132,-0.20483398,-1.3323364,-0.07354736
1601473437660,133,-0.19213867,-1.171936,-0.30230713
1601473437660,134,0.3173828,-1.395813,0.051452637
1601473437661,135,-0.15429688,-1.423645,-0.20220947
1601473437661,136,-0.009277344,-0.9727173,-0.062072754
1601473437661,137,-0.4267578,-1.593811,-0.13360596
1601473437663,138,-0.19213867,-1.171936,-0.30230713
1601473437663,139,0.053222656,-0.8882446,-0.09503174
1601473437664,140,-0.017333984,-1.4011841,-0.012023926
1601473437664,141,-0.009277344,-0.9727173,-0.062072754
1601473437664,142,-0.12695312,-0.9470825,0.0040893555
1601473437664,143,0.053222656,-0.8882446,-0.09503174
1601473437664,144,-0.24975586,-0.5557251,-0.04107666
1601473437666,145,0.0026855469,-0.9085083,-0.11505127
1601473437666,146,0.0026855469,-0.9085083,-0.11505127
1601473437666,147,-0.13842773,-0.5112915,0.07342529
1601473437667,148,0.16601562,-1.0552368,-0.086242676
1601473437667,149,0.16601562,-1.0552368,-0.086242676
1601473437671,150,0.3173828,-1.395813,0.051452637
1601473437671,151,0.3173828,-1.395813,0.051452637
1601473437671,152,-0.4267578,-1.593811,-0.13360596
1601473437671,153,-0.4267578,-1.593811,-0.13360596
1601473437671,154,-0.017333984,-1.4011841,-0.012023926
1601473437671,155,-0.017333984,-1.4011841,-0.012023926
1601473437671,156,-0.12695312,-0.9470825,0.0040893555
1601473437671,157,-0.12695312,-0.9470825,0.0040893555
1601473437671,158,-0.24975586,-0.5557251,-0.04107666
1601473437671,159,-0.24975586,-0.5557251,-0.04107666
1601473437671,160,0.31298828,-0.80670166,0.09515381
1601473437671,161,-0.13842773,-0.5112915,0.07342529
1601473437672,162,-0.13842773,-0.5112915,0.07342529
1601473437674,163,0.31298828,-0.80670166,0.09515381
1601473437675,164,0.31298828,-0.80670166,0.09515381
1601473437675,165,0.50561523,-0.9990845,0.20892334
1601473437675,166,0.50561523,-0.9990845,0.20892334
1601473437676,167,0.50561523,-0.9990845,0.20892334
1601473437676,168,-0.041015625,-1.2339478,0.057800293
1601473437677,169,-0.041015625,-1.2339478,0.057800293
1601473437677,170,-0.041015625,-1.2339478,0.057800293
1601473437677,171,-0.16088867,-1.5686646,-0.006164551
1601473437679,172,-0.16088867,-1.5686646,-0.006164551
1601473437679,173,-0.16088867,-1.5686646,-0.006164551
1601473437679,174,-0.12963867,-1.2478638,-0.31695557
1601473437680,175,-0.12963867,-1.2478638,-0.31695557
1601473437680,176,-0.12963867,-1.2478638,-0.31695557
1601473437683,177,0.008056641,-1.0637817,-0.16949463
1601473437683,178,0.008056641,-1.0637817,-0.16949463
1601473437683,179,0.008056641,-1.0637817,-0.16949463
1601473437683,180,-0.1003418,-0.89630127,-0.066223145
1601473437685,181,-0.1003418,-0.89630127,-0.066223145
1601473437685,182,-0.1003418,-0.89630127,-0.066223145
1601473437686,183,0.05908203,-0.8196411,-0.089904785
1601473437686,184,0.05908203,-0.8196411,-0.089904785
1601473437687,185,0.05908203,-0.8196411,-0.089904785
1601473437687,186,0.18188477,-1.0357056,-0.10748291
1601473437688,187,0.18188477,-1.0357056,-0.10748291
1601473437688,188,0.27685547,-1.2046509,-0.042785645
1601473437689,189,0.18188477,-1.0357056,-0.10748291
1601473437690,190,0.27685547,-1.2046509,-0.042785645
1601473437690,191,0.27685547,-1.2046509,-0.042785645
1601473440148,192,-0.18847656,-1.6018677,-0.043029785
1601473440150,193,-0.18847656,-1.6018677,-0.043029785
1601473440151,194,-0.18847656,-1.6018677,-0.043029785
1601473440154,195,-0.41723633,-1.378479,-0.022521973
1601473440155,196,-0.036132812,-0.9841919,-0.062316895
1601473440157,197,-0.28515625,-0.4656372,-0.17901611
1601473440159,198,-0.1887207,-0.34991455,-0.038879395
1601473440160,199,-0.41723633,-1.378479,-0.022521973
1601473440161,200,-0.036132812,-0.9841919,-0.062316895
1601473440161,201,-0.28515625,-0.4656372,-0.17901611
1601473440162,202,-0.1887207,-0.34991455,-0.038879395
1601473440163,203,0.42138672,-1.192688,0.2584839
1601473440165,204,0.09008789,-1.2185669,0.035827637
1601473440165,205,0.42138672,-1.192688,0.2584839
1601473440165,206,-0.07006836,-1.671936,-0.030090332
1601473440166,207,-0.45043945,-1.1463013,-0.4649048
1601473440166,208,-0.040283203,-1.0618286,-0.16656494
1601473440167,209,-0.12988281,-0.8945923,-0.11505127
1601473440167,210,0.22485352,-0.9248657,-0.047668457
1601473440169,211,0.13183594,-1.034729,-0.1843872
1601473440170,212,0.02709961,-1.5674438,0.09295654
1601473440172,213,0.09008789,-1.2185669,0.035827637
1601473440173,214,-0.45898438,-1.380188,-0.07525635
1601473440173,215,0.056884766,-1.1502075,-0.14898682
1601473440173,216,-0.07006836,-1.671936,-0.030090332
1601473440173,217,-0.15478516,-0.60723877,-0.1116333
1601473440173,218,-0.45043945,-1.1463013,-0.4649048
1601473440174,219,-0.040283203,-1.0618286,-0.16656494
1601473440174,220,-0.41723633,-1.378479,-0.022521973
1601473440176,221,-0.12988281,-0.8945923,-0.11505127
1601473440176,222,-0.24047852,-0.35821533,-0.077697754
1601473440178,223,0.22485352,-0.9248657,-0.047668457
1601473440178,224,-0.036132812,-0.9841919,-0.062316895
1601473440178,225,0.13183594,-1.034729,-0.1843872
1601473440178,226,-0.024658203,-0.6716919,0.14324951
1601473440180,227,-0.28515625,-0.4656372,-0.17901611
1601473440180,228,0.55859375,-1.3689575,0.2850952
1601473440182,229,0.02709961,-1.5674438,0.09295654
1601473440182,230,-0.1887207,-0.34991455,-0.038879395
1601473440183,231,-0.28149414,-1.5161743,-0.15948486
1601473440185,232,0.42138672,-1.192688,0.2584839
1601473440185,233,-0.45898438,-1.380188,-0.07525635
1601473440185,234,-0.22265625,-1.3220825,-0.20587158
1601473440187,235,0.056884766,-1.1502075,-0.14898682
1601473440187,236,-0.31396484,-1.260315,-0.37799072
1601473440188,237,0.09008789,-1.2185669,0.035827637
1601473440188,238,-0.15478516,-0.60723877,-0.1116333
1601473440189,239,-0.07006836,-1.671936,-0.030090332
1601473440190,240,-0.019042969,-0.93756104,0.01776123
1601473440190,241,-0.45043945,-1.1463013,-0.4649048
1601473440194,242,-0.24047852,-0.35821533,-0.077697754
1601473440194,243,0.048828125,-0.77545166,-0.078430176
1601473440194,244,-0.040283203,-1.0618286,-0.16656494
1601473440194,245,0.2619629,-1.0505981,-0.05328369
1601473440194,246,-0.12988281,-0.8945923,-0.11505127
1601473440194,247,-0.024658203,-0.6716919,0.14324951
1601473440194,248,0.1496582,-1.5383911,0.11126709
1601473440194,249,0.22485352,-0.9248657,-0.047668457
1601473440195,250,0.55859375,-1.3689575,0.2850952
1601473440195,251,0.13183594,-1.034729,-0.1843872
1601473440197,252,-0.46313477,-1.5742798,-0.18756104
1601473440197,253,0.02709961,-1.5674438,0.09295654
1601473440197,254,-0.28149414,-1.5161743,-0.15948486
1601473440198,255,-0.0041503906,-1.1201782,-0.047668457
1601473440198,256,-0.45898438,-1.380188,-0.07525635
1601473440199,257,-0.17626953,-0.5459595,-0.0881958
1601473440199,258,0.056884766,-1.1502075,-0.14898682
1601473440199,259,-0.22265625,-1.3220825,-0.20587158
1601473440200,260,-0.15478516,-0.60723877,-0.1116333
1601473440201,261,-0.31396484,-1.260315,-0.37799072
1601473440202,262,-0.24047852,-0.35821533,-0.077697754
1601473440202,263,-0.22338867,-0.41363525,-0.04083252
1601473440202,264,-0.019042969,-0.93756104,0.01776123
1601473440203,265,0.061279297,-0.7822876,0.13494873
1601473440205,266,-0.024658203,-0.6716919,0.14324951
1601473440205,267,0.048828125,-0.77545166,-0.078430176
1601473440205,268,0.55859375,-1.3689575,0.2850952
1601473440205,269,-0.28149414,-1.5161743,-0.15948486
1601473440205,270,0.2619629,-1.0505981,-0.05328369
1601473440205,271,-0.22265625,-1.3220825,-0.20587158
1601473440206,272,-0.31396484,-1.260315,-0.37799072
1601473440206,273,-0.019042969,-0.93756104,0.01776123
1601473440207,274,0.1496582,-1.5383911,0.11126709
1601473440208,275,-0.46313477,-1.5742798,-0.18756104
1601473440209,276,-0.0041503906,-1.1201782,-0.047668457
1601473440210,277,-0.17626953,-0.5459595,-0.0881958
1601473440210,278,0.048828125,-0.77545166,-0.078430176
1601473440212,279,-0.22338867,-0.41363525,-0.04083252
1601473440212,280,0.2619629,-1.0505981,-0.05328369
1601473440212,281,0.1496582,-1.5383911,0.11126709
1601473440212,282,-0.46313477,-1.5742798,-0.18756104
1601473440214,283,0.061279297,-0.7822876,0.13494873
1601473440214,284,-0.0041503906,-1.1201782,-0.047668457
1601473440215,285,-0.17626953,-0.5459595,-0.0881958
1601473440216,286,-0.22338867,-0.41363525,-0.04083252
1601473440216,287,0.061279297,-0.7822876,0.13494873
1601473442689,288,0.37963867,-1.1734009,0.34857178
1601473442689,289,0.37963867,-1.1734009,0.34857178
1601473442691,290,0.37963867,-1.1734009,0.34857178
1601473442691,291,-0.01586914,-1.6724243,-0.14117432
1601473442692,292,-0.01586914,-1.6724243,-0.14117432
1601473442694,293,-0.25439453,-1.1663208,-0.04425049
1601473442695,294,-0.25439453,-1.1663208,-0.04425049
1601473442695,295,-0.15551758,-1.18219,-0.37554932
1601473442699,296,-0.15551758,-1.18219,-0.37554932
1601473442700,297,-0.08886719,-0.9536743,-0.0256958
1601473442700,298,-0.08886719,-0.9536743,-0.0256958
1601473442700,299,-0.01586914,-1.6724243,-0.14117432
1601473442707,300,-0.061523438,-0.8999634,-0.13555908
1601473442707,301,-0.25439453,-1.1663208,-0.04425049
1601473442708,302,0.2211914,-0.9998169,-0.03253174
1601473442708,303,-0.061523438,-0.8999634,-0.13555908
1601473442708,304,0.2211914,-0.9998169,-0.03253174
1601473442708,305,-0.15551758,-1.18219,-0.37554932
1601473442709,306,0.22460938,-1.135315,-0.070617676
1601473442709,307,0.22460938,-1.135315,-0.070617676
1601473442709,308,-0.08886719,-0.9536743,-0.0256958
1601473442709,309,0.1171875,-1.6365356,0.06903076
1601473442710,310,0.1171875,-1.6365356,0.06903076
1601473442710,311,-0.37890625,-1.3963013,-0.10357666
1601473442710,312,-0.041259766,-0.93878174,-0.13848877
1601473442710,313,-0.37890625,-1.3963013,-0.10357666
1601473442710,314,-0.061523438,-0.8999634,-0.13555908
1601473442710,315,-0.3161621,-0.48492432,-0.101623535
1601473442711,316,-0.041259766,-0.93878174,-0.13848877
1601473442713,317,-0.25756836,-0.39971924,-0.03717041
1601473442714,318,0.2211914,-0.9998169,-0.03253174
1601473442714,319,0.42041016,-1.3496704,0.40252686
1601473442714,320,0.22460938,-1.135315,-0.070617676
1601473442714,321,-0.19140625,-0.8196411,0.24163818
1601473442716,322,-0.3161621,-0.48492432,-0.101623535
1601473442717,323,0.1171875,-1.6365356,0.06903076
1601473442717,324,0.036865234,-1.8684692,-0.26739502
1601473442717,325,-0.37890625,-1.3963013,-0.10357666
1601473442719,326,-0.041259766,-0.93878174,-0.13848877
1601473442720,327,-0.25756836,-0.39971924,-0.03717041
1601473442720,328,-0.3161621,-0.48492432,-0.101623535
1601473442720,329,-0.5644531,-1.2131958,-0.44366455
1601473442720,330,-0.25756836,-0.39971924,-0.03717041
1601473442721,331,0.42041016,-1.3496704,0.40252686
1601473442722,332,0.0871582,-1.1299438,-0.13458252
1601473442725,333,-0.19140625,-0.8196411,0.24163818
1601473442725,334,0.42041016,-1.3496704,0.40252686
1601473442725,335,-2.4414062E-4,-0.83306885,-0.10406494
1601473442725,336,-0.19140625,-0.8196411,0.24163818
1601473442725,337,0.036865234,-1.8684692,-0.26739502
1601473442725,338,0.3317871,-0.958313,0.04925537
1601473442726,339,0.036865234,-1.8684692,-0.26739502
1601473442727,340,0.39990234,-1.2266235,0.13348389
1601473442727,341,-0.5644531,-1.2131958,-0.44366455
1601473442728,342,-0.5644531,-1.2131958,-0.44366455
1601473442730,343,0.0871582,-1.1299438,-0.13458252
1601473442731,344,-0.47851562,-1.8259888,-0.14654541
1601473442731,345,-2.4414062E-4,-0.83306885,-0.10406494
1601473442731,346,0.0021972656,-1.197815,-0.07940674
1601473442732,347,-0.1640625,-0.68951416,-0.11798096
1601473442732,348,0.3317871,-0.958313,0.04925537
1601473442732,349,0.0871582,-1.1299438,-0.13458252
1601473442732,350,-0.265625,-0.2876587,-0.08404541
1601473442734,351,-2.4414062E-4,-0.83306885,-0.10406494
1601473442734,352,0.39990234,-1.2266235,0.13348389
1601473442734,353,-0.22021484,-0.73516846,0.14251709
1601473442736,354,0.3317871,-0.958313,0.04925537
1601473442736,355,-0.47851562,-1.8259888,-0.14654541
1601473442736,356,0.6738281,-1.3259888,0.16326904
1601473442736,357,0.0021972656,-1.197815,-0.07940674
1601473442738,358,-0.32348633,-1.6404419,-0.09503174
1601473442739,359,-0.1640625,-0.68951416,-0.11798096
1601473442741,360,0.39990234,-1.2266235,0.13348389
1601473442741,361,-0.29418945,-1.3567505,-0.24395752
1601473442742,362,-0.47851562,-1.8259888,-0.14654541
1601473442742,363,-0.3022461,-1.1248169,-0.3411255
1601473442743,364,-0.265625,-0.2876587,-0.08404541
1601473442744,365,0.0021972656,-1.197815,-0.07940674
1601473442746,366,0.1027832,-0.9241333,-0.0076293945
1601473442746,367,-0.22021484,-0.73516846,0.14251709
1601473442746,368,-0.1640625,-0.68951416,-0.11798096
1601473442746,369,0.17700195,-0.8945923,-0.049621582
1601473442747,370,0.6738281,-1.3259888,0.16326904
1601473442750,371,-0.265625,-0.2876587,-0.08404541
1601473442750,372,-0.32348633,-1.6404419,-0.09503174
1601473442750,373,-0.22021484,-0.73516846,0.14251709
1601473442750,374,-0.29418945,-1.3567505,-0.24395752
1601473442753,375,-0.3022461,-1.1248169,-0.3411255
1601473442753,376,0.6738281,-1.3259888,0.16326904
1601473442753,377,0.1027832,-0.9241333,-0.0076293945
1601473442754,378,0.17700195,-0.8945923,-0.049621582
1601473442754,379,-0.32348633,-1.6404419,-0.09503174
1601473442754,380,-0.29418945,-1.3567505,-0.24395752
1601473442756,381,-0.3022461,-1.1248169,-0.3411255
1601473442757,382,0.1027832,-0.9241333,-0.0076293945
1601473442757,383,0.17700195,-0.8945923,-0.049621582
1601473445424,384,0.3564453,-0.972229,0.03363037
1601473445424,385,0.3564453,-0.972229,0.03363037
1601473445424,386,0.3564453,-0.972229,0.03363037
1601473445424,387,-0.12988281,-1.704895,0.07904053
1601473445432,388,-0.12988281,-1.704895,0.07904053
1601473445432,389,-0.37768555,-1.446106,-0.06036377
1601473445441,390,-0.05102539,-0.8640747,-0.10797119
1601473445441,391,-0.37768555,-1.446106,-0.06036377
1601473445441,392,-0.12988281,-1.704895,0.07904053
1601473445443,393,-0.2890625,-0.31304932,-0.10723877
1601473445443,394,-0.05102539,-0.8640747,-0.10797119
1601473445443,395,-0.2890625,-0.31304932,-0.10723877
1601473445444,396,-0.18969727,-0.4492798,4.272461E-4
1601473445444,397,0.61621094,-1.5078735,0.41619873
1601473445444,398,-0.3671875,-1.4243774,-0.15948486
1601473445444,399,-0.18969727,-0.4492798,4.272461E-4
1601473445444,400,0.61621094,-1.5078735,0.41619873
1601473445444,401,-0.3671875,-1.4243774,-0.15948486
1601473445447,402,-0.37768555,-1.446106,-0.06036377
1601473445447,403,-0.17407227,-1.3259888,-0.2805786
1601473445447,404,-0.17407227,-1.3259888,-0.2805786
1601473445448,405,-0.25170898,-1.2866821,-0.2468872
1601473445448,406,-0.25170898,-1.2866821,-0.2468872
1601473445448,407,-0.05102539,-0.8640747,-0.10797119
1601473445449,408,-0.2890625,-0.31304932,-0.10723877
1601473445450,409,-0.05834961,-0.9326782,-0.03692627
1601473445451,410,-0.18969727,-0.4492798,4.272461E-4
1601473445451,411,0.10498047,-0.8777466,-0.12579346
1601473445451,412,0.61621094,-1.5078735,0.41619873
1601473445451,413,-0.05834961,-0.9326782,-0.03692627
1601473445451,414,0.30322266,-1.0335083,-0.0115356445
1601473445452,415,0.37963867,-1.3652954,0.19989014
1601473445453,416,0.10498047,-0.8777466,-0.12579346
1601473445453,417,-0.3671875,-1.4243774,-0.15948486
1601473445454,418,-0.67285156,-1.6194458,-0.07525635
1601473445455,419,0.30322266,-1.0335083,-0.0115356445
1601473445456,420,-0.17407227,-1.3259888,-0.2805786
1601473445456,421,0.100097656,-1.017395,-0.0803833
1601473445458,422,-0.14208984,-0.61309814,-0.09039307
1601473445458,423,-0.25170898,-1.2866821,-0.2468872
1601473445459,424,0.37963867,-1.3652954,0.19989014
1601473445461,425,-0.67285156,-1.6194458,-0.07525635
1601473445461,426,-0.21411133,-0.34674072,-0.034240723
1601473445462,427,0.100097656,-1.017395,-0.0803833
1601473445463,428,-0.05834961,-0.9326782,-0.03692627
1601473445464,429,-0.060058594,-0.8272095,0.25482178
1601473445464,430,-0.14208984,-0.61309814,-0.09039307
1601473445464,431,0.10498047,-0.8777466,-0.12579346
1601473445465,432,0.40478516,-1.4744263,0.230896
1601473445467,433,-0.009521484,-1.7263794,-0.023498535
1601473445467,434,-0.21411133,-0.34674072,-0.034240723
1601473445467,435,0.30322266,-1.0335083,-0.0115356445
1601473445468,436,-0.5319824,-1.1121216,-0.49493408
1601473445469,437,-0.060058594,-0.8272095,0.25482178
1601473445469,438,0.37963867,-1.3652954,0.19989014
1601473445469,439,0.40478516,-1.4744263,0.230896
1601473445470,440,0.032226562,-1.128479,-0.12774658
1601473445472,441,-0.009521484,-1.7263794,-0.023498535
1601473445474,442,-0.67285156,-1.6194458,-0.07525635
1601473445474,443,-0.5319824,-1.1121216,-0.49493408
1601473445476,444,-0.16772461,-0.90045166,-0.113098145
1601473445476,445,0.100097656,-1.017395,-0.0803833
1601473445476,446,0.16137695,-0.9260864,-0.08477783
1601473445476,447,0.16845703,-1.0606079,-0.1260376
1601473445476,448,-0.14208984,-0.61309814,-0.09039307
1601473445476,449,0.032226562,-1.128479,-0.12774658
1601473445476,450,0.28808594,-1.3953247,0.13446045
1601473445479,451,-0.21411133,-0.34674072,-0.034240723
1601473445479,452,-0.68481445,-1.5776978,-0.025939941
1601473445479,453,-0.16772461,-0.90045166,-0.113098145
1601473445480,454,-0.060058594,-0.8272095,0.25482178
1601473445480,455,0.16137695,-0.9260864,-0.08477783
1601473445480,456,0.06762695,-1.1109009,0.0026245117
1601473445482,457,0.40478516,-1.4744263,0.230896
1601473445482,458,0.16845703,-1.0606079,-0.1260376
1601473445482,459,-0.15551758,-0.6255493,-0.0869751
1601473445483,460,-0.009521484,-1.7263794,-0.023498535
1601473445483,461,-0.2253418,-0.24810791,-0.10357666
1601473445483,462,0.28808594,-1.3953247,0.13446045
1601473445484,463,0.02709961,-0.5737915,0.07171631
1601473445485,464,-0.5319824,-1.1121216,-0.49493408
1601473445485,465,-0.68481445,-1.5776978,-0.025939941
1601473445485,466,0.032226562,-1.128479,-0.12774658
1601473445485,467,0.06762695,-1.1109009,0.0026245117
1601473445486,468,-0.16772461,-0.90045166,-0.113098145
1601473445486,469,-0.15551758,-0.6255493,-0.0869751
1601473445488,470,0.16137695,-0.9260864,-0.08477783
1601473445488,471,-0.2253418,-0.24810791,-0.10357666
1601473445489,472,0.02709961,-0.5737915,0.07171631
1601473445489,473,0.16845703,-1.0606079,-0.1260376
1601473445490,474,0.28808594,-1.3953247,0.13446045
1601473445491,475,-0.68481445,-1.5776978,-0.025939941
1601473445491,476,0.06762695,-1.1109009,0.0026245117
1601473445492,477,-0.15551758,-0.6255493,-0.0869751
1601473445493,478,-0.2253418,-0.24810791,-0.10357666
1601473445495,479,0.02709961,-0.5737915,0.07171631
1601473447949,480,0.5793457,-1.4226685,0.4328003
1601473447949,481,0.5793457,-1.4226685,0.4328003
1601473447949,482,-0.40112305,-1.4646606,-0.089904785
1601473447950,483,-0.40112305,-1.4646606,-0.089904785
1601473447950,484,-0.15795898,-1.6118774,-0.25787354
1601473447951,485,-0.15795898,-1.6118774,-0.25787354
1601473447951,486,-0.35473633,-1.1712036,-0.31866455
1601473447951,487,0.5793457,-1.4226685,0.4328003
1601473447952,488,-0.35473633,-1.1712036,-0.31866455
1601473447955,489,-0.40112305,-1.4646606,-0.089904785
1601473447955,490,0.07348633,-0.96099854,-0.018615723
1601473447955,491,0.07348633,-0.96099854,-0.018615723
1601473447957,492,-0.15795898,-1.6118774,-0.25787354
1601473447957,493,0.09667969,-0.7896118,-0.12408447
1601473447957,494,0.4309082,-1.0166626,0.12615967
1601473447960,495,0.09667969,-0.7896118,-0.12408447
1601473447960,496,0.4309082,-1.0166626,0.12615967
1601473447960,497,-0.35473633,-1.1712036,-0.31866455
1601473447963,498,0.07348633,-0.96099854,-0.018615723
1601473447964,499,0.24780273,-1.5371704,0.16888428
1601473447964,500,-0.46679688,-1.4627075,-0.25299072
1601473447967,501,0.09667969,-0.7896118,-0.12408447
1601473447967,502,0.24780273,-1.5371704,0.16888428
1601473447967,503,-0.028564453,-0.9380493,-0.0029907227
1601473447967,504,-0.46679688,-1.4627075,-0.25299072
1601473447968,505,-0.118652344,-0.4817505,-0.06304932
1601473447969,506,-0.028564453,-0.9380493,-0.0029907227
1601473447970,507,-0.14746094,-0.4265747,0.008239746
1601473447970,508,0.4309082,-1.0166626,0.12615967
1601473447971,509,0.19165039,-1.1240845,0.32244873
1601473447972,510,-0.118652344,-0.4817505,-0.06304932
1601473447972,511,0.24951172,-1.364563,0.058044434
1601473447973,512,0.24780273,-1.5371704,0.16888428
1601473447975,513,-0.118896484,-1.6436157,0.0028686523
1601473447975,514,-0.14746094,-0.4265747,0.008239746
1601473447977,515,-0.46679688,-1.4627075,-0.25299072
1601473447977,516,-0.3564453,-1.1672974,-0.41241455
1601473447978,517,-0.028564453,-0.9380493,-0.0029907227
1601473447978,518,-0.036132812,-1.0647583,-0.14312744
1601473447978,519,0.19165039,-1.1240845,0.32244873
1601473447978,520,-0.118652344,-0.4817505,-0.06304932
1601473447981,521,-0.0715332,-0.9234009,-0.117248535
1601473447981,522,0.24951172,-1.364563,0.058044434
1601473447981,523,0.17041016,-0.9480591,-0.10211182
1601473447981,524,-0.14746094,-0.4265747,0.008239746
1601473447981,525,-0.118896484,-1.6436157,0.0028686523
1601473447981,526,0.19165039,-1.1240845,0.32244873
1601473447982,527,0.09423828,-1.0493774,-0.09918213
1601473447983,528,0.24951172,-1.364563,0.058044434
1601473447984,529,-0.118896484,-1.6436157,0.0028686523
1601473447985,530,0.29736328,-1.3731079,0.039001465
1601473447986,531,-0.3564453,-1.1672974,-0.41241455
1601473447986,532,-0.6040039,-1.519104,-0.08380127
1601473447988,533,0.040039062,-1.1206665,-0.082336426
1601473447988,534,-0.036132812,-1.0647583,-0.14312744
1601473447988,535,-0.115234375,-0.7190552,-0.06378174
1601473447990,536,-0.0715332,-0.9234009,-0.117248535
1601473447990,537,-0.23583984,-0.4500122,-0.035217285
1601473447990,538,0.17041016,-0.9480591,-0.10211182
1601473447992,539,-0.3564453,-1.1672974,-0.41241455
1601473448000,540,0.09423828,-1.0493774,-0.09918213
1601473448001,541,-0.07128906,-0.6765747,0.12738037
1601473448002,542,0.29736328,-1.3731079,0.039001465
1601473448003,543,-0.6040039,-1.519104,-0.08380127
1601473448004,544,-0.036132812,-1.0647583,-0.14312744
1601473448004,545,0.040039062,-1.1206665,-0.082336426
1601473448004,546,0.26757812,-1.0491333,0.18182373
1601473448004,547,-0.0715332,-0.9234009,-0.117248535
1601473448004,548,-0.115234375,-0.7190552,-0.06378174
1601473448004,549,0.22827148,-1.232727,0.2164917
1601473448006,550,0.17041016,-0.9480591,-0.10211182
1601473448007,551,-0.23583984,-0.4500122,-0.035217285
1601473448007,552,0.09423828,-1.0493774,-0.09918213
1601473448007,553,-0.07128906,-0.6765747,0.12738037
1601473448009,554,0.29736328,-1.3731079,0.039001465
1601473448009,555,0.26757812,-1.0491333,0.18182373
1601473448010,556,-0.1430664,-1.5825806,-0.03277588
1601473448010,557,0.22827148,-1.232727,0.2164917
1601473448010,558,-0.6040039,-1.519104,-0.08380127
1601473448010,559,-0.2878418,-1.1851196,-0.3430786
1601473448011,560,-0.1430664,-1.5825806,-0.03277588
1601473448012,561,-0.0769043,-1.1807251,-0.18609619
1601473448012,562,-0.2878418,-1.1851196,-0.3430786
1601473448012,563,0.040039062,-1.1206665,-0.082336426
1601473448013,564,-0.115234375,-0.7190552,-0.06378174
1601473448014,565,-0.0769043,-1.1807251,-0.18609619
1601473448014,566,-0.109375,-0.9434204,-0.10821533
1601473448015,567,-0.109375,-0.9434204,-0.10821533
1601473448015,568,-0.23583984,-0.4500122,-0.035217285
1601473448016,569,-0.07128906,-0.6765747,0.12738037
1601473448016,570,0.26757812,-1.0491333,0.18182373
1601473448017,571,0.22827148,-1.232727,0.2164917
1601473448018,572,-0.1430664,-1.5825806,-0.03277588
1601473448018,573,-0.2878418,-1.1851196,-0.3430786
1601473448019,574,-0.0769043,-1.1807251,-0.18609619
1601473448019,575,-0.109375,-0.9434204,-0.10821533
1601473450489,576,0.092285156,-0.9258423,-0.086242676
1601473450489,577,0.092285156,-0.9258423,-0.086242676
1601473450490,578,0.092285156,-0.9258423,-0.086242676
1601473450490,579,0.24438477,-1.0359497,-0.0115356445
1601473450490,580,0.24438477,-1.0359497,-0.0115356445
1601473450490,581,0.28930664,-1.3867798,0.13006592
1601473450490,582,0.24438477,-1.0359497,-0.0115356445
1601473450490,583,-0.5307617,-1.5654907,-0.06011963
1601473450491,584,0.28930664,-1.3867798,0.13006592
1601473450491,585,0.042236328,-1.130188,-0.05279541
1601473450494,586,-0.5307617,-1.5654907,-0.06011963
1601473450495,587,0.28930664,-1.3867798,0.13006592
1601473450498,588,0.042236328,-1.130188,-0.05279541
1601473450498,589,-0.15649414,-0.6045532,-0.028381348
1601473450500,590,-0.5307617,-1.5654907,-0.06011963
1601473450501,591,-0.15649414,-0.6045532,-0.028381348
1601473450501,592,-0.19213867,-0.37042236,-0.07232666
1601473450502,593,-0.19213867,-0.37042236,-0.07232666
1601473450503,594,-0.009033203,-0.5964966,0.12445068
1601473450503,595,-0.009033203,-0.5964966,0.12445068
1601473450503,596,0.042236328,-1.130188,-0.05279541
1601473450504,597,0.34423828,-1.0286255,0.2033081
1601473450504,598,0.34423828,-1.0286255,0.2033081
1601473450504,599,-0.15649414,-0.6045532,-0.028381348
1601473450504,600,0.015625,-1.1113892,0.43255615
1601473450508,601,-0.19213867,-0.37042236,-0.07232666
1601473450512,602,0.015625,-1.1113892,0.43255615
1601473450519,603,0.18579102,-1.9807739,-0.21881104
1601473450519,604,-0.009033203,-0.5964966,0.12445068
1601473450519,605,0.18579102,-1.9807739,-0.21881104
1601473450519,606,-0.60839844,-1.2088013,-0.48443604
1601473450520,607,0.34423828,-1.0286255,0.2033081
1601473450520,608,0.07421875,-1.2561646,-0.16558838
1601473450520,609,-0.60839844,-1.2088013,-0.48443604
1601473450520,610,0.015625,-1.1113892,0.43255615
1601473450520,611,-0.024902344,-0.8167114,-0.09674072
1601473450520,612,0.0637207,-0.89190674,-0.06939697
1601473450520,613,0.18579102,-1.9807739,-0.21881104
1601473450520,614,0.07421875,-1.2561646,-0.16558838
1601473450520,615,0.24853516,-0.9841919,-0.009338379
1601473450520,616,-0.024902344,-0.8167114,-0.09674072
1601473450520,617,0.0637207,-0.89190674,-0.06939697
1601473450520,618,0.24853516,-0.9841919,-0.009338379
1601473450521,619,0.24926758,-1.6323853,0.055358887
1601473450521,620,0.24926758,-1.6323853,0.055358887
1601473450521,621,-0.60839844,-1.2088013,-0.48443604
1601473450521,622,-0.55908203,-1.4673462,-0.08428955
1601473450521,623,-0.55908203,-1.4673462,-0.08428955
1601473450549,624,0.07299805,-1.093811,-0.13336182
1601473450549,625,0.07421875,-1.2561646,-0.16558838
1601473450550,626,0.07299805,-1.093811,-0.13336182
1601473450550,627,-0.18359375,-0.60113525,-0.089416504
1601473450550,628,-0.024902344,-0.8167114,-0.09674072
1601473450551,629,-0.20141602,-0.35235596,-0.09454346
1601473450551,630,-0.09008789,-0.6079712,0.093933105
1601473450552,631,0.0637207,-0.89190674,-0.06939697
1601473450552,632,-0.18359375,-0.60113525,-0.089416504
1601473450557,633,0.37695312,-1.2608032,0.2267456
1601473450557,634,0.24853516,-0.9841919,-0.009338379
1601473450557,635,-0.20141602,-0.35235596,-0.09454346
1601473450558,636,0.013916016,-1.180481,0.1984253
1601473450558,637,0.24926758,-1.6323853,0.055358887
1601473450558,638,-0.09008789,-0.6079712,0.093933105
1601473450558,639,0.061279297,-1.8030396,-0.14630127
1601473450558,640,0.37695312,-1.2608032,0.2267456
1601473450558,641,-0.64819336,-1.2151489,-0.53570557
1601473450558,642,0.03466797,-1.0549927,-0.082336426
1601473450558,643,-0.55908203,-1.4673462,-0.08428955
1601473450559,644,0.013916016,-1.180481,0.1984253
1601473450559,645,-0.11010742,-0.8640747,-0.13189697
1601473450559,646,0.07299805,-1.093811,-0.13336182
1601473450560,647,0.061279297,-1.8030396,-0.14630127
1601473450562,648,0.27026367,-0.97735596,-0.027648926
1601473450563,649,-0.18359375,-0.60113525,-0.089416504
1601473450563,650,-0.64819336,-1.2151489,-0.53570557
1601473450563,651,0.22241211,-0.90875244,-0.16973877
1601473450563,652,-0.20141602,-0.35235596,-0.09454346
1601473450563,653,0.03466797,-1.0549927,-0.082336426
1601473450564,654,-0.11010742,-0.8640747,-0.13189697
1601473450564,655,0.05859375,-1.7053833,0.18792725
1601473450564,656,-0.09008789,-0.6079712,0.093933105
1601473450566,657,0.27026367,-0.97735596,-0.027648926
1601473450567,658,-0.49267578,-1.5095825,-0.09210205
1601473450567,659,0.37695312,-1.2608032,0.2267456
1601473450568,660,0.013916016,-1.180481,0.1984253
1601473450569,661,0.22241211,-0.90875244,-0.16973877
1601473450569,662,0.061279297,-1.8030396,-0.14630127
1601473450569,663,0.05859375,-1.7053833,0.18792725
1601473450571,664,-0.49267578,-1.5095825,-0.09210205
1601473450574,665,-0.64819336,-1.2151489,-0.53570557
1601473450575,666,0.03466797,-1.0549927,-0.082336426
1601473450576,667,-0.11010742,-0.8640747,-0.13189697
1601473450577,668,0.27026367,-0.97735596,-0.027648926
1601473450578,669,0.22241211,-0.90875244,-0.16973877
1601473450578,670,0.05859375,-1.7053833,0.18792725
1601473450579,671,-0.49267578,-1.5095825,-0.09210205
1601473453216,672,-0.0014648438,-1.0127563,-0.023498535
1601473453216,673,-0.0014648438,-1.0127563,-0.023498535
1601473453216,674,-0.0014648438,-1.0127563,-0.023498535
1601473453216,675,-0.234375,-0.50323486,-0.081848145
1601473453219,676,-0.234375,-0.50323486,-0.081848145
1601473453219,677,-0.21826172,-0.38946533,-0.04058838
1601473453219,678,-0.234375,-0.50323486,-0.081848145
1601473453219,679,-0.21826172,-0.38946533,-0.04058838
1601473453221,680,-0.21826172,-0.38946533,-0.04058838
1601473453221,681,0.05908203,-0.7449341,0.17108154
1601473453223,682,0.05908203,-0.7449341,0.17108154
1601473453224,683,0.05908203,-0.7449341,0.17108154
1601473453224,684,0.44458008,-1.2485962,0.355896
1601473453226,685,0.44458008,-1.2485962,0.355896
1601473453227,686,-0.13842773,-1.0491333,-0.051086426
1601473453228,687,0.44458008,-1.2485962,0.355896
1601473453232,688,0.06665039,-1.8967896,0.020446777
1601473453232,689,-0.13842773,-1.0491333,-0.051086426
1601473453232,690,-0.13842773,-1.0491333,-0.051086426
1601473453232,691,-0.61499023,-1.1931763,-0.55010986
1601473453232,692,0.06665039,-1.8967896,0.020446777
1601473453233,693,0.06665039,-1.8967896,0.020446777
1601473453233,694,-0.61499023,-1.1931763,-0.55010986
1601473453235,695,-0.61499023,-1.1931763,-0.55010986
1601473453235,696,0.19140625,-1.0288696,-0.023254395
1601473453236,697,0.009277344,-0.8230591,-0.11651611
1601473453236,698,0.19140625,-1.0288696,-0.023254395
1601473453237,699,0.35766602,-1.0188599,0.081970215
1601473453238,700,0.36816406,-1.520813,0.0848999
1601473453242,701,0.009277344,-0.8230591,-0.11651611
1601473453242,702,0.19140625,-1.0288696,-0.023254395
1601473453242,703,-0.5852051,-1.5545044,-0.13702393
1601473453244,704,0.0625,-1.1751099,-0.089416504
1601473453244,705,0.009277344,-0.8230591,-0.11651611
1601473453245,706,0.35766602,-1.0188599,0.081970215
1601473453248,707,0.35766602,-1.0188599,0.081970215
1601473453248,708,0.36816406,-1.520813,0.0848999
1601473453248,709,-0.24951172,-0.62286377,-0.047424316
1601473453250,710,-0.5852051,-1.5545044,-0.13702393
1601473453251,711,-0.21459961,-0.36749268,-0.042541504
1601473453252,712,0.36816406,-1.520813,0.0848999
1601473453253,713,0.0625,-1.1751099,-0.089416504
1601473453253,714,0.0024414062,-0.59698486,0.053649902
1601473453254,715,-0.5852051,-1.5545044,-0.13702393
1601473453255,716,0.34814453,-1.0518188,0.12347412
1601473453256,717,0.0625,-1.1751099,-0.089416504
1601473453256,718,-0.24951172,-0.62286377,-0.047424316
1601473453257,719,0.15820312,-1.1660767,0.41619873
1601473453258,720,-0.24951172,-0.62286377,-0.047424316
1601473453258,721,-0.05444336,-1.9937134,-0.16412354
1601473453258,722,-0.21459961,-0.36749268,-0.042541504
1601473453259,723,-0.21459961,-0.36749268,-0.042541504
1601473453260,724,-0.59716797,-1.1043091,-0.47027588
1601473453262,725,0.0024414062,-0.59698486,0.053649902
1601473453262,726,0.122802734,-1.223938,-0.09161377
1601473453262,727,0.0024414062,-0.59698486,0.053649902
1601473453264,728,0.34814453,-1.0518188,0.12347412
1601473453266,729,0.34814453,-1.0518188,0.12347412
1601473453266,730,0.022216797,-0.8501587,-0.08306885
1601473453266,731,0.1862793,-0.97003174,0.027038574
1601473453267,732,0.15820312,-1.1660767,0.41619873
1601473453267,733,0.15820312,-1.1660767,0.41619873
1601473453271,734,-0.05444336,-1.9937134,-0.16412354
1601473453272,735,0.33081055,-1.0020142,-0.05328369
1601473453272,736,-0.05444336,-1.9937134,-0.16412354
1601473453272,737,-0.59716797,-1.1043091,-0.47027588
1601473453272,738,-0.59716797,-1.1043091,-0.47027588
1601473453272,739,-0.22314453,-1.6001587,0.109558105
1601473453272,740,0.122802734,-1.223938,-0.09161377
1601473453272,741,0.122802734,-1.223938,-0.09161377
1601473453273,742,0.022216797,-0.8501587,-0.08306885
1601473453273,743,-0.32983398,-1.4241333,-0.14263916
1601473453273,744,0.022216797,-0.8501587,-0.08306885
1601473453276,745,-0.026367188,-0.9768677,0.007019043
1601473453276,746,0.1862793,-0.97003174,0.027038574
1601473453277,747,-0.1743164,-0.50250244,-0.07598877
1601473453277,748,-0.122558594,-0.5076294,0.0138549805
1601473453277,749,0.18066406,-0.8123169,0.07293701
1601473453289,750,0.16210938,-1.116272,0.246521
1601473453290,751,0.33081055,-1.0020142,-0.05328369
1601473453290,752,0.1862793,-0.97003174,0.027038574
1601473453293,753,-0.22314453,-1.6001587,0.109558105
1601473453293,754,0.33081055,-1.0020142,-0.05328369
1601473453295,755,-0.22314453,-1.6001587,0.109558105
1601473453297,756,-0.32983398,-1.4241333,-0.14263916
1601473453298,757,-0.32983398,-1.4241333,-0.14263916
1601473453298,758,-0.026367188,-0.9768677,0.007019043
1601473453299,759,-0.026367188,-0.9768677,0.007019043
1601473453300,760,-0.1743164,-0.50250244,-0.07598877
1601473453301,761,-0.1743164,-0.50250244,-0.07598877
1601473453301,762,-0.122558594,-0.5076294,0.0138549805
1601473453302,763,-0.122558594,-0.5076294,0.0138549805
1601473453303,764,0.18066406,-0.8123169,0.07293701
1601473453304,765,0.18066406,-0.8123169,0.07293701
1601473453305,766,0.16210938,-1.116272,0.246521
1601473453306,767,0.16210938,-1.116272,0.246521
1601473455752,768,-0.0146484375,-1.0142212,0.2831421
1601473455752,769,-0.0146484375,-1.0142212,0.2831421
1601473455755,770,-0.0146484375,-1.0142212,0.2831421
1601473455755,771,-0.04736328,-1.611145,-0.31304932
1601473455757,772,-0.04736328,-1.611145,-0.31304932
1601473455760,773,-0.29882812,-1.4043579,-0.24029541
1601473455763,774,-0.29882812,-1.4043579,-0.24029541
1601473455763,775,-0.13549805,-1.0095825,-0.253479
1601473455763,776,-0.04736328,-1.611145,-0.31304932
1601473455765,777,-0.13549805,-1.0095825,-0.253479
1601473455769,778,0.06274414,-0.9404907,-0.028381348
1601473455770,779,-0.29882812,-1.4043579,-0.24029541
1601473455770,780,0.06274414,-0.9404907,-0.028381348
1601473455770,781,0.2446289,-0.9402466,-0.046203613
1601473455774,782,-0.13549805,-1.0095825,-0.253479
1601473455774,783,0.2446289,-0.9402466,-0.046203613
1601473455774,784,0.3798828,-1.2466431,0.19329834
1601473455775,785,0.06274414,-0.9404907,-0.028381348
1601473455777,786,0.3798828,-1.2466431,0.19329834
1601473455778,787,-0.4855957,-1.6463013,-0.22052002
1601473455784,788,0.2446289,-0.9402466,-0.046203613
1601473455784,789,-0.4855957,-1.6463013,-0.22052002
1601473455784,790,-0.122802734,-1.3023071,-0.019104004
1601473455785,791,-0.08496094,-0.79156494,0.002380371
1601473455785,792,0.3798828,-1.2466431,0.19329834
1601473455787,793,-0.122802734,-1.3023071,-0.019104004
1601473455788,794,-0.24682617,-0.4541626,-0.03692627
1601473455788,795,-0.4855957,-1.6463013,-0.22052002
1601473455790,796,-0.08496094,-0.79156494,0.002380371
1601473455790,797,-0.122802734,-1.3023071,-0.019104004
1601473455790,798,-0.08496094,-0.79156494,0.002380371
1601473455790,799,-0.24682617,-0.4541626,-0.03692627
1601473455790,800,-0.24682617,-0.4541626,-0.03692627
1601473455791,801,-0.07714844,-0.51031494,0.06512451
1601473455791,802,-0.07714844,-0.51031494,0.06512451
1601473455793,803,0.23242188,-0.9048462,0.039733887
1601473455794,804,0.23242188,-0.9048462,0.039733887
1601473455794,805,-0.07714844,-0.51031494,0.06512451
1601473455794,806,0.27001953,-1.2051392,0.21844482
1601473455796,807,0.27001953,-1.2051392,0.21844482
1601473455797,808,-0.071777344,-1.3867798,0.12957764
1601473455797,809,0.23242188,-0.9048462,0.039733887
1601473455797,810,0.27001953,-1.2051392,0.21844482
1601473455799,811,-0.071777344,-1.3867798,0.12957764
1601473455799,812,-0.14038086,-1.585022,-0.10479736
1601473455800,813,-0.071777344,-1.3867798,0.12957764
1601473455800,814,-0.14038086,-1.585022,-0.10479736
1601473455802,815,-0.3720703,-1.0942993,-0.4434204
1601473455802,816,-0.14038086,-1.585022,-0.10479736
1601473455802,817,-0.010009766,-1.0325317,-0.09844971
1601473455803,818,-0.3720703,-1.0942993,-0.4434204
1601473455807,819,-0.3720703,-1.0942993,-0.4434204
1601473455807,820,-0.0012207031,-0.91900635,-0.14678955
1601473455807,821,-0.010009766,-1.0325317,-0.09844971
1601473455807,822,0.10839844,-0.986145,-0.093322754
1601473455807,823,-0.010009766,-1.0325317,-0.09844971
1601473455807,824,0.05053711,-1.0120239,-0.21026611
1601473455807,825,-0.0012207031,-0.91900635,-0.14678955
1601473455810,826,-0.0012207031,-0.91900635,-0.14678955
1601473455810,827,0.12524414,-1.4646606,0.047790527
1601473455810,828,0.10839844,-0.986145,-0.093322754
1601473455810,829,0.10839844,-0.986145,-0.093322754
1601473455812,830,0.05053711,-1.0120239,-0.21026611
1601473455812,831,0.05053711,-1.0120239,-0.21026611
1601473455812,832,0.12524414,-1.4646606,0.047790527
1601473455813,833,-0.35229492,-1.380188,-0.08502197
1601473455814,834,0.12524414,-1.4646606,0.047790527
1601473455816,835,-0.11816406,-1.18927,-0.06817627
1601473455816,836,-0.35229492,-1.380188,-0.08502197
1601473455816,837,-0.1381836,-0.788147,-0.0256958
1601473455816,838,-0.11816406,-1.18927,-0.06817627
1601473455816,839,-0.1381836,-0.788147,-0.0256958
1601473455819,840,-0.21582031,-0.47662354,-0.07940674
1601473455819,841,-0.21582031,-0.47662354,-0.07940674
1601473455820,842,0.011474609,-0.60235596,0.054870605
1601473455820,843,0.011474609,-0.60235596,0.054870605
1601473455820,844,-0.35229492,-1.380188,-0.08502197
1601473455820,845,0.18676758,-0.8843384,0.09197998
1601473455821,846,0.2006836,-1.1372681,0.30462646
1601473455822,847,0.18676758,-0.8843384,0.09197998
1601473455822,848,-0.08544922,-1.7371216,0.08416748
1601473455823,849,-0.11816406,-1.18927,-0.06817627
1601473455824,850,-0.2614746,-1.1611938,-0.36358643
1601473455824,851,0.2006836,-1.1372681,0.30462646
1601473455826,852,-0.052490234,-1.2505493,-0.24859619
1601473455826,853,-0.08544922,-1.7371216,0.08416748
1601473455826,854,-0.1381836,-0.788147,-0.0256958
1601473455827,855,-0.21582031,-0.47662354,-0.07940674
1601473455827,856,-0.2614746,-1.1611938,-0.36358643
1601473455828,857,0.011474609,-0.60235596,0.054870605
1601473455829,858,-0.052490234,-1.2505493,-0.24859619
1601473455829,859,0.18676758,-0.8843384,0.09197998
1601473455830,860,0.2006836,-1.1372681,0.30462646
1601473455831,861,-0.08544922,-1.7371216,0.08416748
1601473455832,862,-0.2614746,-1.1611938,-0.36358643
1601473455833,863,-0.052490234,-1.2505493,-0.24859619
1601473458288,864,-0.08666992,-0.94000244,-0.09112549
1601473458288,865,-0.08666992,-0.94000244,-0.09112549
1601473458292,866,0.0078125,-0.93414307,-0.08746338
1601473458293,867,0.1159668,-1.0083618,-0.14239502
1601473458293,868,0.0078125,-0.93414307,-0.08746338
1601473458294,869,-0.08666992,-0.94000244,-0.09112549
1601473458298,870,0.1159668,-1.0083618,-0.14239502
1601473458298,871,0.072753906,-0.9985962,-0.1453247
1601473458298,872,0.0078125,-0.93414307,-0.08746338
1601473458299,873,0.23608398,-1.4224243,0.018737793
1601473458302,874,0.1159668,-1.0083618,-0.14239502
1601473458303,875,-0.57666016,-1.4749146,-0.039855957
1601473458303,876,0.072753906,-0.9985962,-0.1453247
1601473458309,877,-0.025390625,-1.1817017,-0.06085205
1601473458309,878,0.072753906,-0.9985962,-0.1453247
1601473458309,879,-0.14135742,-0.7974243,-0.040100098
1601473458309,880,0.23608398,-1.4224243,0.018737793
1601473458310,881,-0.23071289,-0.5733032,0.020690918
1601473458310,882,0.23608398,-1.4224243,0.018737793
1601473458310,883,-0.57666016,-1.4749146,-0.039855957
1601473458311,884,-0.032958984,-0.5401001,0.018005371
1601473458313,885,-0.025390625,-1.1817017,-0.06085205
1601473458314,886,0.27246094,-0.8442993,0.07122803
1601473458316,887,-0.57666016,-1.4749146,-0.039855957
1601473458318,888,0.18041992,-1.1143188,0.31585693
1601473458318,889,-0.14135742,-0.7974243,-0.040100098
1601473458319,890,-0.025390625,-1.1817017,-0.06085205
1601473458319,891,-0.08569336,-1.0523071,-0.039123535
1601473458323,892,-0.23071289,-0.5733032,0.020690918
1601473458323,893,-0.14135742,-0.7974243,-0.040100098
1601473458323,894,0.08691406,-1.9944458,0.05706787
1601473458323,895,-0.032958984,-0.5401001,0.018005371
1601473458326,896,-0.23071289,-0.5733032,0.020690918
1601473458327,897,-0.70214844,-1.0449829,-0.60162354
1601473458327,898,0.27246094,-0.8442993,0.07122803
1601473458329,899,0.18041992,-1.1143188,0.31585693
1601473458333,900,-0.032958984,-0.5401001,0.018005371
1601473458333,901,-0.08569336,-1.0523071,-0.039123535
1601473458334,902,0.08691406,-1.9944458,0.05706787
1601473458337,903,0.16113281,-1.0401001,-0.019836426
1601473458337,904,-0.70214844,-1.0449829,-0.60162354
1601473458337,905,0.27246094,-0.8442993,0.07122803
1601473458339,906,-0.104003906,-0.8027954,-0.14874268
1601473458339,907,0.16113281,-1.0401001,-0.019836426
1601473458339,908,0.25976562,-0.97613525,-0.039123535
1601473458339,909,0.18041992,-1.1143188,0.31585693
1601473458342,910,-0.104003906,-0.8027954,-0.14874268
1601473458342,911,0.3959961,-1.4658813,0.06488037
1601473458343,912,-0.08569336,-1.0523071,-0.039123535
1601473458343,913,0.08691406,-1.9944458,0.05706787
1601473458344,914,-0.4741211,-1.6399536,-0.14874268
1601473458346,915,-0.70214844,-1.0449829,-0.60162354
1601473458351,916,0.25976562,-0.97613525,-0.039123535
1601473458351,917,0.16113281,-1.0401001,-0.019836426
1601473458353,918,0.3959961,-1.4658813,0.06488037
1601473458353,919,-0.12841797,-1.2747192,-0.109436035
1601473458353,920,-0.104003906,-0.8027954,-0.14874268
1601473458355,921,-0.16235352,-0.7576294,-0.10284424
1601473458355,922,0.25976562,-0.97613525,-0.039123535
1601473458356,923,-0.4741211,-1.6399536,-0.14874268
1601473458356,924,0.3959961,-1.4658813,0.06488037
1601473458359,925,-0.31298828,-0.30352783,-0.10479736
1601473458360,926,-0.12841797,-1.2747192,-0.109436035
1601473458360,927,-0.4741211,-1.6399536,-0.14874268
1601473458360,928,-0.067871094,-0.55352783,0.11883545
1601473458360,929,-0.16235352,-0.7576294,-0.10284424
1601473458360,930,0.34960938,-1.2600708,0.27093506
1601473458360,931,-0.12841797,-1.2747192,-0.109436035
1601473458362,932,-0.10131836,-1.0513306,0.25213623
1601473458362,933,-0.16235352,-0.7576294,-0.10284424
1601473458362,934,0.023925781,-1.8289185,-0.09967041
1601473458362,935,-0.31298828,-0.30352783,-0.10479736
1601473458363,936,-0.40014648,-1.0393677,-0.49493408
1601473458363,937,-0.31298828,-0.30352783,-0.10479736
1601473458364,938,0.041503906,-1.1443481,-0.116760254
1601473458364,939,-0.067871094,-0.55352783,0.11883545
1601473458365,940,-0.067871094,-0.55352783,0.11883545
1601473458367,941,-0.05078125,-0.89630127,-0.07110596
1601473458367,942,0.34960938,-1.2600708,0.27093506
1601473458367,943,0.34960938,-1.2600708,0.27093506
1601473458368,944,-0.10131836,-1.0513306,0.25213623
1601473458370,945,0.12231445,-0.925354,-0.07232666
1601473458370,946,0.023925781,-1.8289185,-0.09967041
1601473458372,947,-0.10131836,-1.0513306,0.25213623
1601473458372,948,0.16357422,-1.0027466,-0.144104
1601473458372,949,-0.40014648,-1.0393677,-0.49493408
1601473458373,950,0.023925781,-1.8289185,-0.09967041
1601473458374,951,0.041503906,-1.1443481,-0.116760254
1601473458375,952,-0.40014648,-1.0393677,-0.49493408
1601473458376,953,0.041503906,-1.1443481,-0.116760254
1601473458378,954,-0.05078125,-0.89630127,-0.07110596
1601473458378,955,-0.05078125,-0.89630127,-0.07110596
1601473458378,956,0.12231445,-0.925354,-0.07232666
1601473458378,957,0.16357422,-1.0027466,-0.144104
1601473458379,958,0.12231445,-0.925354,-0.07232666
1601473458381,959,0.16357422,-1.0027466,-0.144104
1601473460818,960,0.26123047,-1.3748169,0.0067749023
1601473460820,961,0.26123047,-1.3748169,0.0067749023
1601473460822,962,0.26123047,-1.3748169,0.0067749023
1601473460824,963,-0.43554688,-1.5496216,0.007019043
1601473460824,964,-0.43554688,-1.5496216,0.007019043
1601473460826,965,-0.005859375,-1.1846313,-0.24884033
1601473460829,966,-0.005859375,-1.1846313,-0.24884033
1601473460830,967,-0.43554688,-1.5496216,0.007019043
1601473460831,968,-0.20263672,-0.7107544,-0.094055176
1601473460840,969,-0.005859375,-1.1846313,-0.24884033
1601473460840,970,-0.26904297,-0.46710205,-0.050842285
1601473460840,971,-0.20263672,-0.7107544,-0.094055176
1601473460840,972,-0.059326172,-0.74835205,0.18060303
1601473460841,973,0.29003906,-1.1343384,0.117370605
1601473460841,974,0.099609375,-0.99005127,0.184021
1601473460841,975,-0.12036133,-1.6189575,-0.042053223
1601473460841,976,-0.18041992,-1.2888794,-0.37799072
1601473460841,977,-0.2541504,-1.1526489,-0.1675415
1601473460841,978,-0.20263672,-0.7107544,-0.094055176
1601473460841,979,0.05444336,-0.847229,-0.1453247
1601473460841,980,-0.26904297,-0.46710205,-0.050842285
1601473460841,981,0.10180664,-0.92681885,-0.1362915
1601473460846,982,0.16699219,-1.0169067,-0.09136963
1601473460846,983,-0.059326172,-0.74835205,0.18060303
1601473460846,984,0.265625,-1.1531372,0.13153076
1601473460848,985,0.29003906,-1.1343384,0.117370605
1601473460849,986,-0.3022461,-1.8704224,-0.25738525
1601473460850,987,0.099609375,-0.99005127,0.184021
1601473460852,988,-0.26904297,-0.46710205,-0.050842285
1601473460852,989,-0.15600586,-1.3403931,0.034362793
1601473460853,990,-0.12036133,-1.6189575,-0.042053223
1601473460853,991,-0.059326172,-0.74835205,0.18060303
1601473460854,992,-0.18041992,-1.2888794,-0.37799072
1601473460855,993,0.29003906,-1.1343384,0.117370605
1601473460855,994,-0.2541504,-1.1526489,-0.1675415
1601473460856,995,0.099609375,-0.99005127,0.184021
1601473460856,996,-0.12036133,-1.6189575,-0.042053223
1601473460857,997,-0.18041992,-1.2888794,-0.37799072
1601473460858,998,-0.19482422,-0.7022095,-0.016418457
1601473460861,999,0.05444336,-0.847229,-0.1453247
1601473460861,1000,-0.2541504,-1.1526489,-0.1675415
1601473460861,1001,-0.328125,-0.28179932,-0.14141846
1601473460862,1002,0.10180664,-0.92681885,-0.1362915
1601473460862,1003,0.05444336,-0.847229,-0.1453247
1601473460864,1004,0.16699219,-1.0169067,-0.09136963
1601473460865,1005,-0.13671875,-0.40509033,-0.011291504
1601473460865,1006,0.10180664,-0.92681885,-0.1362915
1601473460865,1007,0.48657227,-1.3482056,0.2670288
1601473460866,1008,0.265625,-1.1531372,0.13153076
1601473460867,1009,-0.007080078,-1.0471802,0.3685913
1601473460869,1010,0.16699219,-1.0169067,-0.09136963
1601473460869,1011,-0.3022461,-1.8704224,-0.25738525
1601473460869,1012,0.057373047,-1.8775024,-0.11920166
1601473460872,1013,-0.42456055,-1.1279907,-0.40631104
1601473460873,1014,-0.15600586,-1.3403931,0.034362793
1601473460873,1015,0.265625,-1.1531372,0.13153076
1601473460873,1016,0.049804688,-1.130188,-0.144104
1601473460873,1017,-0.19482422,-0.7022095,-0.016418457
1601473460873,1018,-0.037597656,-0.89068604,-0.12042236
1601473460873,1019,-0.328125,-0.28179932,-0.14141846
1601473460878,1020,-0.3022461,-1.8704224,-0.25738525
1601473460878,1021,0.118896484,-0.9780884,-0.08843994
1601473460878,1022,-0.13671875,-0.40509033,-0.011291504
1601473460878,1023,-0.15600586,-1.3403931,0.034362793
1601473460878,1024,0.48657227,-1.3482056,0.2670288
1601473460878,1025,-0.19482422,-0.7022095,-0.016418457
1601473460878,1026,0.19311523,-0.9783325,0.036071777
1601473460878,1027,-0.007080078,-1.0471802,0.3685913
1601473460881,1028,-0.328125,-0.28179932,-0.14141846
1601473460881,1029,0.4230957,-1.5266724,0.089538574
1601473460881,1030,-0.4951172,-1.6472778,-0.21270752
1601473460881,1031,0.057373047,-1.8775024,-0.11920166
1601473460881,1032,-0.13671875,-0.40509033,-0.011291504
1601473460882,1033,0.0026855469,-1.1624146,-0.09259033
1601473460883,1034,-0.25927734,-0.51226807,-0.058654785
1601473460883,1035,0.48657227,-1.3482056,0.2670288
1601473460884,1036,-0.42456055,-1.1279907,-0.40631104
1601473460884,1037,-0.007080078,-1.0471802,0.3685913
1601473460885,1038,0.049804688,-1.130188,-0.144104
1601473460886,1039,0.057373047,-1.8775024,-0.11920166
1601473460887,1040,-0.037597656,-0.89068604,-0.12042236
1601473460890,1041,0.118896484,-0.9780884,-0.08843994
1601473460890,1042,-0.42456055,-1.1279907,-0.40631104
1601473460890,1043,0.19311523,-0.9783325,0.036071777
1601473460890,1044,0.049804688,-1.130188,-0.144104
1601473460891,1045,-0.037597656,-0.89068604,-0.12042236
1601473460893,1046,0.4230957,-1.5266724,0.089538574
1601473460894,1047,0.118896484,-0.9780884,-0.08843994
1601473460894,1048,-0.4951172,-1.6472778,-0.21270752
1601473460895,1049,0.0026855469,-1.1624146,-0.09259033
1601473460895,1050,-0.25927734,-0.51226807,-0.058654785
1601473460897,1051,0.19311523,-0.9783325,0.036071777
1601473460899,1052,0.4230957,-1.5266724,0.089538574
1601473460899,1053,-0.4951172,-1.6472778,-0.21270752
1601473460902,1054,0.0026855469,-1.1624146,-0.09259033
1601473460902,1055,-0.25927734,-0.51226807,-0.058654785
1601473463555,1056,-0.25390625,-0.45147705,-0.0076293945
1601473463556,1057,0.13891602,-0.7178345,0.101745605
1601473463563,1058,0.26342773,-1.1626587,0.25531006
1601473463564,1059,-0.25390625,-0.45147705,-0.0076293945
1601473463568,1060,-0.25390625,-0.45147705,-0.0076293945
1601473463568,1061,-0.006591797,-1.3511353,0.027526855
1601473463569,1062,-0.064941406,-1.5542603,-0.019836426
1601473463574,1063,0.13891602,-0.7178345,0.101745605
1601473463575,1064,0.13891602,-0.7178345,0.101745605
1601473463575,1065,-0.31176758,-1.0686646,-0.46929932
1601473463585,1066,0.26342773,-1.1626587,0.25531006
1601473463585,1067,9.765625E-4,-1.020813,-0.06866455
1601473463585,1068,0.26342773,-1.1626587,0.25531006
1601473463585,1069,-0.006591797,-1.3511353,0.027526855
1601473463588,1070,-0.064941406,-1.5542603,-0.019836426
1601473463588,1071,-0.006591797,-1.3511353,0.027526855
1601473463589,1072,-0.31176758,-1.0686646,-0.46929932
1601473463591,1073,-0.104003906,-0.8887329,-0.09161377
1601473463596,1074,-0.064941406,-1.5542603,-0.019836426
1601473463596,1075,9.765625E-4,-1.020813,-0.06866455
1601473463596,1076,0.2133789,-0.9612427,-0.039611816
1601473463596,1077,-0.31176758,-1.0686646,-0.46929932
1601473463599,1078,0.3095703,-1.1047974,-0.0095825195
1601473463605,1079,-0.15112305,-1.8484497,-0.101135254
1601473463605,1080,9.765625E-4,-1.020813,-0.06866455
1601473463606,1081,-0.104003906,-0.8887329,-0.09161377
1601473463612,1082,-0.2565918,-1.3684692,-0.08746338
1601473463613,1083,-0.104003906,-0.8887329,-0.09161377
1601473463614,1084,0.2133789,-0.9612427,-0.039611816
1601473463614,1085,-0.18554688,-0.8237915,-0.12017822
1601473463615,1086,-0.3635254,-0.32330322,-0.11431885
1601473463620,1087,0.3095703,-1.1047974,-0.0095825195
1601473463620,1088,-0.15112305,-1.8484497,-0.101135254
1601473463620,1089,-0.2565918,-1.3684692,-0.08746338
1601473463620,1090,0.2133789,-0.9612427,-0.039611816
1601473463620,1091,-0.18554688,-0.8237915,-0.12017822
1601473463620,1092,0.3095703,-1.1047974,-0.0095825195
1601473463621,1093,-0.3635254,-0.32330322,-0.11431885
1601473463621,1094,-0.15112305,-1.8484497,-0.101135254
1601473463621,1095,-0.072021484,-0.6018677,0.113220215
1601473463628,1096,-0.2565918,-1.3684692,-0.08746338
1601473463628,1097,0.29052734,-1.109436,0.2543335
1601473463628,1098,-0.18554688,-0.8237915,-0.12017822
1601473463628,1099,0.05029297,-0.9834595,0.13104248
1601473463628,1100,-0.3635254,-0.32330322,-0.11431885
1601473463628,1101,-0.064208984,-1.8191528,-0.11578369
1601473463628,1102,-0.072021484,-0.6018677,0.113220215
1601473463629,1103,-0.23022461,-1.0371704,-0.13946533
1601473463629,1104,0.29052734,-1.109436,0.2543335
1601473463629,1105,-0.1159668,-1.2627563,-0.2119751
1601473463629,1106,0.05029297,-0.9834595,0.13104248
1601473463629,1107,0.029052734,-0.8596802,-0.11578369
1601473463629,1108,-0.064208984,-1.8191528,-0.11578369
1601473463630,1109,0.01953125,-0.8233032,-0.175354
1601473463630,1110,-0.23022461,-1.0371704,-0.13946533
1601473463630,1111,0.11352539,-1.0569458,-0.0154418945
1601473463630,1112,-0.1159668,-1.2627563,-0.2119751
1601473463630,1113,0.27783203,-1.3806763,-0.078430176
1601473463630,1114,0.029052734,-0.8596802,-0.11578369
1601473463630,1115,-0.40112305,-1.6956177,-0.04815674
1601473463631,1116,0.01953125,-0.8233032,-0.175354
1601473463631,1117,0.01586914,-1.310852,-0.10235596
1601473463631,1118,0.11352539,-1.0569458,-0.0154418945
1601473463631,1119,-0.27734375,-0.7654419,-0.113342285
1601473463631,1120,0.27783203,-1.3806763,-0.078430176
1601473463631,1121,-0.32348633,-0.3652954,-0.14385986
1601473463631,1122,-0.40112305,-1.6956177,-0.04815674
1601473463631,1123,-0.1694336,-0.5742798,-0.021057129
1601473463631,1124,0.01586914,-1.310852,-0.10235596
1601473463631,1125,0.51538086,-1.1130981,0.3168335
1601473463631,1126,-0.27734375,-0.7654419,-0.113342285
1601473463631,1127,-0.005126953,-1.2588501,0.023132324
1601473463631,1128,-0.32348633,-0.3652954,-0.14385986
1601473463632,1129,-0.13012695,-1.670227,0.008972168
1601473463632,1130,-0.1694336,-0.5742798,-0.021057129
1601473463633,1131,-0.072021484,-0.6018677,0.113220215
1601473463633,1132,0.29052734,-1.109436,0.2543335
1601473463633,1133,0.51538086,-1.1130981,0.3168335
1601473463634,1134,0.05029297,-0.9834595,0.13104248
1601473463634,1135,-0.005126953,-1.2588501,0.023132324
1601473463634,1136,-0.064208984,-1.8191528,-0.11578369
1601473463636,1137,-0.13012695,-1.670227,0.008972168
1601473463636,1138,-0.23022461,-1.0371704,-0.13946533
1601473463636,1139,-0.1159668,-1.2627563,-0.2119751
1601473463637,1140,0.029052734,-0.8596802,-0.11578369
1601473463637,1141,0.01953125,-0.8233032,-0.175354
1601473463638,1142,0.11352539,-1.0569458,-0.0154418945
1601473463638,1143,0.27783203,-1.3806763,-0.078430176
1601473463640,1144,-0.40112305,-1.6956177,-0.04815674
1601473463640,1145,0.01586914,-1.310852,-0.10235596
1601473463640,1146,-0.27734375,-0.7654419,-0.113342285
1601473463640,1147,-0.32348633,-0.3652954,-0.14385986
1601473463641,1148,-0.1694336,-0.5742798,-0.021057129
1601473463643,1149,0.51538086,-1.1130981,0.3168335
1601473463643,1150,-0.005126953,-1.2588501,0.023132324
1601473463644,1151,-0.13012695,-1.670227,0.008972168
