# Sensor position: Wrist
# Sensor side: Right
# Activity type: Walking at normal speed
# Activity code: 1
# Subject id: s2124639
timestamp,seq,accel_x,accel_y,accel_z
1603812984204,0,0.9970703,0.0692749,0.21478271
1603812984282,1,1.3164062,0.11932373,0.2868042
1603812984361,2,0.98217773,0.17059326,0.30828857
1603812984440,3,0.89282227,0.054138184,0.23138428
1603812984519,4,0.68530273,0.1408081,0.16497803
1603812984597,5,0.68725586,0.21234131,0.17181396
1603812984676,6,0.82958984,0.11956787,0.24822998
1603812984755,7,0.8937988,0.03338623,0.34490967
1603812984834,8,1.0754395,0.39520264,0.32147217
1603812984912,9,1.2878418,0.4545288,0.3336792
1603812984991,10,1.0939941,0.32537842,0.16204834
1603812985070,11,1.0378418,0.10784912,0.10418701
1603812985149,12,1.0146484,0.09075928,-0.014953613
1603812985227,13,0.89086914,0.11541748,-0.09869385
1603812985306,14,0.79248047,0.15374756,-0.04058838
1603812985385,15,0.8964844,0.09173584,-0.019104004
1603812985464,16,1.0380859,0.0446167,0.0033569336
1603812985542,17,1.0390625,0.0211792,0.13616943
1603812985621,18,0.8310547,-0.081848145,0.25042725
1603812985700,19,0.8664551,-0.062805176,0.215271
1603812985779,20,0.7988281,0.18353271,0.32611084
1603812985857,21,0.91625977,0.21502686,0.39031982
1603812985936,22,0.8312988,0.19036865,0.37176514
1603812986015,23,0.94384766,0.28094482,0.34661865
1603812986094,24,1.3029785,0.30267334,0.28094482
1603812986172,25,1.0678711,0.4179077,0.020690918
1603812986251,26,1.1037598,0.105163574,-0.18511963
1603812986330,27,0.9802246,0.03729248,-0.2888794
1603812986409,28,0.9226074,0.1564331,-0.31988525
1603812986487,29,0.8479004,0.20159912,-0.24102783
1603812986566,30,0.8757324,0.0053100586,-0.23101807
1603812986645,31,1.2331543,-0.05303955,-0.13604736
1603812986724,32,0.9736328,-0.018615723,0.0927124
1603812986802,33,0.94311523,-0.10821533,0.09197998
1603812986881,34,0.7092285,-0.022033691,0.07562256
1603812986960,35,0.78149414,0.17108154,0.15032959
1603812987039,36,0.967041,0.12786865,0.19378662
1603812987117,37,1.043457,0.10809326,0.07562256
1603812987196,38,1.0795898,0.08001709,0.05609131
1603812987275,39,1.2504883,-0.15655518,-0.1194458
1603812987354,40,0.99316406,-0.085510254,-0.13409424
1603812987432,41,0.7902832,-0.15386963,-0.2078247
1603812987511,42,0.7380371,0.28826904,-0.49346924
1603812987590,43,0.9016113,0.0602417,-0.18609619
1603812987669,44,0.9724121,-0.1741333,-0.07305908
1603812987747,45,1.0895996,0.06781006,-0.10040283
1603812987826,46,1.4174805,0.19622803,-0.05670166
1603812987905,47,0.6994629,-0.35455322,-0.13287354
1603812987984,48,0.7739258,-0.0725708,-0.12506104
1603812988062,49,0.7583008,0.0040893555,-0.031555176
1603812988141,50,0.8996582,0.0914917,0.1906128
1603812988220,51,0.8840332,0.11468506,0.26727295
1603812988299,52,0.8508301,0.09173584,0.20941162
1603812988377,53,1.0349121,0.30511475,0.33050537
1603812988456,54,1.2844238,0.44256592,0.36712646
1603812988535,55,1.1157227,0.113708496,0.1383667
1603812988614,56,1.230957,-0.046936035,0.053894043
1603812988692,57,1.0788574,0.05609131,0.04852295
1603812988771,58,0.8022461,0.053649902,-0.049621582
1603812988850,59,0.7453613,0.013122559,-0.034240723
1603812988929,60,1.0292969,0.025817871,-0.08917236
1603812989007,61,0.9382324,0.081726074,0.070007324
1603812989086,62,1.1323242,-0.025939941,0.011169434
1603812989165,63,1.1086426,0.046081543,0.03338623
1603812989244,64,1.1791992,0.4064331,0.11907959
1603812989322,65,1.0910645,0.62249756,0.33807373
1603812989401,66,1.0627441,0.45477295,0.5055542
1603812989480,67,1.1384277,0.25482178,0.40179443
1603812989559,68,1.3334961,0.27459717,0.33099365
1603812989637,69,1.5126953,0.10296631,0.25286865
1603812989716,70,1.2368164,-0.04058838,0.029724121
1603812989795,71,0.8322754,-0.05645752,-0.0134887695
1603812989874,72,0.5612793,-0.0012817383,-0.049621582
1603812989952,73,0.67285156,0.06732178,-0.06524658
1603812990031,74,1.1706543,0.19207764,-0.03765869
1603812990110,75,1.2958984,0.23773193,0.17840576
1603812990189,76,1.2700195,-0.10748291,0.06414795
1603812990267,77,0.9104004,0.15106201,0.22454834
1603812990346,78,0.8432617,0.3180542,0.20281982
1603812990425,79,0.8796387,0.4196167,0.45526123
1603812990504,80,0.9169922,0.3336792,0.62713623
1603812990582,81,1.2841797,0.12030029,0.4249878
1603812990661,82,1.2021484,0.16107178,0.32977295
1603812990740,83,1.4387207,0.047058105,0.28363037
1603812990819,84,1.1791992,-0.1572876,0.03265381
1603812990897,85,0.7998047,-0.19122314,-0.011779785
1603812990976,86,0.65893555,-0.06378174,-0.03302002
1603812991055,87,0.9614258,0.07196045,-0.18585205
1603812991134,88,1.1450195,0.31951904,-5.493164E-4
1603812991212,89,1.3952637,0.08319092,0.025817871
1603812991291,90,1.0644531,-0.06817627,0.15008545
1603812991370,91,0.72265625,0.19085693,0.2946167
1603812991449,92,0.67700195,0.41253662,0.4389038
1603812991527,93,0.9152832,0.2699585,0.6090698
1603812991606,94,1.3156738,0.011169434,0.49139404
1603812991685,95,1.5737305,0.101989746,0.2741089
1603812991764,96,1.5683594,0.13690186,0.31536865
1603812991842,97,1.3884277,-0.06549072,0.07220459
1603812991921,98,0.9794922,-0.11480713,-0.046203613
1603812992000,99,0.6179199,-0.024475098,-0.05987549
1603812992079,100,0.54418945,0.01361084,-0.09527588
1603812992157,101,0.83374023,0.16473389,-0.0095825195
1603812992236,102,1.2478027,0.35906982,0.22088623
1603812992315,103,1.3198242,0.07293701,0.27581787
1603812992394,104,1.0458984,-0.07647705,0.369812
1603812992472,105,0.86157227,0.28851318,0.4935913
1603812992551,106,0.7475586,0.4977417,0.78411865
1603812992630,107,1.0441895,0.1930542,0.732605
1603812992709,108,1.2055664,-0.03253174,0.42547607
1603812992787,109,1.2556152,0.07879639,0.3444214
1603812992866,110,1.2648926,0.16473389,0.14300537
1603812992945,111,1.2250977,0.17059326,0.09710693
1603812993024,112,0.94921875,-0.0029907227,0.008728027
1603812993102,113,0.6452637,-0.02154541,-0.005432129
1603812993181,114,0.54296875,-0.027648926,0.020690918
1603812993260,115,0.73779297,0.06072998,0.08343506
1603812993339,116,1.2705078,0.09515381,0.22503662
1603812993417,117,1.4111328,-0.027160645,0.2597046
1603812993496,118,1.1987305,0.14984131,0.24554443
1603812993575,119,0.88305664,0.23822021,0.18060303
1603812993654,120,0.8378906,0.38934326,0.11907959
1603812993732,121,0.7817383,0.45159912,0.24798584
1603812993811,122,1.159668,0.25872803,0.074401855
1603812993890,123,1.2580566,-0.34405518,0.029724121
1603812993969,124,1.0991211,-0.29864502,-0.32818604
1603812994047,125,0.98168945,-0.19708252,-0.3171997
1603812994126,126,0.9008789,-0.34429932,-0.24884033
1603812994205,127,0.92211914,0.019958496,-0.28302002
1603812994284,128,0.8261719,0.18890381,-0.22564697
1603812994362,129,0.91064453,0.2296753,-0.09869385
1603812994441,130,1.286377,0.11907959,-0.073791504
1603812994520,131,0.9147949,-0.10333252,-0.18341064
1603812994599,132,0.91967773,-0.28912354,-0.33477783
1603812994677,133,0.79174805,-0.17193604,-0.36602783
1603812994756,134,0.7832031,-0.08404541,-0.12359619
1603812994835,135,1.0773926,0.17547607,0.04510498
1603812994914,136,1.1687012,0.3222046,0.018493652
1603812994992,137,1.1801758,-0.18927002,-0.19195557
1603812995071,138,0.58447266,-0.28033447,-0.42388916
1603812995150,139,1.0114746,0.018005371,-0.2276001
1603812995229,140,1.0332031,0.02142334,-0.30841064
1603812995307,141,0.8359375,0.07098389,-0.28448486
1603812995386,142,0.828125,0.10296631,6.713867E-4
1603812995465,143,0.954834,0.109802246,-0.02545166
1603812995544,144,0.9838867,0.018249512,-3.0517578E-4
1603812995622,145,1.4147949,0.066345215,-0.1260376
1603812995701,146,0.85131836,-0.3574829,-0.09869385
1603812995780,147,0.7307129,-0.20025635,-0.22930908
1603812995859,148,0.6994629,0.047546387,-0.11798096
1603812995937,149,0.85791016,0.06488037,0.018493652
1603812996016,150,0.9797363,0.28607178,0.034362793
1603812996095,151,1.083252,0.5097046,0.246521
1603812996174,152,1.1601562,0.44329834,0.14031982
1603812996252,153,1.1694336,0.2584839,0.081726074
1603812996331,154,1.376709,0.10247803,0.039978027
1603812996410,155,1.1450195,-0.051574707,-0.0022583008
1603812996489,156,0.736084,-0.039123535,-0.026672363
1603812996567,157,0.592041,0.07635498,-0.020812988
1603812996646,158,0.79248047,0.08514404,-0.031311035
1603812996725,159,1.2412109,0.0914917,-0.12188721
1603812996804,160,1.2109375,0.3414917,0.047546387
1603812996882,161,1.1918945,0.14837646,0.10247803
1603812996961,162,0.92089844,0.13885498,0.078063965
1603812997040,163,0.7609863,0.3036499,0.26849365
1603812997119,164,0.8093262,0.215271,0.41571045
1603812997197,165,0.93725586,0.0692749,0.434021
1603812997276,166,1.2824707,-0.09136963,0.3361206
1603812997355,167,1.1052246,-0.077697754,0.31781006
1603812997434,168,1.0800781,0.034851074,0.25335693
1603812997512,169,1.121582,-0.1375122,0.055358887
1603812997591,170,0.8688965,-0.14727783,0.040222168
1603812997670,171,0.69970703,-0.09820557,0.047790527
1603812997749,172,0.7414551,-0.09063721,-0.014953613
1603812997827,173,1.1262207,0.22576904,-0.05303955
1603812997906,174,1.6367188,0.25994873,-0.035949707
1603812997985,175,0.8093262,-0.21783447,0.025817871
1603812998064,176,0.9655762,-0.06842041,-0.13482666
1603812998142,177,0.75390625,0.19329834,0.062683105
1603812998221,178,0.85961914,0.15911865,0.25994873
1603812998300,179,0.96118164,0.009460449,0.4713745
1603812998379,180,0.93066406,-0.06964111,0.5553589
1603812998457,181,1.3312988,0.16448975,0.45843506
1603812998536,182,1.1811523,-0.003967285,0.2597046
1603812998615,183,1.1489258,0.109802246,0.22503662
1603812998694,184,1.1665039,0.04071045,0.093688965
1603812998772,185,0.92041016,-0.08843994,-0.0029907227
1603812998851,186,0.6291504,-0.027648926,-0.05255127
1603812998930,187,0.5979004,0.10687256,-0.04473877
1603812999009,188,1.0234375,0.117614746,-0.009094238
1603812999087,189,1.182373,0.19696045,0.14251709
1603812999166,190,1.0820312,0.12591553,0.19354248
1603812999245,191,0.8911133,0.10418701,0.22991943
1603812999324,192,0.85253906,0.17913818,0.35272217
1603812999415,193,0.9682617,0.26190186,0.46844482
1603812999507,194,0.94311523,0.034118652,0.4039917
1603812999598,195,1.2565918,0.20281982,0.32025146
1603812999690,196,1.3352051,0.2345581,0.07269287
1603812999781,197,1.0844727,0.22869873,-0.14752197
1603812999873,198,0.7956543,0.21307373,-0.2991333
1603812999965,199,0.8796387,0.15911865,-0.39019775
1603813000056,200,0.8198242,0.03387451,-0.3423462
1603813000148,201,0.83081055,-0.06573486,-0.16778564
1603813000239,202,1.3557129,0.003112793,-0.042297363
1603813000331,203,0.8742676,-0.12652588,0.2518921
1603813000423,204,0.96118164,-0.061828613,0.13568115
1603813000514,205,0.8129883,0.035095215,0.1630249
1603813000606,206,0.76293945,0.04852295,0.20184326
1603813000697,207,0.8178711,0.28216553,0.13909912
1603813000789,208,0.98046875,0.43426514,0.042419434
1603813000881,209,1.4299316,0.35638428,0.039489746
1603813000972,210,0.98339844,0.19354248,0.015808105
1603813001064,211,0.9333496,0.32537842,-0.019592285
1603813001155,212,0.8815918,0.20428467,-0.058898926
1603813001247,213,0.8967285,0.039245605,-0.059143066
1603813001339,214,0.90527344,0.137146,-0.00592041
1603813001430,215,0.97436523,0.14129639,-0.016662598
1603813001522,216,1.0793457,0.06512451,-0.014953613
1603813001613,217,0.83569336,0.137146,0.15252686
1603813001705,218,0.859375,0.16668701,0.1942749
1603813001797,219,0.80908203,0.054626465,0.1239624
1603813001888,220,0.95996094,-0.020812988,0.35321045
1603813001980,221,0.8828125,0.2789917,0.4767456
1603813002071,222,0.954834,0.15228271,0.46307373
1603813002163,223,1.2614746,0.14910889,0.24676514
1603813002255,224,1.2434082,0.35443115,0.20233154
1603813002333,225,1.0869141,0.24212646,0.16668701
1603813002412,226,1.0549316,0.047790527,0.0026245117
1603813002491,227,0.8190918,0.059753418,-0.07891846
1603813002570,228,0.7402344,0.15081787,-0.046691895
1603813002648,229,0.80810547,0.06390381,-0.08502197
1603813002727,230,0.98217773,-0.097229004,0.06048584
1603813002806,231,0.99780273,-0.10992432,0.14886475
1603813002885,232,1.0231934,-0.06378174,0.26556396
1603813002963,233,0.94018555,-0.038391113,0.45721436
1603813003042,234,0.9304199,0.08148193,0.5026245
1603813003121,235,0.91308594,0.18865967,0.6937866
1603813003200,236,1.263916,-0.062072754,0.5829468
1603813003278,237,1.4370117,0.18450928,0.45526123
1603813003357,238,1.3120117,0.02508545,0.10467529
1603813003436,239,1.1953125,0.13275146,0.1942749
1603813003515,240,1.0187988,0.08538818,0.09881592
1603813003593,241,0.7668457,0.04827881,0.18475342
1603813003672,242,0.48120117,-0.11505127,0.35516357
1603813003751,243,0.5305176,-0.19683838,0.5355835
1603813003830,244,0.60595703,-0.14776611,0.6449585
1603813003908,245,0.6345215,-0.20709229,0.6610718
1603813003987,246,0.48168945,-0.19805908,0.5800171
1603813004066,247,0.47192383,-0.16705322,0.41571045
1603813004145,248,0.611084,-0.10821533,0.3114624
1603813004223,249,0.95043945,-0.097473145,0.3998413
1603813004302,250,1.4650879,-0.093566895,0.4562378
1603813004381,251,1.4196777,0.13348389,0.4088745
1603813004460,252,0.8869629,0.085632324,0.41033936
1603813004538,253,0.8339844,0.23284912,0.36468506
1603813004617,254,0.96533203,0.27825928,0.2177124
1603813004696,255,0.9338379,0.022888184,0.17376709
1603813004775,256,0.95825195,0.06976318,0.08709717
1603813004853,257,1.013916,0.066833496,0.022888184
1603813004932,258,0.9970703,-0.0022583008,-0.00592041
1603813005011,259,1.1271973,0.014343262,-0.062316895
1603813005090,260,0.7753906,-0.016662598,-0.018127441
1603813005168,261,0.9511719,0.06365967,0.044128418
1603813005247,262,0.8811035,0.15594482,0.16595459
1603813005326,263,0.92089844,0.2033081,0.2506714
1603813005405,264,0.82592773,0.260437,0.3859253
1603813005483,265,0.9069824,0.22918701,0.3163452
1603813005562,266,1.2709961,0.31854248,0.26654053
1603813005641,267,1.1599121,0.2616577,0.031433105
1603813005720,268,0.9777832,0.77093506,-0.06109619
1603813005798,269,1.0961914,-0.17584229,-0.20977783
1603813005877,270,1.003418,0.26361084,0.078063965
1603813005956,271,0.9309082,0.19158936,-0.042053223
1603813006035,272,0.6176758,0.073913574,-0.011047363
1603813006113,273,0.6357422,0.23895264,0.066833496
1603813006192,274,1.2553711,0.42816162,0.2946167
1603813006271,275,0.98779297,0.1293335,0.45184326
1603813006350,276,0.9584961,0.06878662,0.40863037
1603813006428,277,0.7062988,0.11102295,0.31048584
1603813006507,278,0.6569824,0.2645874,0.36029053
1603813006586,279,0.7932129,-0.024475098,0.34222412
1603813006665,280,0.9067383,0.00579834,0.3678589
1603813006743,281,1.3652344,-0.02545166,0.4779663
1603813006822,282,0.96728516,-0.081848145,0.2230835
1603813006901,283,0.8496094,0.15960693,0.07904053
1603813006980,284,1.0002441,0.1774292,0.086364746
1603813007058,285,0.85131836,0.13690186,0.055114746
1603813007137,286,0.7272949,0.08441162,-0.0154418945
1603813007216,287,0.7800293,0.17132568,-0.04425049
1603813007295,288,1.3027344,0.31756592,0.049987793
1603813007373,289,1.3984375,0.34100342,0.15374756
1603813007452,290,0.91503906,-0.06793213,-0.08087158
1603813007531,291,0.85058594,0.26434326,-0.097717285
1603813007610,292,0.53808594,0.28900146,-0.0071411133
1603813007688,293,0.78149414,0.3060913,0.06707764
1603813007767,294,1.1403809,0.23699951,0.38153076
1603813007846,295,1.2097168,-0.128479,0.61102295
1603813007925,296,1.2512207,0.2597046,0.6129761
1603813008003,297,1.0214844,0.24822998,0.5231323
1603813008082,298,1.173584,0.101745605,0.20013428
1603813008161,299,1.0439453,0.0368042,0.090270996
1603813008240,300,0.89868164,0.04949951,0.0033569336
1603813008318,301,0.77075195,0.10858154,-0.053527832
1603813008397,302,0.7939453,0.09051514,-0.04425049
1603813008476,303,0.9794922,0.046081543,-0.04498291
1603813008555,304,0.94555664,0.034851074,0.07562256
1603813008633,305,1.0942383,0.03704834,0.19744873
1603813008712,306,0.97314453,-0.010314941,0.17449951
1603813008791,307,0.97265625,0.18231201,0.3024292
1603813008870,308,1.0791016,0.26922607,0.49749756
1603813008948,309,0.9484863,0.18890381,0.48358154
1603813009027,310,1.1782227,0.21429443,0.40130615
1603813009106,311,1.1599121,0.25994873,0.3209839
1603813009185,312,1.2480469,0.26776123,0.23529053
1603813009263,313,1.2067871,0.094177246,0.12786865
1603813009342,314,0.99658203,0.0040893555,0.070495605
1603813009421,315,0.79467773,0.07611084,-0.019836426
1603813009500,316,0.65356445,0.059753418,-0.03375244
1603813009578,317,0.7866211,0.062438965,0.008239746
1603813009657,318,1.1113281,0.059265137,0.0680542
1603813009736,319,1.0529785,0.030944824,0.15838623
1603813009815,320,1.1789551,0.09124756,0.18304443
1603813009893,321,1.0100098,0.15374756,0.19085693
1603813009972,322,0.96191406,0.3475952,0.31756592
1603813010051,323,0.91918945,0.31292725,0.43572998
1603813010130,324,0.9152832,0.15374756,0.4130249
1603813010208,325,1.1875,0.23040771,0.39715576
1603813010287,326,1.3081055,0.29071045,0.39788818
1603813010366,327,1.1096191,0.22210693,0.17230225
1603813010445,328,1.2473145,0.20111084,0.11639404
1603813010523,329,1.2070312,0.016052246,0.027770996
1603813010602,330,0.8820801,0.04827881,-0.070373535
1603813010681,331,0.71899414,0.07928467,-0.07281494
1603813010760,332,0.7272949,0.026062012,-0.0015258789
1603813010838,333,0.9675293,-0.0154418945,0.008728027
1603813010917,334,1.005127,0.053894043,0.1239624
1603813010996,335,1.190918,0.07489014,0.10296631
1603813011075,336,1.1906738,0.17352295,0.1251831
1603813011153,337,1.3427734,0.57025146,0.4003296
1603813011232,338,0.9301758,0.32659912,0.53704834
1603813011311,339,1.0388184,-0.012756348,0.6054077
1603813011390,340,1.2504883,0.5385132,0.37738037
1603813011468,341,1.2312012,0.27581787,0.262146
1603813011547,342,1.3740234,0.042663574,0.17767334
1603813011626,343,1.3481445,0.06439209,0.014587402
1603813011705,344,1.1459961,-0.06866455,0.0028686523
1603813011783,345,0.7910156,-0.17071533,-0.04034424
1603813011862,346,0.63916016,-0.022766113,-0.02960205
1603813011941,347,0.9250488,0.08734131,-0.09625244
1603813012020,348,1.4421387,0.20062256,-0.17559814
1603813012098,349,1.6616211,0.4689331,0.061706543
1603813012177,350,1.392334,0.22283936,-0.25006104
1603813012256,351,1.0300293,0.31976318,-0.23809814
1603813012335,352,0.8117676,0.46722412,-0.13824463
1603813012413,353,1.0749512,0.36102295,0.06512451
1603813012492,354,1.3139648,0.026062012,0.29486084
1603813012571,355,1.0524902,-0.35992432,0.6727905
1603813012650,356,1.1318359,0.11517334,0.67645264
1603813012728,357,1.060791,-0.25860596,0.2958374
1603813012807,358,1.3156738,-0.07232666,0.10784912
1603813012886,359,1.3862305,0.09637451,-0.15289307
1603813012965,360,1.078125,0.08782959,-0.16436768
1603813013043,361,0.8183594,0.059020996,-0.097473145
1603813013122,362,0.60961914,0.18890381,0.002380371
1603813013201,363,0.49023438,0.230896,0.12322998
1603813013280,364,0.7375488,0.14569092,0.1281128
1603813013358,365,1.2839355,0.17889404,0.19744873
1603813013437,366,1.6557617,0.17327881,0.07342529
1603813013516,367,0.78271484,0.12567139,0.036071777
1603813013595,368,1.0270996,0.25335693,-0.15240479
1603813013673,369,0.7194824,0.20233154,-0.082336426
1603813013752,370,0.67407227,0.22113037,0.005065918
1603813013831,371,0.8798828,0.3151245,0.28729248
1603813013910,372,1.0253906,0.03778076,0.40203857
1603813013988,373,1.0664062,-0.06060791,0.37054443
1603813014067,374,1.0319824,0.24163818,0.42889404
1603813014146,375,1.2446289,0.34906006,0.4586792
1603813014225,376,1.2426758,-0.046936035,0.113708496
1603813014303,377,1.1276855,0.018005371,0.057800293
1603813014382,378,0.9326172,0.09124756,0.00579834
1603813014461,379,0.8088379,0.08074951,-0.073791504
1603813014540,380,0.7319336,0.026062012,-0.074523926
1603813014618,381,0.89404297,-6.1035156E-5,-0.046691895
1603813014697,382,1.2849121,0.043395996,0.03338623
1603813014776,383,0.94262695,-0.09210205,0.17327881
