# Sensor position: Wrist
# Sensor side: Left
# Activity type: Standing
# Activity code: 100
# Subject id: s1721039
timestamp,seq,accel_x,accel_y,accel_z
1601047223262,0,0.15429688,0.7350464,-0.22906494
1601047223262,1,0.17944336,0.84661865,-0.2107544
1601047223264,2,0.119628906,0.97406006,-0.18682861
1601047223265,3,0.19726562,0.9598999,-0.21588135
1601047223266,4,0.2548828,0.8720093,-0.19195557
1601047223268,5,0.20581055,0.8016968,-0.13580322
1601047223269,6,0.08886719,0.70721436,-0.04156494
1601047223270,7,-0.020507812,0.7196655,-0.12994385
1601047223270,8,-0.20361328,0.7196655,-0.17681885
1601047223272,9,-0.5383301,0.743103,-0.12652588
1601047223273,10,-1.064209,0.75115967,0.030212402
1601047223274,11,-1.3017578,0.7316284,0.2592163
1601047223275,12,-1.0163574,0.47113037,0.3414917
1601047223276,13,-0.83935547,0.49700928,0.22113037
1601047223278,14,-0.7739258,0.6066284,0.31488037
1601047223281,15,-1.0212402,0.33294678,0.3546753
1601047223282,16,-1.0356445,0.19720459,0.1942749
1601047223283,17,-0.97021484,0.26263428,0.09515381
1601047223284,18,-0.8630371,0.43988037,0.055114746
1601047223285,19,-0.8820801,0.30804443,0.08929443
1601047223285,20,-0.94799805,0.371521,0.16497803
1601047223286,21,-0.93847656,0.44866943,0.16986084
1601047223288,22,-0.9140625,0.41912842,0.13861084
1601047223288,23,-0.90478516,0.40789795,0.11566162
1601047223288,24,-0.91748047,0.3986206,0.13421631
1601047223288,25,-0.923584,0.37615967,0.15057373
1601047223289,26,-0.9140625,0.3764038,0.1317749
1601047223290,27,-0.92041016,0.4076538,0.13861084
1601047223296,28,-0.9094238,0.40447998,0.13812256
1601047223296,29,-0.9279785,0.37860107,0.12762451
1601047223298,30,-0.9255371,0.38104248,0.13470459
1601047223298,31,-0.9223633,0.385437,0.14227295
1601047225797,32,-0.91674805,0.40325928,0.14129639
1601047225797,33,-0.91674805,0.40350342,0.14202881
1601047225797,34,-0.9416504,0.40716553,0.15887451
1601047225798,35,-0.9213867,0.38616943,0.15057373
1601047225799,36,-0.89086914,0.35321045,0.14642334
1601047225800,37,-0.9135742,0.38861084,0.1486206
1601047225804,38,-0.9147949,0.38616943,0.16497803
1601047225804,39,-0.90625,0.3685913,0.16546631
1601047225805,40,-0.90600586,0.39154053,0.1564331
1601047225806,41,-0.91308594,0.39788818,0.16668701
1601047225808,42,-0.9187012,0.37738037,0.1539917
1601047225809,43,-0.9189453,0.3685913,0.1486206
1601047225809,44,-0.93408203,0.36273193,0.14544678
1601047225811,45,-0.9458008,0.34246826,0.11956787
1601047225811,46,-0.9013672,0.3295288,0.124694824
1601047225812,47,-0.91015625,0.39031982,0.117370605
1601047225812,48,-0.9277344,0.45184326,0.12640381
1601047225812,49,-0.9453125,0.3912964,0.1305542
1601047225813,50,-0.94799805,0.33514404,0.09857178
1601047225814,51,-0.93359375,0.34979248,0.10028076
1601047225814,52,-0.9555664,0.3756714,0.11004639
1601047225815,53,-0.9436035,0.35906982,0.09686279
1601047225816,54,-0.9169922,0.37786865,0.09857178
1601047225817,55,-0.9291992,0.40130615,0.094177246
1601047225817,56,-0.92822266,0.33636475,0.08831787
1601047225818,57,-0.98291016,0.30145264,0.07879639
1601047225819,58,-0.9667969,0.31121826,0.09100342
1601047225819,59,-0.9404297,0.3414917,0.109558105
1601047225820,60,-0.92700195,0.38397217,0.11956787
1601047225821,61,-0.92749023,0.37957764,0.105163574
1601047225822,62,-0.93237305,0.33807373,0.1083374
1601047225823,63,-0.9367676,0.4039917,0.10882568
1601047228333,64,-0.9116211,0.41644287,0.12249756
1601047228333,65,-0.9272461,0.40985107,0.121276855
1601047228334,66,-0.921875,0.33514404,0.121032715
1601047228335,67,-0.94506836,0.338562,0.10247803
1601047228336,68,-0.9362793,0.35198975,0.09539795
1601047228337,69,-0.9370117,0.34857178,0.10809326
1601047228337,70,-0.93774414,0.4039917,0.117370605
1601047228337,71,-0.9123535,0.41033936,0.11517334
1601047228338,72,-0.94262695,0.37054443,0.10223389
1601047228338,73,-0.9448242,0.3143921,0.1071167
1601047228339,74,-0.94433594,0.32000732,0.08538818
1601047228339,75,-0.9375,0.39666748,0.10003662
1601047228341,76,-0.91796875,0.39031982,0.109802246
1601047228342,77,-0.92407227,0.38153076,0.116882324
1601047228343,78,-0.935791,0.3685913,0.10321045
1601047228343,79,-0.92871094,0.36688232,0.08514404
1601047228343,80,-0.9187012,0.36053467,0.109558105
1601047228345,81,-0.9423828,0.37298584,0.08538818
1601047228346,82,-0.9472656,0.38079834,0.09246826
1601047228347,83,-0.93115234,0.4105835,0.105651855
1601047228347,84,-0.92333984,0.39398193,0.08514404
1601047228347,85,-0.93481445,0.3764038,0.08514404
1601047228348,86,-0.9416504,0.36151123,0.08294678
1601047228348,87,-0.9333496,0.35198975,0.08514404
1601047228348,88,-0.9338379,0.3764038,0.09710693
1601047228349,89,-0.9345703,0.37127686,0.09686279
1601047228349,90,-0.9313965,0.371521,0.097351074
1601047228350,91,-0.9265137,0.37664795,0.097839355
1601047228350,92,-0.9375,0.37591553,0.09588623
1601047228350,93,-0.9421387,0.3986206,0.10369873
1601047228351,94,-0.92822266,0.37713623,0.09954834
1601047228351,95,-0.92871094,0.37713623,0.093688965
1601047230865,96,-0.93896484,0.34783936,0.08392334
1601047230867,97,-0.93774414,0.36883545,0.10296631
1601047230868,98,-0.91674805,0.40081787,0.12200928
1601047230872,99,-0.94311523,0.38983154,0.10809326
1601047230873,100,-0.9206543,0.35638428,0.07220459
1601047230873,101,-0.90771484,0.338562,0.08807373
1601047230873,102,-0.9394531,0.38934326,0.09442139
1601047230877,103,-0.92749023,0.4022827,0.105163574
1601047230879,104,-0.93066406,0.41278076,0.10247803
1601047230881,105,-0.9145508,0.41156006,0.10345459
1601047230882,106,-0.95874023,0.43695068,0.10345459
1601047230885,107,-0.96533203,0.37371826,0.08660889
1601047230886,108,-0.9140625,0.28167725,0.08685303
1601047230887,109,-0.9321289,0.35247803,0.07244873
1601047230888,110,-0.96435547,0.41912842,0.07952881
1601047230891,111,-0.93847656,0.28997803,0.17572021
1601047230891,112,-0.95703125,0.33514404,0.10321045
1601047230892,113,-0.9602051,0.3673706,0.05316162
1601047230893,114,-0.95996094,0.37127686,0.08514404
1601047230894,115,-0.9604492,0.33343506,0.1461792
1601047230896,116,-0.9333496,0.31756592,0.124694824
1601047230897,117,-0.9255371,0.31732178,0.08734131
1601047230898,118,-0.954834,0.33953857,0.113220215
1601047230898,119,-0.91381836,0.3522339,0.14056396
1601047230900,120,-0.90649414,0.3397827,0.11566162
1601047230901,121,-0.9406738,0.34222412,0.1239624
1601047230903,122,-0.9350586,0.3168335,0.14056396
1601047230904,123,-0.9355469,0.3234253,0.12347412
1601047230906,124,-0.9604492,0.32391357,0.10614014
1601047230906,125,-0.9641113,0.32269287,0.13104248
1601047230909,126,-0.9501953,0.37225342,0.16009521
1601047230909,127,-0.9133301,0.36297607,0.13568115
1601047233401,128,-0.9199219,0.3908081,0.11639404
1601047233402,129,-0.8898926,0.3595581,0.12713623
1601047233402,130,-0.9067383,0.3373413,0.12445068
1601047233402,131,-0.9399414,0.34832764,0.12957764
1601047233402,132,-0.96484375,0.37591553,0.12567139
1601047233405,133,-0.9189453,0.41912842,0.14666748
1601047233409,134,-0.921875,0.39813232,0.14666748
1601047233411,135,-0.9370117,0.40716553,0.14105225
1601047233411,136,-0.9135742,0.37786865,0.1227417
1601047233412,137,-0.91259766,0.35687256,0.10614014
1601047233413,138,-0.9536133,0.36175537,0.11273193
1601047233413,139,-0.93847656,0.35491943,0.11224365
1601047233415,140,-0.9472656,0.3661499,0.11956787
1601047233416,141,-0.9482422,0.39007568,0.12225342
1601047233418,142,-0.9165039,0.40985107,0.12957764
1601047233419,143,-0.92871094,0.4081421,0.13690186
1601047233420,144,-0.9279785,0.3991089,0.13323975
1601047233421,145,-0.8925781,0.3925171,0.12200928
1601047233421,146,-0.8625488,0.39227295,0.12591553
1601047233422,147,-0.96240234,0.39935303,0.13250732
1601047233423,148,-0.9536133,0.41571045,0.14813232
1601047233424,149,-0.8730469,0.4154663,0.15472412
1601047233424,150,-0.87841797,0.41351318,0.14593506
1601047233425,151,-0.8405762,0.42645264,0.16009521
1601047233426,152,-0.9033203,0.401062,0.17547607
1601047233427,153,-0.89208984,0.43133545,0.20379639
1601047233427,154,-0.89160156,0.43792725,0.22381592
1601047233429,155,-0.8647461,0.43475342,0.2020874
1601047233429,156,-0.88500977,0.45477295,0.18548584
1601047233429,157,-0.892334,0.4550171,0.18695068
1601047233430,158,-0.93603516,0.4393921,0.1762085
1601047233432,159,-0.8718262,0.42181396,0.17230225
1601047235934,160,-0.9152832,0.41741943,0.16986084
1601047235935,161,-0.9465332,0.43572998,0.15350342
1601047235935,162,-0.89086914,0.40960693,0.15032959
1601047235936,163,-0.8120117,0.37127686,0.14324951
1601047235937,164,-0.9550781,0.41156006,0.15203857
1601047235938,165,-0.90625,0.35931396,0.21087646
1601047235938,166,-0.86035156,0.5687866,0.215271
1601047235939,167,-0.8881836,0.48260498,0.16888428
1601047235940,168,-0.9013672,0.41888428,0.15325928
1601047235941,169,-0.89746094,0.4154663,0.13543701
1601047235941,170,-0.8886719,0.4130249,0.14251709
1601047235942,171,-0.89208984,0.40838623,0.17547607
1601047235943,172,-0.88671875,0.41522217,0.19940186
1601047235945,173,-0.88916016,0.4052124,0.21160889
1601047235946,174,-0.876709,0.4142456,0.20819092
1601047235946,175,-0.8737793,0.4196167,0.19476318
1601047235948,176,-0.9050293,0.44354248,0.18475342
1601047235954,177,-0.89160156,0.48016357,0.15887451
1601047235955,178,-0.87890625,0.44769287,0.15447998
1601047235955,179,-0.8820801,0.44232178,0.15765381
1601047235956,180,-0.88305664,0.4491577,0.17303467
1601047235957,181,-0.8984375,0.44158936,0.19598389
1601047235957,182,-0.9016113,0.4335327,0.19671631
1601047235958,183,-0.88842773,0.434021,0.18450928
1601047235959,184,-0.88842773,0.42645264,0.1762085
1601047235959,185,-0.89331055,0.42352295,0.17327881
1601047235960,186,-0.8874512,0.42596436,0.17938232
1601047235961,187,-0.88916016,0.42230225,0.17401123
1601047235961,188,-0.89575195,0.42010498,0.16229248
1601047235962,189,-0.8881836,0.418396,0.1630249
1601047235963,190,-0.8874512,0.41253662,0.1762085
1601047235964,191,-0.8996582,0.42132568,0.18548584
1601047238446,192,-0.90893555,0.42474365,0.17938232
1601047238447,193,-0.89819336,0.40838623,0.17523193
1601047238449,194,-0.890625,0.42034912,0.16156006
1601047238450,195,-0.90063477,0.42059326,0.15252686
1601047238451,196,-0.9001465,0.41571045,0.15765381
1601047238453,197,-0.89746094,0.41864014,0.17059326
1601047238454,198,-0.8964844,0.4310913,0.17596436
1601047238457,199,-0.8955078,0.43597412,0.18109131
1601047238458,200,-0.8918457,0.4315796,0.1774292
1601047238459,201,-0.9013672,0.42669678,0.1720581
1601047238460,202,-0.8935547,0.418396,0.17156982
1601047238460,203,-0.8989258,0.41741943,0.16546631
1601047238461,204,-0.8996582,0.41375732,0.16278076
1601047238462,205,-0.9008789,0.40423584,0.1642456
1601047238462,206,-0.9025879,0.39569092,0.15985107
1601047238463,207,-0.89624023,0.3932495,0.16766357
1601047238464,208,-0.89453125,0.39886475,0.16497803
1601047238465,209,-0.9001465,0.4159546,0.16253662
1601047238466,210,-0.90649414,0.4286499,0.17913818
1601047238467,211,-0.8967285,0.42547607,0.19329834
1601047238467,212,-0.90527344,0.43084717,0.1786499
1601047238468,213,-0.8996582,0.41351318,0.15618896
1601047238469,214,-0.9094238,0.40985107,0.13812256
1601047238469,215,-0.8984375,0.41400146,0.14642334
1601047238471,216,-0.88427734,0.40496826,0.18988037
1601047238471,217,-0.907959,0.41131592,0.1918335
1601047238471,218,-0.9038086,0.42108154,0.16571045
1601047238473,219,-0.8869629,0.41644287,0.14349365
1601047238473,220,-0.9111328,0.44769287,0.13787842
1601047238474,221,-0.88720703,0.44891357,0.17669678
1601047238474,222,-0.8925781,0.41351318,0.19378662
1601047238475,223,-0.9069824,0.4142456,0.17376709
1601047241009,224,-0.8977051,0.4039917,0.1605835
1601047241011,225,-0.8977051,0.4052124,0.1408081
1601047241015,226,-0.9165039,0.4298706,0.14227295
1601047241019,227,-0.88012695,0.4130249,0.19940186
1601047241019,228,-0.90405273,0.39666748,0.21160889
1601047241019,229,-0.9321289,0.43475342,0.16790771
1601047241021,230,-0.9042969,0.4237671,0.15130615
1601047241021,231,-0.8569336,0.39837646,0.14788818
1601047241023,232,-0.9013672,0.40740967,0.13763428
1601047241025,233,-0.8967285,0.43206787,0.16033936
1601047241026,234,-0.8745117,0.39959717,0.199646
1601047241028,235,-0.9082031,0.41766357,0.18109131
1601047241028,236,-0.8833008,0.42059326,0.16400146
1601047241029,237,-0.8791504,0.41448975,0.12640381
1601047241030,238,-0.9321289,0.44818115,0.12005615
1601047241032,239,-0.9345703,0.4598999,0.18621826
1601047241032,240,-0.9013672,0.43621826,0.23553467
1601047241034,241,-0.9157715,0.4262085,0.2140503
1601047241035,242,-0.90112305,0.4015503,0.18328857
1601047241036,243,-0.90283203,0.4147339,0.14544678
1601047241037,244,-0.84814453,0.40570068,0.13616943
1601047241040,245,-0.8703613,0.37225342,0.1408081
1601047241040,246,-0.8869629,0.39813232,0.1408081
1601047241043,247,-0.8671875,0.4039917,0.1618042
1601047241044,248,-0.89575195,0.42156982,0.15374756
1601047241046,249,-0.95410156,0.48406982,0.15179443
1601047241046,250,-0.90771484,0.47869873,0.22650146
1601047241047,251,-0.9279785,0.40667725,0.24090576
1601047241048,252,-0.9284668,0.40838623,0.18621826
1601047241049,253,-0.94018555,0.4093628,0.14910889
1601047241050,254,-0.89038086,0.41864014,0.13885498
1601047241050,255,-0.8828125,0.4022827,0.1461792
1601047243542,256,-0.87158203,0.40130615,0.16204834
1601047243543,257,-0.8745117,0.39105225,0.18157959
1601047243545,258,-0.857666,0.38739014,0.16619873
1601047243547,259,-0.9069824,0.40618896,0.14764404
1601047243549,260,-0.8725586,0.4274292,0.16473389
1601047243550,261,-0.9289551,0.4196167,0.18035889
1601047243554,262,-0.9313965,0.45159912,0.18011475
1601047243555,263,-0.9099121,0.41571045,0.19378662
1601047243555,264,-0.9506836,0.416687,0.1876831
1601047243556,265,-0.94970703,0.40301514,0.17913818
1601047243560,266,-0.8635254,0.39105225,0.18084717
1601047243560,267,-0.8859863,0.37713623,0.16351318
1601047243560,268,-0.87158203,0.3961792,0.15301514
1601047243561,269,-0.87890625,0.37005615,0.15789795
1601047243562,270,-0.9152832,0.39300537,0.1437378
1601047243564,271,-0.9265137,0.4022827,0.1515503
1601047243565,272,-0.88671875,0.3998413,0.17791748
1601047243567,273,-0.9284668,0.41107178,0.18450928
1601047243568,274,-0.92626953,0.41937256,0.18841553
1601047243568,275,-0.90356445,0.3944702,0.1918335
1601047243571,276,-0.9160156,0.38812256,0.17181396
1601047243571,277,-0.9116211,0.40838623,0.14910889
1601047243571,278,-0.8835449,0.3944702,0.14422607
1601047243572,279,-0.9387207,0.40911865,0.13616943
1601047243573,280,-0.89038086,0.41864014,0.16522217
1601047243573,281,-0.8937988,0.37420654,0.18817139
1601047243574,282,-0.91015625,0.39837646,0.16644287
1601047243575,283,-0.9057617,0.40789795,0.15985107
1601047243576,284,-0.89331055,0.40130615,0.15106201
1601047243577,285,-0.93408203,0.4244995,0.13983154
1601047243579,286,-0.88720703,0.41619873,0.17034912
1601047243579,287,-0.90649414,0.38812256,0.18914795
1601047246081,288,-0.9094238,0.41815186,0.17645264
1601047246081,289,-0.9069824,0.4154663,0.1708374
1601047246081,290,-0.88842773,0.41107178,0.15447998
1601047246081,291,-0.8898926,0.4303589,0.14813232
1601047246081,292,-0.88134766,0.42547607,0.16741943
1601047246083,293,-0.904541,0.41912842,0.17425537
1601047246083,294,-0.8972168,0.4076538,0.15374756
1601047246083,295,-0.91186523,0.39154053,0.1473999
1601047246084,296,-0.88378906,0.38568115,0.13519287
1601047246086,297,-0.9182129,0.41766357,0.13812256
1601047246087,298,-0.9160156,0.43670654,0.15789795
1601047246088,299,-0.8886719,0.43060303,0.17132568
1601047246088,300,-0.91674805,0.44989014,0.17376709
1601047246089,301,-0.9182129,0.45404053,0.17132568
1601047246089,302,-0.8901367,0.42913818,0.15960693
1601047246090,303,-0.8859863,0.40594482,0.13519287
1601047246091,304,-0.90771484,0.418396,0.121520996
1601047246091,305,-0.8901367,0.41156006,0.137146
1601047246092,306,-0.8964844,0.4142456,0.1473999
1601047246092,307,-0.92749023,0.4376831,0.15032959
1601047246093,308,-0.8881836,0.4232788,0.168396
1601047246093,309,-0.8808594,0.4118042,0.15618896
1601047246094,310,-0.90722656,0.44281006,0.13763428
1601047246095,311,-0.8937988,0.43695068,0.14129639
1601047246096,312,-0.9038086,0.42962646,0.14788818
1601047246096,313,-0.9057617,0.42718506,0.14398193
1601047246097,314,-0.9030762,0.41326904,0.14935303
1601047246097,315,-0.9108887,0.42352295,0.15838623
1601047246098,316,-0.88378906,0.42034912,0.15814209
1601047246099,317,-0.90478516,0.43060303,0.14300537
1601047246100,318,-0.9038086,0.4389038,0.14105225
1601047246100,319,-0.88964844,0.42132568,0.15374756
1601047248611,320,-0.904541,0.43572998,0.15447998
1601047248612,321,-0.89868164,0.4298706,0.15032959
1601047248612,322,-0.8991699,0.43548584,0.15692139
1601047248613,323,-0.8942871,0.42962646,0.15374756
1601047248614,324,-0.8977051,0.4130249,0.14178467
1601047248616,325,-0.8942871,0.4154663,0.13372803
1601047248616,326,-0.8925781,0.4179077,0.1383667
1601047248619,327,-0.9099121,0.43743896,0.1473999
1601047248619,328,-0.90185547,0.44036865,0.16375732
1601047248619,329,-0.90063477,0.42694092,0.1720581
1601047248620,330,-0.90185547,0.41986084,0.14886475
1601047248621,331,-0.8947754,0.42303467,0.14178467
1601047248621,332,-0.89990234,0.42669678,0.14520264
1601047248622,333,-0.89575195,0.42840576,0.14202881
1601047248622,334,-0.88720703,0.42401123,0.14349365
1601047248622,335,-0.9025879,0.43572998,0.14593506
1601047248623,336,-0.9050293,0.4381714,0.15472412
1601047248623,337,-0.90771484,0.4257202,0.16668701
1601047248624,338,-0.89282227,0.4105835,0.15130615
1601047248625,339,-0.9033203,0.42938232,0.1329956
1601047248626,340,-0.8955078,0.42279053,0.13104248
1601047248626,341,-0.8996582,0.432312,0.1461792
1601047248626,342,-0.9099121,0.44036865,0.15374756
1601047248628,343,-0.8925781,0.42425537,0.16571045
1601047248628,344,-0.89697266,0.41986084,0.14691162
1601047248628,345,-0.8955078,0.43206787,0.13348389
1601047248634,346,-0.89160156,0.4286499,0.14129639
1601047248634,347,-0.90112305,0.44232178,0.14593506
1601047248634,348,-0.90063477,0.43743896,0.14837646
1601047248634,349,-0.8959961,0.42962646,0.1539917
1601047248634,350,-0.90722656,0.42034912,0.14935303
1601047248634,351,-0.9030762,0.40863037,0.13421631
1601047251140,352,-0.8977051,0.41351318,0.13494873
1601047251141,353,-0.90234375,0.4237671,0.14764404
1601047251141,354,-0.9157715,0.43572998,0.15789795
1601047251142,355,-0.91137695,0.42718506,0.16619873
1601047251143,356,-0.88305664,0.40985107,0.16766357
1601047251143,357,-0.89868164,0.40496826,0.12860107
1601047251145,358,-0.8930664,0.4147339,0.113708496
1601047251146,359,-0.904541,0.42059326,0.12567139
1601047251146,360,-0.8967285,0.42425537,0.14910889
1601047251147,361,-0.9030762,0.43182373,0.17132568
1601047251148,362,-0.9152832,0.43963623,0.18157959
1601047251149,363,-0.9013672,0.4262085,0.16668701
1601047251149,364,-0.9008789,0.42352295,0.15008545
1601047251150,365,-0.89941406,0.41888428,0.13421631
1601047251153,366,-0.8935547,0.41204834,0.13031006
1601047251153,367,-0.90844727,0.42034912,0.13323975
1601047251154,368,-0.9140625,0.4105835,0.14031982
1601047251155,369,-0.904541,0.39886475,0.15032959
1601047251156,370,-0.9033203,0.40325928,0.16448975
1601047251156,371,-0.9133301,0.40618896,0.16375732
1601047251157,372,-0.90966797,0.40423584,0.15057373
1601047251158,373,-0.91259766,0.41107178,0.13885498
1601047251159,374,-0.9091797,0.40618896,0.13543701
1601047251159,375,-0.90893555,0.3986206,0.14324951
1601047251160,376,-0.91186523,0.39837646,0.1449585
1601047251161,377,-0.91015625,0.39422607,0.15496826
1601047251162,378,-0.90966797,0.3920288,0.15887451
1601047251162,379,-0.9140625,0.4015503,0.1618042
1601047251163,380,-0.91308594,0.40008545,0.1671753
1601047251164,381,-0.9108887,0.39837646,0.1593628
1601047251164,382,-0.9082031,0.39593506,0.15301514
1601047251165,383,-0.91308594,0.39422607,0.16033936
1601047253673,384,-0.90527344,0.40130615,0.17889404
1601047253674,385,-0.90356445,0.40740967,0.18084717
1601047253675,386,-0.8959961,0.3991089,0.15618896
1601047253675,387,-0.9025879,0.39886475,0.14324951
1601047253676,388,-0.890625,0.39178467,0.1720581
1601047253676,389,-0.8991699,0.39471436,0.18133545
1601047253677,390,-0.9116211,0.4225464,0.16619873
1601047253679,391,-0.92041016,0.43060303,0.16253662
1601047253682,392,-0.89990234,0.41082764,0.16253662
1601047253682,393,-0.8898926,0.39788818,0.15350342
1601047253683,394,-0.9304199,0.41937256,0.14227295
1601047253683,395,-0.8901367,0.41400146,0.16912842
1601047253683,396,-0.9033203,0.39007568,0.18597412
1601047253685,397,-0.9189453,0.41400146,0.15130615
1601047253685,398,-0.9030762,0.4039917,0.13104248
1601047253685,399,-0.90966797,0.40716553,0.1293335
1601047253686,400,-0.9094238,0.41619873,0.14642334
1601047253686,401,-0.9121094,0.4015503,0.17572021
1601047253687,402,-0.9086914,0.40301514,0.1671753
1601047253689,403,-0.9082031,0.3991089,0.15740967
1601047253690,404,-0.9086914,0.39764404,0.15374756
1601047253690,405,-0.9157715,0.401062,0.14984131
1601047253690,406,-0.91674805,0.3932495,0.15228271
1601047253690,407,-0.9157715,0.39300537,0.15374756
1601047253691,408,-0.9086914,0.3986206,0.168396
1601047253691,409,-0.90625,0.40740967,0.17034912
1601047253692,410,-0.90283203,0.40789795,0.16546631
1601047253692,411,-0.8989258,0.40252686,0.16595459
1601047253692,412,-0.8984375,0.39544678,0.17523193
1601047253693,413,-0.89746094,0.3937378,0.17279053
1601047253693,414,-0.9074707,0.3991089,0.17034912
1601047253695,415,-0.9121094,0.4052124,0.1720581
