# Sensor position: Wrist
# Sensor side: Left
# Activity type: Desk work
# Activity code: 31
# Subject id: s1710228
timestamp,seq,accel_x,accel_y,accel_z
1602012831491,0,0.15551758,0.10443115,0.9154663
1602012831493,1,0.1574707,0.10418701,0.91693115
1602012831494,2,0.15673828,0.10296631,0.91156006
1602012831496,3,0.15673828,0.10369873,0.916687
1602012831497,4,0.15893555,0.10638428,0.91741943
1602012831498,5,0.15478516,0.10223389,0.9147339
1602012831501,6,0.15576172,0.10345459,0.9142456
1602012831502,7,0.1586914,0.09588623,0.91204834
1602012831504,8,0.15576172,0.109313965,0.918396
1602012831505,9,0.16186523,0.10394287,0.9105835
1602012831507,10,0.15625,0.105651855,0.91864014
1602012831508,11,0.15551758,0.09979248,0.91400146
1602012831509,12,0.14550781,0.098083496,0.9159546
1602012831511,13,0.16748047,0.093444824,0.9064331
1602012831511,14,0.1472168,0.09564209,0.91326904
1602012831513,15,0.12817383,0.058288574,0.9376831
1602012831514,16,0.14624023,0.066833496,0.9262085
1602012831516,17,0.15234375,0.07733154,0.9225464
1602012831516,18,0.14624023,0.093444824,0.9088745
1602012831517,19,0.15917969,0.07537842,0.91571045
1602012831518,20,0.15698242,0.07952881,0.9039917
1602012831518,21,0.15600586,0.077819824,0.91326904
1602012831519,22,0.14794922,0.06365967,0.91741943
1602012831520,23,0.12939453,0.059265137,0.9279175
1602012831521,24,0.114990234,0.06536865,0.9364624
1602012831523,25,0.11669922,0.04876709,0.9332886
1602012831523,26,0.118652344,0.051696777,0.9328003
1602012831524,27,0.1616211,0.10223389,0.90496826
1602012831524,28,0.19042969,0.11077881,0.89593506
1602012831524,29,0.20776367,0.117370605,0.9035034
1602012831525,30,0.11376953,0.0993042,0.9203491
1602012831526,31,0.051757812,0.15301514,0.96698
1602012834408,32,0.15429688,0.12860107,0.9176636
1602012834409,33,0.041992188,0.07684326,0.88690186
1602012834411,34,0.00390625,0.09124756,1.0202026
1602012834412,35,0.095458984,0.013122559,0.8331909
1602012834414,36,0.15600586,0.032165527,0.9684448
1602012834415,37,0.16113281,0.039978027,0.9196167
1602012834417,38,0.13232422,0.093444824,0.9266968
1602012834418,39,0.12988281,0.061950684,0.9232788
1602012834419,40,0.119384766,0.049987793,0.93573
1602012834420,41,0.11987305,0.06903076,0.92108154
1602012834421,42,0.12695312,0.066345215,0.9281616
1602012834423,43,0.119140625,0.06756592,0.92718506
1602012834424,44,0.13061523,0.070007324,0.9086304
1602012834425,45,0.1274414,0.08929443,0.97821045
1602012834426,46,0.114746094,0.073913574,0.89056396
1602012834426,47,0.12597656,0.0099487305,0.9113159
1602012834427,48,0.13427734,0.11077881,0.95965576
1602012834428,49,0.12524414,0.101745605,0.90057373
1602012834434,50,0.118896484,0.059753418,0.9142456
1602012834434,51,0.13476562,0.13519287,0.9359741
1602012834434,52,0.1328125,0.14520264,0.91204834
1602012834434,53,0.13623047,0.1251831,0.8998413
1602012834434,54,0.13671875,0.12176514,0.9130249
1602012834435,55,0.13208008,0.12982178,0.92401123
1602012834435,56,0.13745117,0.11590576,0.92230225
1602012834435,57,0.12719727,0.14959717,0.9286499
1602012834435,58,0.13549805,0.12322998,0.90789795
1602012834436,59,0.15234375,0.12957764,0.9227905
1602012834437,60,0.123535156,0.090026855,0.9022827
1602012834437,61,0.13183594,0.09832764,0.8966675
1602012834438,62,0.15917969,0.06048584,0.90448
1602012834438,63,0.13354492,0.137146,0.9533081
1602012836549,64,0.11645508,0.14422607,0.90130615
1602012836551,65,0.1472168,0.09173584,0.91326904
1602012836552,66,0.13671875,0.1329956,0.9520874
1602012836553,67,0.13183594,0.117614746,0.8954468
1602012836555,68,0.106933594,0.12005615,0.9164429
1602012836555,69,0.14086914,0.12200928,0.92059326
1602012836556,70,0.13183594,0.12005615,0.94281006
1602012836557,71,0.12475586,0.117614746,0.8637085
1602012836558,72,0.14819336,0.0993042,0.9154663
1602012836559,73,0.13208008,0.112976074,0.93548584
1602012836560,74,0.1394043,0.1227417,0.93084717
1602012836561,75,0.16772461,0.12322998,0.91156006
1602012836562,76,0.06665039,0.14471436,0.94329834
1602012836563,77,-0.0056152344,0.093933105,0.8866577
1602012836564,78,0.04711914,0.055358887,0.98895264
1602012836565,79,0.1508789,0.0836792,0.8764038
1602012836567,80,0.14477539,0.09295654,0.92840576
1602012836568,81,0.037841797,0.14300537,0.9581909
1602012836569,82,0.022705078,0.12689209,0.89642334
1602012836569,83,0.109375,0.10076904,0.9286499
1602012836570,84,0.17651367,0.15008545,0.888855
1602012836571,85,0.18457031,0.17352295,0.8883667
1602012836571,86,0.17553711,0.19329834,0.87957764
1602012836572,87,0.18237305,0.24212646,0.90301514
1602012836573,88,0.1850586,0.20477295,0.88983154
1602012836574,89,0.14941406,0.20697021,0.89959717
1602012836575,90,0.12451172,0.20306396,0.92181396
1602012836576,91,0.1340332,0.18719482,0.8895874
1602012836576,92,0.16845703,0.22161865,0.8817749
1602012836577,93,0.1628418,0.23480225,0.9039917
1602012836577,94,0.13085938,0.17449951,0.9081421
1602012836578,95,0.1418457,0.17327881,0.8805542
1602012839481,96,0.09448242,0.24432373,0.9320679
1602012839482,97,0.001953125,0.10003662,0.9454956
1602012839484,98,0.048583984,0.17279053,0.85980225
1602012839485,99,0.15649414,0.09295654,0.9088745
1602012839486,100,0.19360352,0.14569092,0.92303467
1602012839487,101,0.20043945,0.11541748,0.95721436
1602012839488,102,0.13256836,0.12347412,0.9503784
1602012839489,103,0.17700195,0.15960693,0.9569702
1602012839490,104,0.2824707,0.06903076,0.70843506
1602012839490,105,0.23535156,-0.0569458,0.8864136
1602012839491,106,0.10498047,0.10882568,0.97283936
1602012839492,107,0.05102539,0.14544678,0.9191284
1602012839493,108,-0.04321289,0.21185303,0.8981323
1602012839494,109,0.09326172,0.11981201,0.9476929
1602012839495,110,0.22949219,0.12591553,0.91522217
1602012839496,111,0.18774414,0.15325928,0.93182373
1602012839496,112,0.046875,0.15838623,1.001648
1602012839497,113,0.06958008,0.17791748,0.8226929
1602012839497,114,0.122558594,0.05706787,0.887146
1602012839498,115,0.15771484,0.05657959,0.97698975
1602012839499,116,0.12133789,0.09246826,0.92889404
1602012839500,117,0.13842773,0.11981201,0.9086304
1602012839500,118,0.14282227,0.12005615,0.92523193
1602012839501,119,0.12866211,0.121032715,0.9225464
1602012839502,120,0.13623047,0.11151123,0.91204834
1602012839502,121,0.14916992,0.12420654,0.9220581
1602012839503,122,0.14624023,0.11639404,0.90667725
1602012839504,123,0.15283203,0.09857178,0.94818115
1602012839504,124,0.12109375,0.13763428,0.8812866
1602012839505,125,0.11206055,0.1305542,0.9623413
1602012839506,126,0.16235352,0.020935059,0.85150146
1602012839506,127,0.14624023,0.06903076,0.9381714
1602012842210,128,0.11254883,0.12005615,0.95648193
1602012842231,129,0.13305664,0.10858154,0.85736084
1602012842233,130,0.15991211,0.04852295,0.95892334
1602012842234,131,0.1459961,0.08709717,0.9008179
1602012842235,132,0.16259766,0.097839355,0.899353
1602012842236,133,0.13916016,0.08807373,0.9196167
1602012842236,134,0.17016602,0.06976318,0.9020386
1602012842236,135,0.11010742,0.113220215,0.9743042
1602012842236,136,0.1015625,0.112976074,0.91156006
1602012842237,137,0.1538086,0.06854248,0.9110718
1602012842237,138,0.1628418,0.06536865,0.88812256
1602012842238,139,0.1508789,0.07977295,0.93865967
1602012842238,140,0.14013672,0.14349365,0.91693115
1602012842239,141,0.1340332,0.04559326,0.95721436
1602012842239,142,0.091552734,0.1149292,0.87786865
1602012842239,143,0.11669922,0.14715576,0.89520264
1602012842240,144,0.14208984,0.089538574,0.9760132
1602012842240,145,0.1550293,0.15838623,0.8810425
1602012842241,146,0.119384766,0.09857178,0.91204834
1602012842241,147,0.083984375,0.12005615,0.9755249
1602012842241,148,0.09741211,0.13909912,0.88616943
1602012842242,149,0.12475586,0.08148193,0.93963623
1602012842243,150,0.1430664,0.14324951,0.9371948
1602012842243,151,0.12817383,0.11029053,0.85565186
1602012842243,152,0.118652344,0.09490967,0.9503784
1602012842244,153,0.12011719,0.14520264,0.9537964
1602012842244,154,0.07519531,0.07342529,0.8903198
1602012842244,155,0.15844727,0.25091553,0.9447632
1602012842245,156,0.19140625,0.07733154,0.85491943
1602012842245,157,0.19018555,0.08343506,0.9923706
1602012842246,158,0.18652344,0.109069824,0.9286499
1602012842246,159,0.12963867,-0.006652832,0.7626343
1602012844941,160,0.072265625,0.10443115,1.072937
1602012844941,161,0.11035156,0.07977295,0.8773804
1602012844943,162,0.16210938,0.15496826,0.8825073
1602012844944,163,0.1772461,0.050964355,0.93011475
1602012844945,164,0.18774414,0.07904053,0.92596436
1602012844945,165,0.17578125,0.121032715,0.93548584
1602012844946,166,0.13183594,0.1227417,0.88568115
1602012844947,167,0.14453125,0.08758545,0.88397217
1602012844947,168,0.10180664,0.04925537,1.0033569
1602012844948,169,0.12890625,0.13885498,0.88739014
1602012844949,170,0.16064453,0.12591553,0.9105835
1602012844949,171,0.16796875,0.12640381,0.98236084
1602012844950,172,0.10229492,0.16156006,0.8654175
1602012844950,173,0.14916992,0.14715576,0.8798218
1602012844951,174,0.16259766,0.13812256,0.95062256
1602012844951,175,0.15258789,0.12957764,0.8956909
1602012844952,176,0.1394043,0.13079834,0.9100952
1602012844953,177,0.15185547,0.13763428,0.9203491
1602012844953,178,0.15161133,0.13006592,0.9093628
1602012844954,179,0.14111328,0.1305542,0.9555054
1602012844954,180,0.11352539,0.18890381,0.8851929
1602012844955,181,0.16772461,0.109069824,0.8629761
1602012844955,182,0.17797852,0.101745605,0.9586792
1602012844956,183,0.087402344,0.11468506,0.9623413
1602012844956,184,0.04663086,0.10345459,0.90838623
1602012844957,185,0.095703125,0.11639404,0.82733154
1602012844957,186,0.15283203,0.14276123,0.9682007
1602012844958,187,0.17822266,0.11468506,0.9171753
1602012844958,188,0.17675781,0.14031982,0.8954468
1602012844959,189,0.15527344,0.1281128,0.9179077
1602012844959,190,0.16992188,0.10882568,0.90960693
1602012844960,191,0.21240234,0.12567139,0.8890991
1602012846902,192,0.18188477,0.13641357,0.8978882
1602012846902,193,0.16088867,0.11541748,0.9164429
1602012846904,194,0.16381836,0.12982178,0.9086304
1602012846905,195,0.17456055,0.17059326,0.8920288
1602012846906,196,0.14404297,0.15740967,0.91619873
1602012846908,197,0.16699219,0.17327881,0.8847046
1602012846909,198,0.15893555,0.16986084,0.89276123
1602012846910,199,0.10546875,0.1828003,0.914978
1602012846911,200,0.10473633,0.25653076,0.9086304
1602012846913,201,0.095214844,0.24334717,0.9113159
1602012846914,202,0.087402344,0.22015381,0.90008545
1602012846915,203,0.07788086,0.24603271,0.90496826
1602012846915,204,0.08227539,0.23382568,0.90618896
1602012846916,205,0.08105469,0.23724365,0.902771
1602012846917,206,0.08276367,0.23040771,0.8966675
1602012846917,207,0.08569336,0.22625732,0.8998413
1602012846918,208,0.08886719,0.23529053,0.90130615
1602012846919,209,0.08886719,0.23236084,0.9020386
1602012846919,210,0.08691406,0.23602295,0.901062
1602012846920,211,0.087402344,0.23480225,0.8991089
1602012846921,212,0.088134766,0.2321167,0.9008179
1602012846921,213,0.08496094,0.23724365,0.90008545
1602012846922,214,0.087646484,0.23602295,0.90008545
1602012846922,215,0.08862305,0.24090576,0.89959717
1602012846925,216,0.087646484,0.23944092,0.8998413
1602012846926,217,0.087890625,0.23846436,0.8998413
1602012846926,218,0.08984375,0.2374878,0.89959717
1602012846926,219,0.08862305,0.23651123,0.90179443
1602012846927,220,0.08911133,0.23822021,0.9022827
1602012846927,221,0.091552734,0.23529053,0.90179443
1602012846927,222,0.087646484,0.26800537,0.9039917
1602012846928,223,0.09350586,0.21014404,0.90960693
1602012850202,224,0.11743164,0.18914795,0.90179443
1602012850203,225,0.11303711,0.16326904,0.9059448
1602012850205,226,0.11450195,0.17547607,0.90911865
1602012850206,227,0.118896484,0.18670654,0.90496826
1602012850207,228,0.13256836,0.19940186,0.90179443
1602012850208,229,0.12695312,0.20697021,0.90301514
1602012850209,230,0.13134766,0.18157959,0.9015503
1602012850210,231,0.12548828,0.14886475,0.9137573
1602012850211,232,0.119140625,0.14227295,0.92059326
1602012850212,233,0.13232422,0.184021,0.90618896
1602012850213,234,0.12963867,0.15350342,0.92645264
1602012850214,235,0.12402344,0.0993042,0.9249878
1602012850214,236,0.13989258,0.14324951,0.89837646
1602012850215,237,0.1706543,0.21258545,0.8930054
1602012850216,238,0.15307617,0.15423584,0.9081421
1602012850217,239,0.1328125,0.109558105,0.90838623
1602012850217,240,0.13427734,0.15545654,0.92840576
1602012850218,241,0.14355469,0.13812256,0.9303589
1602012850219,242,0.25317383,0.21087646,0.92962646
1602012850219,243,0.26342773,0.2868042,0.9293823
1602012850220,244,0.22192383,0.2020874,0.8932495
1602012850221,245,0.22241211,0.1293335,0.8600464
1602012850222,246,0.2163086,0.11004639,0.8734741
1602012850223,247,0.15942383,0.082458496,0.8678589
1602012850223,248,-0.012939453,0.047058105,0.8764038
1602012850224,249,-0.029296875,-0.027648926,0.91815186
1602012850224,250,-0.05126953,-0.08770752,0.9537964
1602012850225,251,-0.0043945312,-0.003967285,0.9220581
1602012850226,252,2.4414062E-4,0.082214355,0.94036865
1602012850226,253,-0.18920898,0.109802246,0.98724365
1602012850227,254,-0.1977539,0.101989746,1.0704956
1602012850228,255,-0.13793945,0.18475342,0.8812866
1602012852173,256,-0.11230469,0.14056396,0.9838257
1602012852174,257,0.06665039,0.024108887,0.901062
1602012852175,258,0.20654297,-0.0025024414,0.92596436
1602012852176,259,0.234375,0.090270996,0.9254761
1602012852177,260,-0.015625,-0.013000488,0.9088745
1602012852178,261,-0.20581055,0.023132324,0.8781128
1602012852180,262,-0.06201172,0.16033936,0.87298584
1602012852181,263,-0.026367188,0.04559326,1.062439
1602012852182,264,0.0026855469,0.11151123,0.9281616
1602012852184,265,0.012207031,0.40789795,0.92645264
1602012852186,266,-0.013916016,0.2074585,0.88812256
1602012852187,267,0.016845703,0.27801514,0.8944702
1602012852188,268,0.013916016,0.3139038,0.88934326
1602012852190,269,-0.014404297,0.32073975,0.8912964
1602012852194,270,-0.05078125,0.36468506,0.8793335
1602012852195,271,-0.029052734,0.31829834,0.87786865
1602012852195,272,9.765625E-4,0.31072998,0.8895874
1602012852196,273,-0.041748047,0.31903076,0.88568115
1602012852197,274,-0.057128906,0.32318115,0.88079834
1602012852198,275,-0.048583984,0.3168335,0.87908936
1602012852198,276,-0.032714844,0.33050537,0.885437
1602012852199,277,-0.028564453,0.33441162,0.88031006
1602012852200,278,-0.03173828,0.32928467,0.8800659
1602012852200,279,-0.029296875,0.33465576,0.87542725
1602012852201,280,-0.028076172,0.33221436,0.8768921
1602012852202,281,-0.02319336,0.33709717,0.87615967
1602012852203,282,-0.022216797,0.34344482,0.87835693
1602012852203,283,-0.022705078,0.3414917,0.8773804
1602012852204,284,-0.022216797,0.34002686,0.8776245
1602012852205,285,-0.019042969,0.34295654,0.87323
1602012852206,286,-0.020263672,0.35003662,0.8744507
1602012852206,287,-0.026367188,0.33563232,0.87786865
1602012854899,288,-0.025634766,0.3283081,0.8756714
1602012854899,289,-0.033203125,0.32513428,0.8798218
1602012854900,290,-0.028076172,0.33099365,0.8822632
1602012854901,291,-0.029785156,0.3283081,0.8810425
1602012854903,292,-0.02758789,0.3378296,0.8810425
1602012854904,293,-0.028564453,0.33099365,0.8788452
1602012854905,294,-0.026611328,0.34173584,0.87786865
1602012854907,295,-0.02319336,0.34002686,0.87615967
1602012854908,296,-0.02709961,0.34051514,0.87615967
1602012854909,297,-0.025390625,0.33709717,0.8776245
1602012854911,298,-0.02319336,0.3480835,0.8759155
1602012854912,299,-0.02368164,0.33807373,0.8756714
1602012854914,300,-0.027832031,0.34320068,0.8756714
1602012854914,301,-0.02368164,0.35443115,0.8746948
1602012854915,302,-0.024902344,0.3366089,0.87615967
1602012854915,303,-0.03173828,0.3307495,0.8810425
1602012854916,304,-0.035888672,0.33050537,0.88079834
1602012854917,305,-0.035888672,0.32781982,0.8817749
1602012854918,306,-0.032958984,0.33758545,0.8768921
1602012854918,307,-0.034179688,0.32733154,0.8800659
1602012854919,308,-0.029052734,0.33831787,0.8793335
1602012854920,309,-0.030029297,0.34100342,0.87493896
1602012854920,310,-0.029052734,0.34246826,0.8756714
1602012854921,311,-0.028320312,0.33880615,0.8764038
1602012854922,312,-0.029541016,0.34344482,0.8751831
1602012854923,313,-0.029296875,0.34344482,0.8768921
1602012854923,314,-0.028564453,0.34222412,0.8764038
1602012854924,315,-0.026611328,0.34320068,0.8756714
1602012854925,316,-0.03173828,0.34002686,0.8751831
1602012854926,317,-0.025634766,0.34613037,0.87420654
1602012854926,318,-0.02734375,0.34222412,0.87371826
1602012854927,319,-0.02758789,0.3414917,0.87420654
1602012857238,320,-0.029541016,0.338562,0.8798218
1602012857239,321,-0.028076172,0.34906006,0.87323
1602012857240,322,-0.030517578,0.3451538,0.8768921
1602012857241,323,-0.025634766,0.34881592,0.8727417
1602012857243,324,-0.026855469,0.3427124,0.8734741
1602012857244,325,-0.025390625,0.34832764,0.87371826
1602012857245,326,-0.026123047,0.34539795,0.87493896
1602012857247,327,-0.027832031,0.34417725,0.8739624
1602012857248,328,-0.02734375,0.3414917,0.8739624
1602012857248,329,-0.025146484,0.3480835,0.8727417
1602012857249,330,-0.030517578,0.35125732,0.8768921
1602012857250,331,-0.041259766,0.3348999,0.88934326
1602012857251,332,0.00390625,0.29608154,0.8851929
1602012857252,333,0.055908203,0.28753662,0.90057373
1602012857253,334,-0.040283203,0.2897339,0.9122925
1602012857254,335,-0.099365234,0.2711792,0.87420654
1602012857255,336,-0.13305664,0.27044678,0.8788452
1602012857256,337,-0.024658203,0.32781982,0.8908081
1602012857256,338,-0.036865234,0.33026123,0.8851929
1602012857257,339,-0.03149414,0.34368896,0.88031006
1602012857258,340,-0.03149414,0.33319092,0.87713623
1602012857259,341,-0.031982422,0.34295654,0.87493896
1602012857259,342,-0.03540039,0.33343506,0.87713623
1602012857260,343,-0.03100586,0.34051514,0.87713623
1602012857261,344,-0.03491211,0.3366089,0.8773804
1602012857261,345,-0.034423828,0.3390503,0.87615967
1602012857262,346,-0.034179688,0.3361206,0.87908936
1602012857263,347,-0.031982422,0.33026123,0.8793335
1602012857264,348,-0.031982422,0.3444214,0.8768921
1602012857264,349,-0.033691406,0.3397827,0.87542725
1602012857265,350,-0.033447266,0.33416748,0.8781128
1602012857266,351,-0.032714844,0.33343506,0.8773804
1602012859972,352,-0.030029297,0.34100342,0.87664795
1602012859973,353,-0.028808594,0.32781982,0.887146
1602012859975,354,0.0021972656,0.35394287,0.8793335
1602012859977,355,0.0078125,0.31976318,0.8451538
1602012859978,356,-0.06347656,0.34075928,0.8727417
1602012859979,357,-0.041748047,0.36346436,0.88153076
1602012859980,358,-0.033447266,0.33929443,0.87786865
1602012859981,359,-0.033935547,0.34246826,0.87713623
1602012859983,360,-0.03466797,0.33294678,0.8798218
1602012859984,361,-0.035888672,0.3361206,0.8798218
1602012859987,362,-0.033447266,0.33221436,0.87713623
1602012859987,363,-0.033447266,0.34246826,0.8773804
1602012859988,364,-0.031982422,0.35443115,0.8768921
1602012859989,365,-0.03100586,0.33831787,0.87713623
1602012859990,366,-0.03515625,0.33709717,0.8764038
1602012859991,367,-0.033935547,0.34344482,0.8744507
1602012859992,368,-0.029296875,0.34881592,0.87493896
1602012859994,369,-0.03125,0.3607788,0.8825073
1602012859995,370,-0.033935547,0.3168335,0.89471436
1602012859996,371,0.017822266,0.3283081,0.8812866
1602012859997,372,0.0078125,0.29852295,0.8710327
1602012859999,373,-0.01928711,0.3048706,0.8734741
1602012859999,374,-0.05078125,0.2982788,0.8800659
1602012859999,375,-0.016601562,0.31341553,0.88494873
1602012859999,376,-0.01928711,0.3048706,0.8900757
1602012860000,377,-0.029052734,0.31585693,0.89471436
1602012860000,378,-0.024414062,0.32635498,0.88983154
1602012860001,379,-0.016357422,0.30560303,0.91156006
1602012860002,380,-0.0107421875,0.27093506,0.87713623
1602012860003,381,-0.040527344,0.25335693,0.8954468
1602012860003,382,-0.016845703,0.277771,0.8978882
1602012860003,383,-0.017822266,0.27288818,0.90008545
1602012862508,384,-0.024414062,0.27874756,0.9003296
1602012862509,385,-0.022949219,0.27459717,0.89886475
1602012862511,386,-0.025390625,0.27801514,0.8949585
1602012862513,387,-0.01953125,0.28289795,0.8944702
1602012862514,388,-0.024414062,0.29779053,0.8969116
1602012862515,389,-0.020751953,0.28704834,0.8944702
1602012862517,390,-0.025390625,0.28045654,0.89349365
1602012862518,391,-0.0234375,0.2826538,0.8961792
1602012862519,392,-0.022460938,0.28948975,0.8949585
1602012862521,393,-0.025634766,0.2868042,0.89520264
1602012862522,394,-0.026123047,0.28656006,0.89642334
1602012862524,395,-0.025878906,0.28631592,0.89398193
1602012862525,396,-0.02319336,0.28094482,0.8998413
1602012862527,397,-0.026367188,0.28582764,0.89593506
1602012862528,398,-0.022949219,0.28607178,0.8942261
1602012862528,399,-0.024902344,0.29852295,0.8937378
1602012862529,400,-0.01977539,0.2682495,0.89349365
1602012862530,401,-0.029296875,0.29608154,0.8956909
1602012862531,402,-0.02319336,0.28118896,0.8908081
1602012862534,403,-0.030273438,0.27996826,0.8961792
1602012862535,404,-0.02709961,0.30145264,0.89398193
1602012862536,405,-0.022705078,0.28948975,0.8930054
1602012862536,406,-0.02368164,0.29632568,0.89471436
1602012862537,407,-0.025146484,0.27191162,0.8937378
1602012862538,408,-0.025390625,0.2838745,0.89593506
1602012862538,409,-0.025146484,0.28631592,0.89837646
1602012862539,410,-0.021728516,0.29364014,0.89593506
1602012862540,411,-0.025634766,0.27825928,0.93182373
1602012862541,412,0.029541016,0.27313232,0.8822632
1602012862542,413,0.04663086,0.27435303,0.883728
1602012862543,414,0.00390625,0.28607178,0.88934326
1602012862544,415,-0.01171875,0.2748413,0.90252686
1602012865046,416,-0.029052734,0.27557373,0.8932495
1602012865046,417,-0.05053711,0.22943115,0.9035034
1602012865048,418,0.016601562,0.23284912,0.90008545
1602012865049,419,0.0,0.22698975,0.9125366
1602012865050,420,0.0012207031,0.23895264,0.9052124
1602012865051,421,-0.0014648438,0.2399292,0.9105835
1602012865052,422,-0.0068359375,0.24041748,0.90545654
1602012865053,423,-0.005859375,0.2423706,0.9086304
1602012865054,424,-0.0029296875,0.24627686,0.9039917
1602012865055,425,-0.0063476562,0.23895264,0.9064331
1602012865056,426,-0.0068359375,0.25531006,0.90496826
1602012865056,427,-0.0043945312,0.2423706,0.90496826
1602012865057,428,-0.005859375,0.24969482,0.9069214
1602012865058,429,-0.0068359375,0.24359131,0.9039917
1602012865058,430,-0.0075683594,0.24139404,0.9071655
1602012865059,431,-0.005126953,0.24798584,0.9052124
1602012865060,432,-0.0048828125,0.24798584,0.9057007
1602012865061,433,-0.0068359375,0.24871826,0.90301514
1602012865061,434,-0.008300781,0.2506714,0.90618896
1602012865062,435,-0.0056152344,0.24993896,0.90423584
1602012865063,436,-0.0061035156,0.2411499,0.90667725
1602012865064,437,-4.8828125E-4,0.24871826,0.90789795
1602012865065,438,-0.008056641,0.23602295,0.9064331
1602012865065,439,-0.0048828125,0.23895264,0.91326904
1602012865066,440,-0.00390625,0.230896,0.90911865
1602012865067,441,-0.011230469,0.23309326,0.934021
1602012865067,442,-0.10498047,0.24603271,0.94647217
1602012865068,443,-0.25463867,0.09466553,0.91937256
1602012865069,444,-0.099609375,0.13787842,0.8810425
1602012865069,445,0.13232422,0.25872803,0.86468506
1602012865070,446,0.19506836,0.24383545,0.90740967
1602012865071,447,0.055664062,0.24359131,0.97869873
1602012867960,448,-0.061767578,0.17108154,0.86712646
1602012867961,449,-0.01928711,0.2230835,0.9540405
1602012867962,450,0.0075683594,0.215271,0.9176636
1602012867963,451,-0.012207031,0.20501709,0.9191284
1602012867964,452,-0.016113281,0.23504639,0.9176636
1602012867965,453,-0.018310547,0.21820068,0.91619873
1602012867966,454,-0.01953125,0.19818115,0.9069214
1602012867967,455,-0.016357422,0.23406982,0.91448975
1602012867967,456,-0.0036621094,0.26654053,0.88934326
1602012867968,457,-0.0021972656,0.23699951,0.9100952
1602012867969,458,-0.0390625,0.24139404,0.9122925
1602012867970,459,-0.022216797,0.24822998,0.9071655
1602012867971,460,-0.024902344,0.21209717,0.91278076
1602012867972,461,-0.026367188,0.21795654,0.90496826
1602012867973,462,-0.017089844,0.25335693,0.9076538
1602012867974,463,-0.032470703,0.2772827,0.901062
1602012867975,464,-0.02734375,0.2584839,0.899353
1602012867975,465,-0.010253906,0.28729248,0.8973999
1602012867977,466,0.05908203,0.2975464,0.9020386
1602012867977,467,0.017822266,0.14959717,0.91619873
1602012867978,468,-0.12573242,0.18988037,0.92352295
1602012867979,469,-0.13574219,0.28656006,0.8966675
1602012867981,470,-0.034179688,0.309021,0.8966675
1602012867981,471,-0.05053711,0.2802124,0.8956909
1602012867981,472,-0.049072266,0.2892456,0.8932495
1602012867982,473,-0.049072266,0.29315186,0.88983154
1602012867982,474,-0.04321289,0.2982788,0.89056396
1602012867983,475,-0.041259766,0.3048706,0.8915405
1602012867984,476,-0.039794922,0.307312,0.8908081
1602012867984,477,-0.038330078,0.30096436,0.88983154
1602012867985,478,-0.03857422,0.30950928,0.89056396
1602012867985,479,-0.040527344,0.30926514,0.8925171
1602012870680,480,-0.036132812,0.28656006,0.89349365
1602012870681,481,-0.038085938,0.28216553,0.8925171
1602012870684,482,-0.040283203,0.29388428,0.8969116
1602012870685,483,-0.079833984,0.3036499,0.88812256
1602012870688,484,-0.17407227,0.27020264,0.90008545
1602012870688,485,-0.071777344,0.2694702,0.8851929
1602012870690,486,0.075683594,0.3024292,0.9003296
1602012870690,487,0.08544922,0.30389404,0.8805542
1602012870690,488,-0.064208984,0.30584717,0.9003296
1602012870691,489,-0.026123047,0.27996826,0.8925171
1602012870691,490,-0.028564453,0.2826538,0.8956909
1602012870692,491,-0.028564453,0.29071045,0.8944702
1602012870693,492,-0.028808594,0.2982788,0.8912964
1602012870693,493,-0.032958984,0.29779053,0.89276123
1602012870695,494,-0.030273438,0.2843628,0.8915405
1602012870695,495,-0.030761719,0.28851318,0.89593506
1602012870695,496,-0.031982422,0.28875732,0.89471436
1602012870695,497,-0.026855469,0.27703857,0.8932495
1602012870696,498,-0.028320312,0.2892456,0.8961792
1602012870696,499,-0.028564453,0.29241943,0.89276123
1602012870696,500,-0.030761719,0.291687,0.8932495
1602012870697,501,-0.030761719,0.2909546,0.8937378
1602012870699,502,-0.032226562,0.28704834,0.89398193
1602012870699,503,-0.029541016,0.2789917,0.8973999
1602012870700,504,-0.02734375,0.27996826,0.8944702
1602012870702,505,-0.026855469,0.293396,0.90252686
1602012870702,506,-0.0390625,0.29608154,0.9347534
1602012870704,507,-0.13134766,0.2850952,0.9508667
1602012870705,508,-0.19604492,0.09295654,0.9711304
1602012870706,509,-0.123535156,0.030944824,0.95233154
1602012870708,510,-0.025146484,0.034362793,0.97772217
1602012870709,511,0.06958008,-0.008361816,0.90960693
1602012872817,512,0.09741211,0.109558105,0.87371826
1602012872817,513,0.10595703,0.11126709,0.8373413
1602012872819,514,0.18676758,0.006286621,0.91033936
1602012872820,515,0.23583984,-0.038635254,0.9491577
1602012872820,516,0.24023438,-0.0020141602,0.89837646
1602012872821,517,0.11279297,0.10614014,0.9064331
1602012872821,518,-0.044677734,0.12615967,0.9606323
1602012872822,519,-0.05859375,0.09295654,0.9269409
1602012872823,520,0.079589844,0.049743652,0.8305054
1602012872826,521,0.28588867,0.20379639,0.95721436
1602012872828,522,0.30981445,0.30560303,0.92474365
1602012872828,523,0.036865234,0.13934326,0.89520264
1602012872828,524,-0.1694336,0.10809326,0.93499756
1602012872828,525,0.095458984,0.15887451,0.9100952
1602012872828,526,0.20654297,0.21307373,0.9262085
1602012872828,527,0.32006836,0.19085693,0.82366943
1602012872828,528,0.2861328,0.30682373,0.836853
1602012872829,529,0.14819336,0.3295288,0.87908936
1602012872829,530,0.17822266,0.30047607,0.8500366
1602012872830,531,0.17626953,0.3456421,0.8903198
1602012872831,532,0.16235352,0.25775146,0.9100952
1602012872831,533,0.3088379,0.137146,0.94647217
1602012872832,534,0.23095703,0.020446777,0.9100952
1602012872833,535,0.05908203,0.011169434,0.79071045
1602012872834,536,-0.068359375,0.121520996,0.7772827
1602012872834,537,-0.0075683594,0.11199951,0.9389038
1602012872834,538,0.1459961,0.1876831,1.1066284
1602012872835,539,0.13916016,0.15618896,0.8746948
1602012872835,540,0.14892578,0.10858154,0.9616089
1602012872836,541,0.049560547,0.2399292,0.9232788
1602012872836,542,0.07861328,0.0289917,0.88323975
1602012872837,543,0.14160156,0.13690186,0.85076904
1602012875366,544,0.1303711,0.14300537,0.9916382
1602012875366,545,0.08203125,0.22821045,0.9047241
1602012875368,546,0.10595703,0.15325928,0.8493042
1602012875370,547,0.10180664,0.10662842,1.0084839
1602012875371,548,0.104003906,0.17108154,0.83026123
1602012875373,549,0.110839844,0.11175537,0.9423218
1602012875374,550,0.0871582,0.16619873,0.9242554
1602012875375,551,0.10058594,0.14813232,0.90301514
1602012875375,552,0.096191406,0.15838623,0.94085693
1602012875377,553,0.096191406,0.15325928,0.9086304
1602012875378,554,0.087646484,0.15203857,0.9215698
1602012875379,555,0.08935547,0.18719482,0.914978
1602012875380,556,0.09301758,0.19696045,0.9059448
1602012875381,557,0.09375,0.18963623,0.9081421
1602012875382,558,0.08886719,0.17791748,0.91082764
1602012875384,559,0.08569336,0.18450928,0.93011475
1602012875384,560,0.0949707,0.17376709,0.89520264
1602012875384,561,0.10522461,0.2020874,0.91033936
1602012875385,562,0.09106445,0.19500732,0.9376831
1602012875386,563,0.104003906,0.23236084,0.8930054
1602012875387,564,0.114746094,0.18621826,0.88616943
1602012875387,565,0.10449219,0.18841553,0.92889404
1602012875388,566,0.111572266,0.15325928,0.89642334
1602012875389,567,0.10449219,0.1876831,0.9569702
1602012875389,568,0.096191406,0.1408081,0.89398193
1602012875390,569,0.10522461,0.24603271,0.9047241
1602012875391,570,0.11791992,0.2333374,0.8444214
1602012875392,571,0.10449219,0.19720459,0.9298706
1602012875392,572,0.068115234,0.25750732,0.96624756
1602012875393,573,0.111328125,0.2748413,0.8644409
1602012875394,574,0.12475586,0.21282959,0.8422241
1602012875394,575,0.1027832,0.20770264,0.92401123
1602012878099,576,0.09863281,0.20965576,0.9467163
1602012878101,577,0.13476562,0.2514038,0.9113159
1602012878102,578,0.05053711,0.26287842,0.84783936
1602012878104,579,0.07788086,0.11956787,0.8690796
1602012878105,580,0.08520508,0.15618896,0.9804077
1602012878107,581,0.11254883,0.19940186,0.89959717
1602012878108,582,0.11230469,0.19671631,0.9008179
1602012878110,583,0.095214844,0.18011475,0.90618896
1602012878111,584,0.099121094,0.19036865,0.9269409
1602012878114,585,0.12207031,0.1708374,0.8978882
1602012878115,586,0.106933594,0.16204834,0.902771
1602012878116,587,0.109375,0.1552124,0.93133545
1602012878117,588,0.12915039,0.14349365,0.9423218
1602012878117,589,0.10620117,0.16204834,0.93426514
1602012878120,590,0.107421875,0.17230225,0.85369873
1602012878120,591,0.13208008,0.1605835,0.8776245
1602012878120,592,0.13549805,0.08148193,0.9359741
1602012878121,593,0.09716797,0.23260498,0.9801636
1602012878121,594,0.10644531,0.20550537,0.8126831
1602012878123,595,0.09277344,0.1473999,0.94085693
1602012878123,596,0.15161133,0.12860107,0.9232788
1602012878124,597,0.14990234,0.16497803,0.8878784
1602012878124,598,0.11694336,0.1593628,0.91326904
1602012878125,599,0.12182617,0.13006592,0.9345093
1602012878126,600,0.118896484,0.124694824,0.9052124
1602012878126,601,0.12548828,0.13812256,0.91278076
1602012878127,602,0.10546875,0.14178467,0.9345093
1602012878128,603,0.11206055,0.14642334,0.9376831
1602012878128,604,0.11230469,0.14251709,0.9320679
1602012878129,605,0.12890625,0.14105225,0.84368896
1602012878130,606,0.118652344,0.13397217,0.9411011
1602012878131,607,0.107666016,0.10784912,0.9425659
1602012880625,608,0.11376953,0.12908936,0.91326904
1602012880627,609,0.14282227,0.14398193,0.90789795
1602012880628,610,0.13793945,0.15496826,0.9100952
1602012880628,611,0.16455078,0.14471436,0.9274292
1602012880629,612,0.1887207,0.16815186,0.88079834
1602012880630,613,0.05883789,0.109313965,0.9594116
1602012880631,614,0.020751953,0.12200928,0.9303589
1602012880632,615,0.12963867,0.024597168,0.9262085
1602012880633,616,0.1586914,0.13665771,0.87908936
1602012880634,617,0.18310547,0.1395874,0.918396
1602012880635,618,0.13623047,0.09075928,0.8915405
1602012880636,619,0.11401367,0.1437378,0.9647827
1602012880637,620,0.11401367,0.14129639,0.90423584
1602012880637,621,0.1352539,0.06488037,0.9057007
1602012880638,622,0.12646484,0.058776855,0.9472046
1602012880638,623,0.12597656,0.08856201,0.9208374
1602012880639,624,0.14086914,0.078308105,0.91033936
1602012880640,625,0.13330078,0.09661865,0.95965576
1602012880640,626,0.11328125,0.10003662,0.8695679
1602012880641,627,0.15112305,0.12298584,0.9164429
1602012880642,628,0.12036133,0.16912842,0.9423218
1602012880642,629,0.09814453,0.1552124,0.9213257
1602012880643,630,0.114990234,0.11785889,0.8834839
1602012880644,631,0.119140625,0.137146,0.90667725
1602012880645,632,0.1027832,0.14324951,0.949646
1602012880645,633,0.08178711,0.13641357,0.9057007
1602012880646,634,0.07373047,0.13665771,0.9274292
1602012880647,635,0.09667969,0.1005249,0.9335327
1602012880647,636,0.11791992,0.09979248,0.9435425
1602012880648,637,0.09375,0.14910889,0.89837646
1602012880649,638,0.09790039,0.11566162,0.90740967
1602012880649,639,0.11376953,0.089538574,0.9266968
1602012883370,640,0.13110352,0.070251465,0.9591675
1602012883373,641,0.083984375,0.17059326,0.94573975
1602012883376,642,0.12768555,0.109558105,0.86761475
1602012883377,643,0.1394043,0.094177246,0.9086304
1602012883378,644,0.12768555,0.14959717,0.9215698
1602012883379,645,0.11303711,0.121276855,0.93914795
1602012883379,646,0.110839844,0.093444824,0.9352417
1602012883380,647,0.125,0.09954834,0.9137573
1602012883381,648,0.119140625,0.11004639,0.9159546
1602012883382,649,0.12426758,0.1161499,0.9298706
1602012883383,650,0.12426758,0.12005615,0.91619873
1602012883384,651,0.103515625,0.13568115,0.9398804
1602012883385,652,0.12036133,0.18328857,1.0140991
1602012883386,653,0.13183594,0.12347412,0.9628296
1602012883386,654,0.22753906,0.008972168,0.8793335
1602012883387,655,0.3371582,-0.09698486,0.7706909
1602012883388,656,0.33764648,-0.13824463,0.77752686
1602012883388,657,0.31420898,-0.14508057,0.88690186
1602012883389,658,0.3215332,-0.16241455,0.8617554
1602012883390,659,0.30517578,-0.07330322,0.8937378
1602012883391,660,0.3256836,-0.027404785,0.8463745
1602012883391,661,0.31323242,-0.1416626,0.8180542
1602012883392,662,0.31835938,-0.20318604,0.78411865
1602012883393,663,0.28051758,-0.06866455,0.901062
1602012883394,664,0.17211914,0.105895996,0.9647827
1602012883394,665,0.1027832,0.051940918,1.0099487
1602012883395,666,0.1796875,0.017028809,0.8617554
1602012883395,667,0.15722656,0.044128418,0.9262085
1602012883396,668,0.13549805,0.05999756,0.9562378
1602012883396,669,0.123535156,0.12371826,0.8973999
1602012883397,670,0.15112305,0.093688965,0.9352417
1602012883397,671,0.13647461,0.06488037,0.8981323
1602012885888,672,0.13378906,0.094177246,0.91082764
1602012885894,673,0.11987305,0.13201904,0.9472046
1602012885895,674,0.12060547,0.10736084,0.9364624
1602012885897,675,0.13793945,0.07904053,0.92596436
1602012885898,676,0.11376953,0.13739014,0.91937256
1602012885900,677,0.12402344,0.085876465,0.901062
1602012885901,678,0.13476562,0.12200928,0.9381714
1602012885903,679,0.14086914,0.11981201,0.90667725
1602012885904,680,0.14208984,0.11859131,0.9147339
1602012885906,681,0.14648438,0.09710693,0.946228
1602012885908,682,0.13696289,0.08319092,0.8981323
1602012885909,683,0.11254883,0.23504639,0.90448
1602012885910,684,0.16040039,0.12786865,0.901062
1602012885914,685,0.12231445,0.14202881,0.932312
1602012885914,686,0.1184082,0.11077881,0.9315796
1602012885914,687,0.12695312,0.18133545,0.87054443
1602012885915,688,0.13134766,0.10736084,0.9215698
1602012885916,689,0.1315918,0.093444824,0.9545288
1602012885917,690,0.1171875,0.16204834,0.9093628
1602012885918,691,0.13964844,0.09246826,0.87127686
1602012885919,692,0.12817383,0.13104248,0.95355225
1602012885920,693,0.14428711,0.11029053,0.91741943
1602012885920,694,0.14404297,0.14276123,0.93963623
1602012885921,695,0.115234375,0.12054443,0.8895874
1602012885922,696,0.12646484,0.086120605,0.96624756
1602012885923,697,0.12231445,0.109802246,0.90008545
1602012885923,698,0.1484375,0.09075928,0.8925171
1602012885924,699,0.16918945,0.0099487305,0.930603
1602012885924,700,0.11401367,0.08905029,0.9611206
1602012885925,701,0.15991211,0.094177246,0.84539795
1602012885926,702,0.15600586,0.089538574,0.9472046
1602012885926,703,0.13110352,0.16644287,1.0280151
1602012888627,704,0.22338867,0.0079956055,0.9179077
1602012888628,705,0.2758789,-0.124816895,0.8197632
1602012888629,706,0.32299805,-0.1729126,0.76849365
1602012888631,707,0.2998047,-0.14556885,0.8583374
1602012888631,708,0.27563477,-0.11651611,0.9303589
1602012888632,709,0.28833008,-0.14019775,0.83709717
1602012888634,710,0.28051758,-0.16851807,0.8800659
1602012888635,711,0.27368164,-0.14801025,0.86834717
1602012888636,712,0.24853516,-0.124572754,0.8817749
1602012888637,713,0.2211914,-0.055480957,0.93743896
1602012888637,714,0.2199707,-0.040100098,0.9232788
1602012888638,715,0.22338867,-0.061584473,0.90130615
1602012888639,716,0.21777344,-0.09552002,0.9052124
1602012888640,717,0.22436523,-0.14727783,0.91156006
1602012888641,718,0.19458008,-0.07965088,0.93182373
1602012888642,719,0.19799805,-0.08477783,0.9093628
1602012888644,720,0.2626953,-0.14239502,0.84954834
1602012888645,721,0.23876953,-0.097961426,0.8966675
1602012888647,722,0.22851562,-0.09210205,0.918396
1602012888648,723,0.25219727,-0.08111572,0.9020386
1602012888649,724,0.24316406,-0.08502197,0.8966675
1602012888649,725,0.23071289,-0.05303955,0.9213257
1602012888651,726,0.21044922,-0.043273926,0.91156006
1602012888653,727,0.22729492,0.032165527,0.8432007
1602012888653,728,0.2956543,-0.124572754,0.85272217
1602012888654,729,0.26733398,-0.117248535,0.9435425
1602012888654,730,0.11425781,0.034851074,0.949646
1602012888655,731,0.0107421875,0.17913818,0.94818115
1602012888656,732,0.18188477,0.007751465,0.89471436
1602012888656,733,0.26489258,-0.09234619,0.8461304
1602012888657,734,0.30737305,-0.018371582,0.92474365
1602012888658,735,0.19799805,-0.07086182,0.8930054
1602012890957,736,0.22558594,-0.10992432,0.9725952
1602012890958,737,0.33862305,-0.16729736,1.0282593
1602012890959,738,0.36914062,-0.20318604,0.87176514
1602012890960,739,0.21264648,0.06585693,0.5285034
1602012890962,740,-0.080322266,0.3192749,0.78948975
1602012890963,741,0.09326172,0.09637451,1.2311401
1602012890964,742,0.15722656,-0.05670166,0.88031006
1602012890966,743,0.23144531,0.01361084,0.97650146
1602012890967,744,0.1459961,0.054626465,0.9533081
1602012890968,745,0.076416016,0.12957764,0.93182373
1602012890969,746,0.13623047,0.0993042,0.81292725
1602012890971,747,0.1850586,0.10467529,0.9188843
1602012890972,748,0.11254883,0.11077881,0.95892334
1602012890974,749,0.107910156,0.11224365,0.965271
1602012890975,750,0.12011719,0.13153076,0.95355225
1602012890976,751,0.1315918,0.14935303,0.97943115
1602012890977,752,0.087890625,-0.035949707,0.855896
1602012890978,753,0.17651367,0.008728027,0.836853
1602012890979,754,0.22583008,-0.016174316,0.8768921
1602012890979,755,0.26879883,0.07562256,0.90545654
1602012890980,756,0.29711914,0.109802246,0.90496826
1602012890981,757,0.2705078,0.078552246,0.9450073
1602012890982,758,0.14648438,0.018981934,0.961853
1602012890982,759,0.14135742,0.007507324,0.8932495
1602012890983,760,0.08569336,0.051940918,0.92108154
1602012890984,761,0.3161621,0.038269043,0.9118042
1602012890984,762,0.30932617,-0.041809082,0.7640991
1602012890985,763,-0.0041503906,-0.1831665,0.91937256
1602012890986,764,-0.12426758,0.09051514,1.0292358
1602012890986,765,0.0017089844,0.09051514,0.9594116
1602012890987,766,0.09423828,0.16131592,0.82440186
1602012890988,767,0.10644531,0.13153076,0.99676514
1602012893486,768,0.111572266,0.16278076,0.914978
1602012893487,769,0.123535156,0.26678467,0.90008545
1602012893487,770,0.14550781,0.36419678,0.86395264
1602012893488,771,0.15600586,0.33050537,0.838562
1602012893488,772,0.12988281,0.29510498,0.8649292
1602012893489,773,0.12573242,0.24163818,0.94158936
1602012893490,774,0.13916016,0.19036865,0.8432007
1602012893490,775,0.12524414,0.18060303,0.9142456
1602012893491,776,0.09741211,0.21917725,0.93548584
1602012893491,777,0.13110352,0.19622803,0.918396
1602012893492,778,0.1430664,0.1071167,0.8817749
1602012893493,779,0.10595703,0.15985107,0.9718628
1602012893493,780,0.083984375,0.062927246,0.8876343
1602012893494,781,0.1381836,0.050720215,0.8685913
1602012893494,782,0.1237793,0.025817871,0.96502686
1602012893494,783,0.13427734,0.13787842,0.9088745
1602012893495,784,0.13769531,0.070495605,0.9110718
1602012893495,785,0.106933594,0.10614014,0.9567261
1602012893496,786,0.13842773,0.11590576,0.8969116
1602012893496,787,0.13745117,0.077819824,0.9435425
1602012893497,788,0.1159668,0.10345459,0.8949585
1602012893497,789,0.1171875,0.09051514,0.92889404
1602012893498,790,0.13061523,0.12347412,0.9352417
1602012893498,791,0.11987305,0.1149292,0.90960693
1602012893499,792,0.1184082,0.13348389,0.9227905
1602012893499,793,0.11621094,0.137146,0.91448975
1602012893499,794,0.12109375,0.14935303,0.91864014
1602012893500,795,0.1171875,0.13739014,0.9147339
1602012893500,796,0.12768555,0.14544678,0.90496826
1602012893501,797,0.12597656,0.13934326,0.90667725
1602012893502,798,0.123046875,0.16668701,0.93133545
1602012893502,799,0.118896484,0.17010498,0.93621826
1602012896226,800,0.13110352,0.14764404,0.89520264
1602012896228,801,0.119628906,0.20452881,0.9098511
1602012896229,802,0.1352539,0.105895996,0.86883545
1602012896230,803,0.13574219,0.1083374,0.9364624
1602012896231,804,0.11987305,0.13641357,0.93011475
1602012896232,805,0.118652344,0.11566162,0.9320679
1602012896233,806,0.12182617,0.10321045,0.9269409
1602012896234,807,0.12011719,0.12200928,0.946228
1602012896235,808,0.1159668,0.10614014,0.8956909
1602012896237,809,0.15429688,0.13421631,0.9213257
1602012896238,810,0.12670898,0.12176514,0.8475952
1602012896239,811,0.10668945,0.08831787,0.97528076
1602012896240,812,0.11669922,0.16156006,0.92352295
1602012896241,813,0.14208984,0.14984131,0.8493042
1602012896242,814,0.15649414,0.11932373,0.9657593
1602012896243,815,0.14331055,0.093444824,0.8637085
1602012896244,816,0.12231445,0.14007568,0.98480225
1602012896245,817,0.12695312,0.17596436,0.8185425
1602012896245,818,0.15625,0.13665771,0.9450073
1602012896246,819,0.12231445,0.12371826,0.8661499
1602012896247,820,0.12207031,0.12567139,0.98309326
1602012896248,821,0.123291016,0.15545654,0.9437866
1602012896250,822,0.11206055,0.09881592,0.8707886
1602012896251,823,0.13574219,0.16619873,0.9303589
1602012896252,824,0.13696289,0.15301514,0.90496826
1602012896253,825,0.1508789,0.12615967,0.90423584
1602012896254,826,0.12597656,0.14349365,0.96917725
1602012896254,827,0.13549805,0.14788818,0.8395386
1602012896255,828,0.13012695,0.13787842,0.94818115
1602012896255,829,0.15209961,0.15692139,0.84954834
1602012896256,830,0.12573242,0.1437378,0.9874878
1602012896256,831,0.13232422,0.14764404,0.90740967
1602012898961,832,0.14282227,0.13153076,0.8439331
1602012898964,833,0.15014648,0.14544678,0.93255615
1602012898965,834,0.14526367,0.13616943,0.9274292
1602012898966,835,0.1352539,0.13421631,0.9118042
1602012898966,836,0.12939453,0.14202881,0.9176636
1602012898968,837,0.13671875,0.14398193,0.90789795
1602012898969,838,0.123046875,0.15325928,0.9215698
1602012898971,839,0.12841797,0.13934326,0.91815186
1602012898971,840,0.1315918,0.10687256,0.9159546
1602012898972,841,0.13183594,0.20184326,0.96917725
1602012898974,842,0.083740234,0.29266357,0.8348999
1602012898975,843,0.12817383,0.17596436,0.84783936
1602012898976,844,0.12182617,0.105895996,0.96746826
1602012898977,845,0.14257812,0.15081787,0.9213257
1602012898978,846,0.15649414,0.15057373,0.90130615
1602012898978,847,0.15039062,0.13421631,0.91619873
1602012898979,848,0.13232422,0.12982178,0.94573975
1602012898979,849,0.17358398,0.10467529,0.9142456
1602012898980,850,0.19018555,0.117370605,0.8759155
1602012898981,851,0.19091797,0.01776123,0.92352295
1602012898981,852,0.16503906,-0.32403564,0.949646
1602012898985,853,0.16577148,-0.08868408,0.8341675
1602012898986,854,0.13256836,0.29852295,0.87835693
1602012898986,855,0.2746582,0.4389038,0.899353
1602012898986,856,0.17138672,0.20404053,0.9015503
1602012898986,857,0.10668945,0.08294678,0.9332886
1602012898988,858,0.1550293,0.19158936,0.89886475
1602012898988,859,0.15576172,0.20037842,0.8942261
1602012898988,860,0.13574219,0.1671753,0.914978
1602012898988,861,0.13500977,0.17230225,0.9135132
1602012898988,862,0.13891602,0.17279053,0.9098511
1602012898989,863,0.1418457,0.1630249,0.90618896
1602012901308,864,0.140625,0.16497803,0.9047241
1602012901309,865,0.14160156,0.16864014,0.90301514
1602012901311,866,0.14208984,0.16009521,0.9071655
1602012901312,867,0.14501953,0.16351318,0.9032593
1602012901313,868,0.14233398,0.16619873,0.9125366
1602012901314,869,0.1418457,0.1552124,0.9100952
1602012901315,870,0.14428711,0.1642456,0.90545654
1602012901316,871,0.14160156,0.16082764,0.91082764
1602012901317,872,0.1430664,0.16473389,0.90496826
1602012901318,873,0.14038086,0.1642456,0.9100952
1602012901319,874,0.140625,0.16351318,0.9081421
1602012901320,875,0.14208984,0.16229248,0.9059448
1602012901320,876,0.1418457,0.16473389,0.9069214
1602012901321,877,0.13916016,0.16326904,0.9069214
1602012901322,878,0.14135742,0.1618042,0.90911865
1602012901323,879,0.13916016,0.1642456,0.9100952
1602012901324,880,0.140625,0.16229248,0.9081421
1602012901324,881,0.1394043,0.16668701,0.9064331
1602012901325,882,0.13891602,0.16473389,0.90911865
1602012901326,883,0.13867188,0.16326904,0.90667725
1602012901327,884,0.14111328,0.17254639,0.90618896
1602012901327,885,0.14208984,0.17694092,0.9032593
1602012901328,886,0.13964844,0.14910889,0.91033936
1602012901329,887,0.13671875,0.15472412,0.9086304
1602012901330,888,0.14624023,0.2008667,0.8937378
1602012901331,889,0.14477539,0.22479248,0.9003296
1602012901331,890,0.12817383,0.1539917,0.9122925
1602012901333,891,0.123535156,0.11883545,0.9257202
1602012901334,892,0.119140625,0.1473999,0.9213257
1602012901334,893,0.13916016,0.1942749,0.899353
1602012901335,894,0.12866211,0.16571045,0.90789795
1602012901335,895,0.13378906,0.17449951,0.90374756
1602012904023,896,0.13061523,0.16912842,0.9069214
1602012904025,897,0.13256836,0.17132568,0.9088745
1602012904034,898,0.13134766,0.1720581,0.90667725
1602012904034,899,0.13378906,0.17230225,0.90789795
1602012904034,900,0.13110352,0.17132568,0.9069214
1602012904034,901,0.13305664,0.17108154,0.9098511
1602012904034,902,0.12963867,0.17034912,0.9125366
1602012904035,903,0.1328125,0.1708374,0.9086304
1602012904037,904,0.13452148,0.16668701,0.9069214
1602012904038,905,0.1303711,0.17401123,0.9088745
1602012904039,906,0.12841797,0.17254639,0.91571045
1602012904040,907,0.12792969,0.18572998,0.9135132
1602012904042,908,0.1184082,0.20916748,0.93133545
1602012904045,909,0.032470703,0.23724365,0.9528198
1602012904048,910,0.06616211,0.19207764,0.8810425
1602012904048,911,0.31396484,0.024353027,0.78460693
1602012904049,912,0.46264648,0.1618042,0.8746948
1602012904049,913,0.3540039,0.21868896,0.92181396
1602012904051,914,0.18896484,0.13641357,0.9450073
1602012904051,915,0.030029297,0.12005615,0.94036865
1602012904052,916,-0.03881836,0.15863037,0.88494873
1602012904053,917,-0.008300781,0.08758545,0.90423584
1602012904053,918,0.088134766,-0.031311035,0.9125366
1602012904054,919,0.0390625,-0.0049438477,0.9869995
1602012904055,920,-0.013427734,0.14227295,0.84124756
1602012904055,921,0.1743164,0.1317749,1.0143433
1602012904056,922,0.25390625,0.097839355,0.96209717
1602012904056,923,0.31958008,0.13446045,0.791687
1602012904057,924,0.35986328,0.15203857,0.7687378
1602012904057,925,0.30932617,0.09954834,0.809021
1602012904058,926,0.20239258,0.09686279,0.8751831
1602012904058,927,0.05810547,0.085632324,0.91571045
1602012906564,928,-0.11791992,0.04437256,0.91864014
1602012906568,929,-0.21923828,0.08026123,0.9191284
1602012906568,930,-0.18261719,0.2008667,0.994812
1602012906579,931,-0.07861328,0.28167725,1.1034546
1602012906579,932,0.0075683594,0.19329834,0.8192749
1602012906579,933,-0.04296875,0.18011475,0.9332886
1602012906580,934,-0.060058594,0.16741943,0.94696045
1602012906581,935,0.005126953,0.15863037,0.9003296
1602012906582,936,-0.0021972656,0.16400146,0.9447632
1602012906582,937,-0.040039062,0.27923584,0.9039917
1602012906582,938,-0.053710938,0.25823975,0.90448
1602012906584,939,-0.04272461,0.23895264,0.9118042
1602012906584,940,-0.02368164,0.36663818,0.8685913
1602012906584,941,-0.0146484375,0.39715576,0.85150146
1602012906585,942,-0.04248047,0.3678589,0.8720093
1602012906587,943,-0.03540039,0.38983154,0.8637085
1602012906588,944,-0.08618164,0.4142456,0.8407593
1602012906588,945,-0.07495117,0.41619873,0.85198975
1602012906589,946,-0.036865234,0.3834839,0.85614014
1602012906591,947,-0.048828125,0.38128662,0.86102295
1602012906592,948,-0.036621094,0.39520264,0.8497925
1602012906593,949,-0.037841797,0.37420654,0.86273193
1602012906593,950,-0.036621094,0.3920288,0.8566284
1602012906594,951,-0.031982422,0.39593506,0.85272217
1602012906594,952,-0.0390625,0.38397217,0.86053467
1602012906595,953,-0.037109375,0.38104248,0.85980225
1602012906595,954,-0.036376953,0.39105225,0.85614014
1602012906596,955,-0.037353516,0.38568115,0.85809326
1602012906597,956,-0.040283203,0.3842163,0.8595581
1602012906597,957,-0.037841797,0.3834839,0.8588257
1602012906598,958,-0.034423828,0.38787842,0.85369873
1602012906598,959,-0.036376953,0.3883667,0.85980225
1602012909089,960,-0.038330078,0.38397217,0.8590698
1602012909090,961,-0.038085938,0.38275146,0.85980225
1602012909090,962,-0.039794922,0.38372803,0.85980225
1602012909091,963,-0.03881836,0.38739014,0.86102295
1602012909091,964,-0.038085938,0.39056396,0.8588257
1602012909092,965,-0.03955078,0.387146,0.8600464
1602012909094,966,-0.039794922,0.38641357,0.85931396
1602012909094,967,-0.041503906,0.38201904,0.8612671
1602012909095,968,-0.0390625,0.38519287,0.8629761
1602012909096,969,-0.047607422,0.37786865,0.86346436
1602012909097,970,-0.05053711,0.3571167,0.869812
1602012909097,971,-0.057861328,0.35491943,0.87371826
1602012909098,972,-0.05810547,0.3439331,0.8720093
1602012909098,973,-0.05834961,0.3475952,0.869812
1602012909099,974,-0.056152344,0.35125732,0.8722534
1602012909100,975,-0.0546875,0.3522339,0.8703003
1602012909101,976,-0.05078125,0.3505249,0.87323
1602012909101,977,-0.053222656,0.35491943,0.87371826
1602012909102,978,-0.055908203,0.3505249,0.87493896
1602012909103,979,-0.05834961,0.3463745,0.8781128
1602012909104,980,-0.055908203,0.34197998,0.8776245
1602012909106,981,-0.05810547,0.34100342,0.87664795
1602012909107,982,-0.055908203,0.33538818,0.8746948
1602012909108,983,-0.05102539,0.34710693,0.8744507
1602012909110,984,-0.05053711,0.3378296,0.8764038
1602012909111,985,-0.048339844,0.34368896,0.8759155
1602012909114,986,-0.048583984,0.34368896,0.8734741
1602012909114,987,-0.043945312,0.3475952,0.87249756
1602012909114,988,-0.04321289,0.34954834,0.8759155
1602012909115,989,-0.04321289,0.35028076,0.8744507
1602012909117,990,-0.04248047,0.3451538,0.8756714
1602012909117,991,-0.04321289,0.340271,0.87542725
1602012911838,992,-0.041503906,0.34368896,0.8768921
1602012911839,993,-0.041992188,0.34368896,0.87615967
1602012911840,994,-0.040039062,0.34588623,0.8746948
1602012911843,995,-0.043945312,0.34661865,0.87493896
1602012911844,996,-0.041259766,0.34466553,0.8751831
1602012911845,997,-0.038085938,0.34954834,0.8751831
1602012911846,998,-0.041748047,0.34539795,0.8727417
1602012911847,999,-0.041015625,0.3480835,0.87323
1602012911848,1000,-0.040527344,0.3444214,0.8756714
1602012911849,1001,-0.044433594,0.34197998,0.8720093
1602012911850,1002,-0.04321289,0.3390503,0.8786011
1602012911851,1003,-0.046142578,0.33392334,0.8786011
1602012911852,1004,-0.044433594,0.3300171,0.8768921
1602012911853,1005,-0.049072266,0.37371826,0.8812866
1602012911854,1006,-0.048583984,0.36029053,0.9086304
1602012911855,1007,-0.022460938,0.18353271,0.89715576
1602012911855,1008,-0.056884766,0.023620605,0.9130249
1602012911856,1009,-0.07861328,0.046081543,0.961853
1602012911857,1010,-0.022949219,0.27703857,0.8991089
1602012911857,1011,-0.044433594,0.22210693,0.9188843
1602012911858,1012,-0.041503906,0.2230835,0.9147339
1602012911859,1013,-0.04272461,0.2164917,0.91937256
1602012911860,1014,-0.041748047,0.22137451,0.91522217
1602012911860,1015,-0.0390625,0.22113037,0.9125366
1602012911861,1016,-0.041992188,0.22332764,0.91204834
1602012911862,1017,-0.04296875,0.22503662,0.91204834
1602012911863,1018,-0.042236328,0.22821045,0.91571045
1602012911863,1019,-0.044189453,0.22332764,0.9137573
1602012911864,1020,-0.04345703,0.22601318,0.91082764
1602012911865,1021,-0.046875,0.21990967,0.9147339
1602012911865,1022,-0.044677734,0.23284912,0.91326904
1602012911866,1023,-0.04296875,0.19818115,0.9262085
1602012914161,1024,-0.018310547,0.28753662,0.93011475
1602012914162,1025,0.03881836,0.35784912,0.9381714
1602012914164,1026,0.11206055,0.30169678,0.95428467
1602012914165,1027,0.053222656,0.33148193,0.8644409
1602012914166,1028,-0.039794922,0.55755615,0.7247925
1602012914167,1029,-0.036865234,0.54730225,0.5800171
1602012914168,1030,0.040527344,0.4718628,0.71990967
1602012914169,1031,0.07519531,0.37200928,0.8383179
1602012914170,1032,0.0061035156,0.4364624,1.001648
1602012914170,1033,-0.0029296875,0.2958374,0.8336792
1602012914171,1034,0.06689453,0.22332764,0.7999878
1602012914173,1035,0.06982422,0.38128662,0.9694214
1602012914173,1036,-0.045410156,0.31829834,0.92181396
1602012914174,1037,-0.040771484,0.38446045,0.8703003
1602012914175,1038,-0.03881836,0.35565186,0.86834717
1602012914176,1039,-0.03857422,0.3632202,0.86834717
1602012914176,1040,-0.040283203,0.38519287,0.8617554
1602012914177,1041,-0.033447266,0.38250732,0.8654175
1602012914177,1042,-0.037597656,0.3632202,0.8654175
1602012914178,1043,-0.036621094,0.36712646,0.86639404
1602012914179,1044,-0.033935547,0.37225342,0.8668823
1602012914179,1045,-0.03515625,0.37249756,0.8656616
1602012914180,1046,-0.03564453,0.36956787,0.8637085
1602012914180,1047,-0.036865234,0.37078857,0.8644409
1602012914181,1048,-0.034423828,0.3710327,0.8637085
1602012914182,1049,-0.037597656,0.37054443,0.8641968
1602012914182,1050,-0.032470703,0.37078857,0.8649292
1602012914183,1051,-0.03466797,0.37493896,0.8632202
1602012914183,1052,-0.037353516,0.37347412,0.86224365
1602012914184,1053,-0.04736328,0.385437,0.8522339
1602012914184,1054,-0.08276367,0.31756592,0.88494873
1602012914185,1055,0.020263672,0.4274292,0.8434448
1602012916906,1056,-0.044921875,0.34124756,0.87176514
1602012916907,1057,-0.061523438,0.3348999,0.8720093
1602012916909,1058,-0.041992188,0.35443115,0.87323
1602012916910,1059,-0.043945312,0.33685303,0.87664795
1602012916912,1060,-0.0390625,0.34124756,0.87615967
1602012916913,1061,-0.04272461,0.34783936,0.87371826
1602012916915,1062,-0.041015625,0.3361206,0.8756714
1602012916916,1063,-0.043945312,0.34588623,0.8786011
1602012916918,1064,-0.04272461,0.33685303,0.87957764
1602012916919,1065,-0.036132812,0.33294678,0.8746948
1602012916920,1066,-0.035888672,0.3480835,0.87493896
1602012916921,1067,-0.0546875,0.35076904,0.87835693
1602012916923,1068,-0.048095703,0.3209839,0.8847046
1602012916924,1069,-0.055908203,0.307312,0.88568115
1602012916926,1070,-0.052490234,0.2994995,0.88568115
1602012916927,1071,-0.036376953,0.32025146,0.8847046
1602012916929,1072,-0.037597656,0.3287964,0.8890991
1602012916930,1073,-0.049072266,0.3751831,0.8722534
1602012916933,1074,-0.041015625,0.32855225,0.87908936
1602012916933,1075,-0.05102539,0.31707764,0.8883667
1602012916934,1076,-0.052246094,0.3222046,0.8842163
1602012916934,1077,-0.049072266,0.30950928,0.88494873
1602012916935,1078,-0.052490234,0.3222046,0.8878784
1602012916936,1079,-0.05102539,0.32391357,0.88153076
1602012916936,1080,-0.052978516,0.31219482,0.8859253
1602012916937,1081,-0.048583984,0.3139038,0.8829956
1602012916938,1082,-0.05053711,0.32611084,0.8829956
1602012916939,1083,-0.045898438,0.33416748,0.8829956
1602012916940,1084,-0.04638672,0.3397827,0.8834839
1602012916941,1085,-0.045898438,0.31781006,0.9862671
1602012916942,1086,0.13183594,0.2711792,1.151062
1602012916943,1087,0.27319336,0.09295654,1.0424194
1602012919447,1088,0.25341797,0.07611084,0.7272339
1602012919448,1089,0.016601562,-0.01763916,0.6786499
1602012919449,1090,-0.234375,0.13372803,0.8300171
1602012919450,1091,-0.26879883,0.13201904,0.9555054
1602012919451,1092,-0.19482422,0.09515381,0.9696655
1602012919452,1093,-0.12524414,0.047302246,0.99823
1602012919453,1094,-0.14013672,0.22650146,0.96990967
1602012919454,1095,-0.009033203,0.48016357,0.98114014
1602012919455,1096,0.10986328,0.44403076,0.8341675
1602012919455,1097,0.06762695,0.2177124,0.7575073
1602012919456,1098,-0.026367188,0.08538818,0.75164795
1602012919457,1099,-0.22680664,0.05999756,0.93182373
1602012919458,1100,-0.3076172,0.113220215,1.0272827
1602012919458,1101,-0.23876953,0.18890381,0.9940796
1602012919459,1102,-0.15063477,0.18426514,0.9347534
1602012919460,1103,-0.19262695,0.19915771,0.9454956
1602012919460,1104,-0.41992188,0.17425537,1.0494995
1602012919461,1105,-0.4609375,0.15594482,0.9442749
1602012919462,1106,-0.27441406,0.22064209,0.8007202
1602012919462,1107,-0.027832031,0.25628662,0.6727905
1602012919463,1108,0.20483398,0.16375732,0.7772827
1602012919464,1109,0.18334961,0.16375732,0.86395264
1602012919464,1110,0.19458008,0.12030029,0.982605
1602012919465,1111,0.107177734,0.36517334,0.99261475
1602012919466,1112,-0.11669922,0.3546753,1.0993042
1602012919466,1113,-0.04345703,0.41278076,0.8395386
1602012919467,1114,-0.023925781,0.37127686,0.86761475
1602012919467,1115,-0.05029297,0.36590576,0.8695679
1602012919468,1116,-0.049316406,0.38885498,0.86102295
1602012919468,1117,-0.044677734,0.39178467,0.85858154
1602012919469,1118,-0.04736328,0.38079834,0.8595581
1602012919470,1119,-0.05444336,0.38275146,0.8595581
1602012921979,1120,-0.051513672,0.37860107,0.8624878
1602012921979,1121,-0.04736328,0.38446045,0.86053467
1602012921981,1122,-0.045898438,0.38372803,0.8607788
1602012921983,1123,-0.047607422,0.3842163,0.85931396
1602012921983,1124,-0.048583984,0.3768921,0.8617554
1602012921984,1125,-0.04711914,0.3842163,0.8617554
1602012921985,1126,-0.049316406,0.3842163,0.8566284
1602012921986,1127,-0.04736328,0.38128662,0.86151123
1602012921987,1128,-0.048828125,0.38372803,0.85980225
1602012921987,1129,-0.04736328,0.3817749,0.8617554
1602012921988,1130,-0.04736328,0.3793335,0.85809326
1602012921989,1131,-0.046875,0.385437,0.8583374
1602012921990,1132,-0.04638672,0.38250732,0.85980225
1602012921991,1133,-0.04663086,0.38031006,0.8602905
1602012921992,1134,-0.047607422,0.3788452,0.86151123
1602012921993,1135,-0.047607422,0.38641357,0.8590698
1602012921994,1136,-0.047851562,0.38201904,0.86224365
1602012921994,1137,-0.04711914,0.3793335,0.8624878
1602012921995,1138,-0.04663086,0.38079834,0.8600464
1602012921996,1139,-0.049072266,0.38104248,0.86273193
1602012921996,1140,-0.04345703,0.38446045,0.8617554
1602012921997,1141,-0.043945312,0.38275146,0.8602905
1602012921997,1142,-0.042236328,0.3817749,0.8588257
1602012921998,1143,-0.043945312,0.38153076,0.8607788
1602012921998,1144,-0.040283203,0.3842163,0.8595581
1602012921999,1145,-0.040283203,0.38079834,0.86151123
1602012922000,1146,-0.04272461,0.37786865,0.86151123
1602012922000,1147,-0.041259766,0.385437,0.8583374
1602012922001,1148,-0.039794922,0.38909912,0.85980225
1602012922001,1149,-0.044433594,0.3829956,0.86346436
1602012922002,1150,-0.049804688,0.36590576,0.8690796
1602012922005,1151,-0.033447266,0.38763428,0.8554077
1602012924709,1152,-0.042236328,0.3834839,0.8571167
1602012924711,1153,-0.037353516,0.3895874,0.85980225
1602012924711,1154,-0.040283203,0.37957764,0.8566284
1602012924713,1155,-0.042236328,0.3793335,0.8619995
1602012924715,1156,-0.042236328,0.37908936,0.86102295
1602012924716,1157,-0.040771484,0.3817749,0.86273193
1602012924720,1158,-0.0390625,0.3764038,0.8637085
1602012924720,1159,-0.040771484,0.3834839,0.8607788
1602012924720,1160,-0.036865234,0.385437,0.8588257
1602012924721,1161,-0.040527344,0.37469482,0.86395264
1602012924723,1162,-0.04248047,0.371521,0.86053467
1602012924724,1163,-0.041259766,0.37713623,0.8641968
1602012924731,1164,-0.041992188,0.3751831,0.86468506
1602012924731,1165,-0.043701172,0.37591553,0.8641968
1602012924732,1166,-0.060791016,0.40716553,0.8612671
1602012924732,1167,-0.036621094,0.5109253,0.90667725
1602012924733,1168,0.12792969,0.6478882,0.8966675
1602012924733,1169,0.1809082,0.21697998,0.8637085
1602012924733,1170,0.17163086,-0.035461426,0.8078003
1602012924735,1171,-0.053222656,0.1564331,0.8895874
1602012924735,1172,-0.21899414,0.16375732,0.91522217
1602012924736,1173,-0.30078125,0.04559326,0.95599365
1602012924743,1174,-0.13793945,0.06488037,0.9525757
1602012924743,1175,-0.037841797,0.1449585,0.9332886
1602012924743,1176,-0.071777344,0.20941162,0.90496826
1602012924744,1177,-0.022216797,0.28338623,0.90374756
1602012924744,1178,0.0234375,0.44647217,0.793396
1602012924744,1179,0.026855469,0.57244873,0.63568115
1602012924744,1180,0.03100586,0.79974365,0.54730225
1602012924744,1181,-0.040527344,0.7040405,0.69281006
1602012924749,1182,-0.0690918,0.73309326,0.63323975
1602012924749,1183,-0.0061035156,0.8632202,0.33026123
1602012927248,1184,0.07836914,0.9154663,0.13153076
1602012927249,1185,0.17333984,0.9501343,0.055603027
1602012927249,1186,0.19921875,0.98846436,-0.0015258789
1602012927250,1187,0.17236328,0.97650146,-0.06500244
1602012927251,1188,0.12109375,0.9472046,-0.034484863
1602012927252,1189,0.107910156,0.93743896,-0.012023926
1602012927253,1190,0.095214844,0.94866943,0.0016479492
1602012927254,1191,0.08862305,0.9540405,-0.005432129
1602012927255,1192,0.09057617,0.9501343,-0.030578613
1602012927255,1193,0.099853516,0.95526123,-0.025939941
1602012927256,1194,0.119384766,0.95184326,-0.009338379
1602012927257,1195,0.122802734,0.94940186,-0.019592285
1602012927257,1196,0.10424805,0.9664917,-0.023986816
1602012927258,1197,0.11743164,0.9476929,-0.02520752
1602012927263,1198,0.11816406,0.94818115,-0.026184082
1602012927263,1199,0.11645508,0.9437866,-0.02520752
1602012927263,1200,0.1171875,0.9537964,-0.018615723
1602012927263,1201,0.119628906,0.9537964,-0.020324707
1602012927264,1202,0.107666016,0.93499756,-0.016174316
1602012927264,1203,0.111816406,0.9574585,-0.017150879
1602012927264,1204,0.106933594,0.9606323,-0.013244629
1602012927264,1205,0.107910156,0.95477295,-0.016906738
1602012927270,1206,0.11376953,0.9454956,-0.015197754
1602012927270,1207,0.11303711,0.9467163,-0.014709473
1602012927270,1208,0.11303711,0.9555054,-0.016418457
1602012927270,1209,0.103759766,0.94647217,-0.008361816
1602012927270,1210,0.107177734,0.9503784,-0.010070801
1602012927270,1211,0.11376953,0.9598999,-0.007385254
1602012927270,1212,0.12060547,0.96673584,0.0033569336
1602012927270,1213,0.14794922,0.9821167,0.03314209
1602012927270,1214,0.1665039,0.99090576,0.055603027
1602012927270,1215,0.14868164,0.98480225,0.16546631
