# Sensor position: Wrist
# Sensor side: Left
# Activity type: Sitting
# Activity code: 0
# Subject id: s1764751
timestamp,seq,accel_x,accel_y,accel_z
1603032270228,0,-0.6682129,-0.2234497,0.70526123
1603032270330,1,-0.66918945,-0.22052002,0.7123413
1603032270433,2,-0.67041016,-0.22296143,0.70721436
1603032270536,3,-0.66748047,-0.22662354,0.7094116
1603032270639,4,-0.6682129,-0.22784424,0.71673584
1603032270742,5,-0.6682129,-0.21392822,0.7025757
1603032270845,6,-0.6796875,-0.22076416,0.6984253
1603032270948,7,-0.6669922,-0.22149658,0.70965576
1603032271051,8,-0.67163086,-0.22662354,0.71087646
1603032271154,9,-0.66796875,-0.22296143,0.71307373
1603032271257,10,-0.6687012,-0.22320557,0.71551514
1603032271359,11,-0.673584,-0.21954346,0.70062256
1603032271462,12,-0.673584,-0.22320557,0.70648193
1603032271565,13,-0.6689453,-0.22491455,0.7103882
1603032271668,14,-0.6711426,-0.22393799,0.7081909
1603032271771,15,-0.6699219,-0.2300415,0.7069702
1603032271874,16,-0.6286621,-0.20391846,0.697937
1603032271977,17,-0.7182617,-0.23516846,0.70477295
1603032272080,18,-0.7116699,-0.26275635,0.6654663
1603032272183,19,-0.701416,-0.2444458,0.67401123
1603032272286,20,-0.6899414,-0.23150635,0.6835327
1603032272389,21,-0.7011719,-0.23199463,0.6725464
1603032272491,22,-0.7060547,-0.23150635,0.66815186
1603032272594,23,-0.6999512,-0.23468018,0.6725464
1603032272697,24,-0.70947266,-0.24078369,0.6688843
1603032272800,25,-0.7023926,-0.23248291,0.6713257
1603032272903,26,-0.7043457,-0.23468018,0.6713257
1603032273006,27,-0.7084961,-0.2420044,0.66693115
1603032273109,28,-0.7175293,-0.23468018,0.6635132
1603032273212,29,-0.7116699,-0.23297119,0.65448
1603032273315,30,-0.75756836,-0.23077393,0.62957764
1603032273418,31,-0.76171875,-0.22491455,0.6063843
1603032273521,32,-0.78808594,-0.2263794,0.6281128
1603032273599,33,-0.76953125,-0.20489502,0.62786865
1603032273678,34,-0.765625,-0.18389893,0.59173584
1603032273757,35,-0.79125977,-0.19537354,0.5985718
1603032273836,36,-0.7685547,-0.21392822,0.5939331
1603032273914,37,-0.7753906,-0.21368408,0.61932373
1603032273993,38,-0.77368164,-0.18609619,0.6119995
1603032274072,39,-0.78344727,-0.18609619,0.6022339
1603032274151,40,-0.7836914,-0.19293213,0.60565186
1603032274229,41,-0.77905273,-0.20172119,0.6083374
1603032274308,42,-0.7792969,-0.19732666,0.6051636
1603032274387,43,-0.77734375,-0.19464111,0.605896
1603032274466,44,-0.7775879,-0.19537354,0.60858154
1603032274544,45,-0.7788086,-0.19732666,0.6054077
1603032274623,46,-0.7800293,-0.20343018,0.60443115
1603032274702,47,-0.78125,-0.19122314,0.6078491
1603032274781,48,-0.78222656,-0.19342041,0.5988159
1603032274859,49,-0.78100586,-0.19732666,0.60614014
1603032274938,50,-0.7817383,-0.19830322,0.6010132
1603032275017,51,-0.7817383,-0.19781494,0.6039429
1603032275096,52,-0.78515625,-0.19464111,0.6034546
1603032275174,53,-0.7817383,-0.19781494,0.60565186
1603032275253,54,-0.7805176,-0.19805908,0.60491943
1603032275332,55,-0.78344727,-0.19586182,0.6017456
1603032275411,56,-0.78271484,-0.19927979,0.6046753
1603032275489,57,-0.78222656,-0.19586182,0.6046753
1603032275568,58,-0.7836914,-0.1897583,0.6029663
1603032275647,59,-0.7824707,-0.19659424,0.60491943
1603032275726,60,-0.78100586,-0.19805908,0.60443115
1603032275804,61,-0.7824707,-0.1975708,0.607605
1603032275883,62,-0.78466797,-0.1963501,0.6029663
1603032275962,63,-0.7800293,-0.20074463,0.60614014
1603032276041,64,-0.78027344,-0.19952393,0.60565186
1603032276119,65,-0.7817383,-0.1975708,0.6063843
1603032276198,66,-0.7841797,-0.19708252,0.60198975
1603032276277,67,-0.77856445,-0.19952393,0.6090698
1603032276356,68,-0.7783203,-0.19708252,0.60614014
1603032276434,69,-0.7775879,-0.20220947,0.60858154
1603032276513,70,-0.779541,-0.2000122,0.604187
1603032276592,71,-0.7766113,-0.20318604,0.605896
1603032276671,72,-0.77856445,-0.2041626,0.6066284
1603032276749,73,-0.77783203,-0.2041626,0.60198975
1603032276828,74,-0.77978516,-0.2041626,0.60321045
1603032276907,75,-0.7792969,-0.2000122,0.6063843
1603032276986,76,-0.782959,-0.20050049,0.6051636
1603032277064,77,-0.7758789,-0.2029419,0.6102905
1603032277143,78,-0.78100586,-0.20343018,0.6046753
1603032277222,79,-0.77856445,-0.20269775,0.60369873
1603032277301,80,-0.7792969,-0.20343018,0.6022339
1603032277379,81,-0.7788086,-0.20220947,0.605896
1603032277458,82,-0.77978516,-0.20269775,0.6083374
1603032277537,83,-0.7800293,-0.20220947,0.60369873
1603032277616,84,-0.78100586,-0.20587158,0.604187
1603032277694,85,-0.77734375,-0.20220947,0.605896
1603032277773,86,-0.7817383,-0.20440674,0.60272217
1603032277852,87,-0.7800293,-0.20440674,0.60491943
1603032277931,88,-0.7807617,-0.19464111,0.604187
1603032278009,89,-0.779541,-0.19586182,0.60614014
1603032278088,90,-0.779541,-0.20367432,0.60687256
1603032278167,91,-0.77783203,-0.20269775,0.60809326
1603032278246,92,-0.77734375,-0.20025635,0.6090698
1603032278324,93,-0.77978516,-0.20343018,0.60565186
1603032278403,94,-0.77734375,-0.19854736,0.6102905
1603032278482,95,-0.7770996,-0.1987915,0.6039429
1603032278561,96,-0.78027344,-0.20220947,0.6088257
1603032278639,97,-0.7792969,-0.2029419,0.604187
1603032278718,98,-0.77783203,-0.19903564,0.6088257
1603032278797,99,-0.7770996,-0.19683838,0.60858154
1603032278876,100,-0.7763672,-0.1987915,0.6100464
1603032278954,101,-0.77978516,-0.2000122,0.6071167
1603032279033,102,-0.77734375,-0.20050049,0.6088257
1603032279112,103,-0.7783203,-0.19708252,0.605896
1603032279191,104,-0.7780762,-0.19805908,0.6088257
1603032279269,105,-0.77563477,-0.19976807,0.6063843
1603032279348,106,-0.77905273,-0.19708252,0.60614014
1603032279427,107,-0.7770996,-0.20269775,0.60931396
1603032279506,108,-0.77612305,-0.19830322,0.60931396
1603032279584,109,-0.77685547,-0.19342041,0.6100464
1603032279663,110,-0.7763672,-0.20050049,0.6107788
1603032279742,111,-0.77783203,-0.1987915,0.6090698
1603032279821,112,-0.7783203,-0.19805908,0.6095581
1603032279899,113,-0.7800293,-0.19610596,0.6078491
1603032279978,114,-0.7775879,-0.19659424,0.6088257
1603032280057,115,-0.7780762,-0.2000122,0.60980225
1603032280136,116,-0.7800293,-0.1963501,0.607605
1603032280214,117,-0.7780762,-0.19952393,0.6066284
1603032280293,118,-0.7763672,-0.19781494,0.6063843
1603032280372,119,-0.77368164,-0.19683838,0.6078491
1603032280451,120,-0.77685547,-0.19903564,0.6090698
1603032280529,121,-0.77856445,-0.20050049,0.6112671
1603032280608,122,-0.779541,-0.20098877,0.60858154
1603032280687,123,-0.779541,-0.19854736,0.6088257
1603032280766,124,-0.779541,-0.19683838,0.60858154
1603032280844,125,-0.77783203,-0.20098877,0.607605
1603032280923,126,-0.7775879,-0.19976807,0.60858154
1603032281002,127,-0.7788086,-0.2000122,0.6051636
1603032281081,128,-0.7775879,-0.20440674,0.6090698
1603032281159,129,-0.7800293,-0.20050049,0.6088257
1603032281238,130,-0.7753906,-0.19854736,0.6112671
1603032281317,131,-0.7766113,-0.2029419,0.6078491
1603032281396,132,-0.77905273,-0.20440674,0.6095581
1603032281474,133,-0.77685547,-0.19976807,0.6088257
1603032281553,134,-0.7775879,-0.2041626,0.605896
1603032281632,135,-0.77856445,-0.20196533,0.6078491
1603032281711,136,-0.7753906,-0.20269775,0.6083374
1603032281789,137,-0.7792969,-0.20196533,0.60565186
1603032281868,138,-0.7788086,-0.206604,0.6063843
1603032281947,139,-0.77905273,-0.20074463,0.6066284
1603032282026,140,-0.77856445,-0.20489502,0.607605
1603032282104,141,-0.77685547,-0.20587158,0.6051636
1603032282183,142,-0.77783203,-0.20367432,0.60565186
1603032282262,143,-0.77978516,-0.20269775,0.6063843
1603032282341,144,-0.77856445,-0.2000122,0.6051636
1603032282419,145,-0.7766113,-0.20245361,0.6071167
1603032282498,146,-0.77734375,-0.2041626,0.6119995
1603032282577,147,-0.77734375,-0.20123291,0.60565186
1603032282656,148,-0.7807617,-0.20587158,0.60809326
1603032282734,149,-0.7792969,-0.19805908,0.6051636
1603032282813,150,-0.779541,-0.20098877,0.6100464
1603032282892,151,-0.779541,-0.20343018,0.60614014
1603032282971,152,-0.7788086,-0.2000122,0.60858154
1603032283049,153,-0.77905273,-0.2000122,0.6078491
1603032283128,154,-0.7780762,-0.20050049,0.6071167
1603032283207,155,-0.7780762,-0.20025635,0.6090698
1603032283286,156,-0.77856445,-0.19830322,0.607605
1603032283364,157,-0.77685547,-0.20050049,0.60736084
1603032283443,158,-0.779541,-0.20050049,0.6088257
1603032283522,159,-0.77685547,-0.1975708,0.6088257
1603032283601,160,-0.77734375,-0.19708252,0.60736084
1603032283679,161,-0.7780762,-0.20269775,0.61102295
1603032283758,162,-0.7788086,-0.20147705,0.6090698
1603032283837,163,-0.77734375,-0.19805908,0.60931396
1603032283916,164,-0.7800293,-0.19805908,0.60858154
1603032283994,165,-0.7775879,-0.20074463,0.6088257
1603032284073,166,-0.77856445,-0.2000122,0.607605
1603032284152,167,-0.77734375,-0.19293213,0.60931396
1603032284231,168,-0.779541,-0.19976807,0.607605
1603032284309,169,-0.779541,-0.19830322,0.60858154
1603032284388,170,-0.77905273,-0.19537354,0.6071167
1603032284467,171,-0.779541,-0.19927979,0.6090698
1603032284546,172,-0.7780762,-0.19805908,0.607605
1603032284624,173,-0.7770996,-0.19683838,0.60858154
1603032284703,174,-0.7775879,-0.19415283,0.60931396
1603032284782,175,-0.7783203,-0.1951294,0.6039429
1603032284861,176,-0.77685547,-0.19927979,0.6088257
1603032284939,177,-0.7788086,-0.19561768,0.61346436
1603032285018,178,-0.77783203,-0.1951294,0.60736084
1603032285097,179,-0.7792969,-0.20025635,0.6088257
1603032285176,180,-0.7783203,-0.19561768,0.60931396
1603032285254,181,-0.77734375,-0.19659424,0.60687256
1603032285333,182,-0.77612305,-0.1987915,0.6107788
1603032285412,183,-0.7775879,-0.1975708,0.60809326
1603032285491,184,-0.7770996,-0.19708252,0.60931396
1603032285569,185,-0.7770996,-0.19805908,0.6088257
1603032285648,186,-0.7775879,-0.19537354,0.61151123
1603032285727,187,-0.77612305,-0.19952393,0.60736084
1603032285806,188,-0.7775879,-0.19293213,0.607605
1603032285884,189,-0.77856445,-0.19854736,0.6117554
1603032285963,190,-0.7763672,-0.19927979,0.61053467
1603032286042,191,-0.77612305,-0.19659424,0.6117554
1603032286121,192,-0.7763672,-0.19781494,0.6112671
1603032286199,193,-0.7775879,-0.20050049,0.60736084
1603032286278,194,-0.779541,-0.20196533,0.6117554
1603032286357,195,-0.7758789,-0.19976807,0.6100464
1603032286436,196,-0.7751465,-0.20074463,0.60858154
1603032286514,197,-0.77612305,-0.19976807,0.6124878
1603032286593,198,-0.7766113,-0.19952393,0.6119995
1603032286672,199,-0.7751465,-0.1963501,0.6102905
1603032286751,200,-0.77734375,-0.20220947,0.6119995
1603032286829,201,-0.77612305,-0.19708252,0.60980225
1603032286908,202,-0.77441406,-0.1975708,0.61273193
1603032286987,203,-0.77319336,-0.19708252,0.61224365
1603032287066,204,-0.77734375,-0.2000122,0.6095581
1603032287144,205,-0.7766113,-0.19927979,0.6137085
1603032287223,206,-0.7766113,-0.19537354,0.61273193
1603032287302,207,-0.7751465,-0.19659424,0.61053467
1603032287381,208,-0.77441406,-0.20025635,0.6112671
1603032287459,209,-0.7763672,-0.19805908,0.61053467
1603032287538,210,-0.7758789,-0.19317627,0.6119995
1603032287617,211,-0.7758789,-0.1987915,0.6107788
1603032287696,212,-0.7746582,-0.19830322,0.61102295
1603032287774,213,-0.7739258,-0.19732666,0.6141968
1603032287853,214,-0.7729492,-0.19830322,0.61346436
1603032287932,215,-0.7753906,-0.19732666,0.6102905
1603032288011,216,-0.77612305,-0.19561768,0.6107788
1603032288089,217,-0.7741699,-0.19488525,0.6144409
1603032288168,218,-0.77319336,-0.19903564,0.6154175
1603032288247,219,-0.7739258,-0.1963501,0.61590576
1603032288326,220,-0.77197266,-0.19781494,0.6154175
1603032288404,221,-0.7741699,-0.19561768,0.6124878
1603032288483,222,-0.7783203,-0.19976807,0.61346436
1603032288562,223,-0.7739258,-0.19781494,0.6154175
1603032288641,224,-0.7722168,-0.19586182,0.6149292
1603032288719,225,-0.7727051,-0.19805908,0.6141968
1603032288798,226,-0.7729492,-0.2000122,0.61590576
1603032288877,227,-0.77319336,-0.2000122,0.6124878
1603032288956,228,-0.7734375,-0.19854736,0.61151123
1603032289034,229,-0.77490234,-0.19561768,0.6107788
1603032289113,230,-0.7729492,-0.19805908,0.61151123
1603032289192,231,-0.77124023,-0.2000122,0.6144409
1603032289271,232,-0.77441406,-0.19781494,0.6112671
1603032289349,233,-0.77319336,-0.20196533,0.6112671
1603032289428,234,-0.7741699,-0.20147705,0.6132202
1603032289507,235,-0.77001953,-0.20220947,0.6107788
1603032289586,236,-0.7722168,-0.2000122,0.6107788
1603032289664,237,-0.77124023,-0.20269775,0.6141968
1603032289743,238,-0.7734375,-0.20147705,0.61151123
1603032289822,239,-0.7729492,-0.20367432,0.6102905
1603032289901,240,-0.77246094,-0.20318604,0.6149292
1603032289979,241,-0.77124023,-0.20440674,0.61517334
1603032290058,242,-0.77246094,-0.20635986,0.6129761
1603032290137,243,-0.7714844,-0.20513916,0.61395264
1603032290216,244,-0.7705078,-0.20220947,0.6144409
1603032290294,245,-0.77563477,-0.20758057,0.6154175
1603032290373,246,-0.77197266,-0.20391846,0.6132202
1603032290452,247,-0.77197266,-0.20220947,0.61346436
1603032290531,248,-0.7714844,-0.20465088,0.6141968
1603032290609,249,-0.7734375,-0.20269775,0.6117554
1603032290688,250,-0.7746582,-0.20123291,0.6119995
1603032290767,251,-0.77197266,-0.20147705,0.6144409
1603032290846,252,-0.77246094,-0.19732666,0.6107788
1603032290924,253,-0.77075195,-0.20025635,0.61712646
1603032291003,254,-0.7702637,-0.2029419,0.61468506
1603032291082,255,-0.77001953,-0.19659424,0.6166382
1603032291161,256,-0.7751465,-0.20050049,0.6144409
1603032291239,257,-0.77075195,-0.20074463,0.6161499
1603032291318,258,-0.7734375,-0.19903564,0.61468506
1603032291397,259,-0.7729492,-0.19708252,0.61590576
1603032291476,260,-0.7734375,-0.19927979,0.6141968
1603032291554,261,-0.76904297,-0.20245361,0.6156616
1603032291633,262,-0.77124023,-0.1987915,0.6149292
1603032291712,263,-0.77368164,-0.19659424,0.61273193
1603032291791,264,-0.77319336,-0.20245361,0.6149292
1603032291869,265,-0.7727051,-0.20098877,0.6185913
1603032291948,266,-0.77197266,-0.19390869,0.6144409
1603032292027,267,-0.7717285,-0.19903564,0.6149292
1603032292106,268,-0.77319336,-0.2000122,0.61273193
1603032292184,269,-0.77246094,-0.20050049,0.61468506
1603032292263,270,-0.7727051,-0.20098877,0.6137085
1603032292342,271,-0.7709961,-0.20074463,0.6168823
1603032292421,272,-0.77124023,-0.1987915,0.61517334
1603032292499,273,-0.7722168,-0.2000122,0.6129761
1603032292578,274,-0.77246094,-0.19903564,0.6141968
1603032292657,275,-0.7734375,-0.19732666,0.6144409
1603032292736,276,-0.7702637,-0.19952393,0.6124878
1603032292814,277,-0.76953125,-0.19708252,0.6154175
1603032292893,278,-0.77197266,-0.19830322,0.6129761
1603032292972,279,-0.77319336,-0.20074463,0.6173706
1603032293051,280,-0.77124023,-0.19805908,0.6173706
1603032293129,281,-0.7722168,-0.19415283,0.61468506
1603032293208,282,-0.7729492,-0.20147705,0.61590576
1603032293287,283,-0.77197266,-0.2000122,0.61712646
1603032293366,284,-0.77368164,-0.19952393,0.6207886
1603032293444,285,-0.77319336,-0.20220947,0.6144409
1603032293523,286,-0.77319336,-0.20098877,0.61590576
1603032293602,287,-0.7702637,-0.20050049,0.6149292
1603032293681,288,-0.77197266,-0.20025635,0.61468506
1603032293759,289,-0.7727051,-0.20098877,0.6149292
1603032293838,290,-0.77246094,-0.20220947,0.61639404
1603032293917,291,-0.77368164,-0.20147705,0.61517334
1603032293996,292,-0.7709961,-0.20196533,0.6132202
1603032294074,293,-0.7727051,-0.20220947,0.6154175
1603032294153,294,-0.77246094,-0.2041626,0.6132202
1603032294232,295,-0.77319336,-0.2029419,0.61346436
1603032294311,296,-0.7714844,-0.20343018,0.6154175
1603032294389,297,-0.7729492,-0.20123291,0.6132202
1603032294468,298,-0.7717285,-0.20318604,0.6166382
1603032294547,299,-0.7702637,-0.20074463,0.61761475
1603032294626,300,-0.7734375,-0.20196533,0.6137085
1603032294704,301,-0.7722168,-0.20172119,0.6156616
1603032294783,302,-0.7714844,-0.19854736,0.6119995
1603032294862,303,-0.77197266,-0.19927979,0.61590576
1603032294941,304,-0.7714844,-0.20050049,0.6137085
1603032295019,305,-0.77075195,-0.19927979,0.61346436
1603032295098,306,-0.77075195,-0.1987915,0.61517334
1603032295177,307,-0.76904297,-0.19903564,0.6161499
1603032295256,308,-0.7739258,-0.19952393,0.61346436
1603032295334,309,-0.77368164,-0.20123291,0.61468506
1603032295413,310,-0.7727051,-0.19854736,0.61712646
1603032295492,311,-0.7697754,-0.19805908,0.6141968
1603032295571,312,-0.77124023,-0.20025635,0.6137085
1603032295649,313,-0.7705078,-0.19805908,0.6166382
1603032295728,314,-0.76953125,-0.19781494,0.6178589
1603032295807,315,-0.77075195,-0.19903564,0.6154175
1603032295886,316,-0.77246094,-0.19976807,0.61639404
1603032295964,317,-0.7705078,-0.19854736,0.6168823
1603032296043,318,-0.7709961,-0.19927979,0.6203003
1603032296122,319,-0.7717285,-0.19732666,0.6168823
1603032296201,320,-0.7714844,-0.19854736,0.6168823
1603032296293,321,-0.76953125,-0.20025635,0.618103
1603032296385,322,-0.7702637,-0.19854736,0.6161499
1603032296478,323,-0.77124023,-0.19976807,0.61834717
1603032296570,324,-0.77197266,-0.19659424,0.6166382
1603032296663,325,-0.77001953,-0.19439697,0.6141968
1603032296755,326,-0.7697754,-0.20025635,0.61639404
1603032296848,327,-0.7692871,-0.20074463,0.61395264
1603032296940,328,-0.7722168,-0.20025635,0.61834717
1603032297033,329,-0.7714844,-0.19830322,0.6190796
1603032297125,330,-0.7702637,-0.19903564,0.61468506
1603032297218,331,-0.77075195,-0.20050049,0.61590576
1603032297310,332,-0.7717285,-0.20245361,0.6168823
1603032297403,333,-0.77124023,-0.19805908,0.61639404
1603032297495,334,-0.77319336,-0.20343018,0.61517334
1603032297588,335,-0.77124023,-0.20050049,0.618103
1603032297680,336,-0.77001953,-0.19976807,0.61761475
1603032297772,337,-0.7702637,-0.20367432,0.61517334
1603032297865,338,-0.7717285,-0.2041626,0.6144409
1603032297957,339,-0.77246094,-0.20147705,0.6137085
1603032298050,340,-0.7722168,-0.20245361,0.6161499
1603032298142,341,-0.7722168,-0.20318604,0.6141968
1603032298235,342,-0.77075195,-0.2029419,0.6132202
1603032298327,343,-0.7729492,-0.20269775,0.6154175
1603032298420,344,-0.7709961,-0.19952393,0.6141968
1603032298512,345,-0.7705078,-0.2041626,0.6173706
1603032298605,346,-0.76953125,-0.2000122,0.6141968
1603032298697,347,-0.7727051,-0.19805908,0.61468506
1603032298790,348,-0.7685547,-0.20050049,0.61639404
1603032298882,349,-0.7714844,-0.20172119,0.6156616
1603032298975,350,-0.7717285,-0.19732666,0.6144409
1603032299067,351,-0.7702637,-0.19708252,0.61346436
1603032299160,352,-0.76904297,-0.19903564,0.6156616
1603032299238,353,-0.7722168,-0.1987915,0.6144409
1603032299317,354,-0.7714844,-0.20196533,0.6154175
1603032299396,355,-0.76953125,-0.1987915,0.6207886
1603032299475,356,-0.77246094,-0.19976807,0.6141968
1603032299553,357,-0.77124023,-0.1987915,0.6190796
1603032299632,358,-0.77001953,-0.19561768,0.61590576
1603032299711,359,-0.77246094,-0.19903564,0.6144409
1603032299790,360,-0.7697754,-0.20074463,0.61639404
1603032299868,361,-0.77001953,-0.19927979,0.62005615
1603032299947,362,-0.7709961,-0.2000122,0.6207886
1603032300026,363,-0.7705078,-0.20098877,0.6161499
1603032300105,364,-0.77001953,-0.19976807,0.6195679
1603032300183,365,-0.76831055,-0.20172119,0.61932373
1603032300262,366,-0.7697754,-0.19683838,0.61834717
1603032300341,367,-0.77197266,-0.19561768,0.61590576
1603032300420,368,-0.77319336,-0.20172119,0.61468506
1603032300498,369,-0.76953125,-0.19854736,0.6173706
1603032300577,370,-0.77001953,-0.19610596,0.618103
1603032300656,371,-0.7687988,-0.19830322,0.61834717
1603032300735,372,-0.77075195,-0.19927979,0.6156616
1603032300813,373,-0.77001953,-0.19976807,0.6161499
1603032300892,374,-0.77075195,-0.19927979,0.6156616
1603032300971,375,-0.7702637,-0.19610596,0.61834717
1603032301050,376,-0.7697754,-0.19708252,0.618103
1603032301128,377,-0.7714844,-0.19659424,0.62054443
1603032301207,378,-0.77197266,-0.20098877,0.6149292
1603032301286,379,-0.77001953,-0.19927979,0.6195679
1603032301365,380,-0.7692871,-0.19976807,0.6168823
1603032301443,381,-0.7705078,-0.19488525,0.6154175
1603032301522,382,-0.7702637,-0.20172119,0.62005615
1603032301601,383,-0.7668457,-0.19903564,0.618103
