# Sensor position: Chest
# Sensor side: Right
# Activity type: Standing
# Activity code: 100
# Subject id: s1764751
timestamp,seq,accel_x,accel_y,accel_z
1602350156180,0,0.06640625,-0.8713989,0.27752686
1602350156258,1,-0.021240234,-0.892395,0.22576904
1602350156337,2,0.03881836,-0.8723755,0.3012085
1602350156416,3,0.044189453,-0.88482666,0.3168335
1602350156495,4,0.048583984,-0.9258423,0.3632202
1602350156573,5,0.053466797,-0.9121704,0.33831787
1602350156652,6,0.059326172,-0.9182739,0.37860107
1602350156731,7,0.064208984,-0.9155884,0.34417725
1602350156810,8,0.07788086,-0.9234009,0.355896
1602350156888,9,0.061767578,-0.8887329,0.36346436
1602350156967,10,0.099365234,-0.90289307,0.38494873
1602350157046,11,0.12573242,-0.9343872,0.42010498
1602350157125,12,0.10180664,-0.93756104,0.40740967
1602350157203,13,0.11328125,-0.93634033,0.39959717
1602350157282,14,0.1184082,-0.94366455,0.39886475
1602350157361,15,0.09790039,-0.9385376,0.38983154
1602350157440,16,0.12011719,-0.93341064,0.3751831
1602350157518,17,0.10961914,-0.95025635,0.3961792
1602350157597,18,0.11279297,-0.944397,0.37908936
1602350157676,19,0.110839844,-0.94903564,0.38885498
1602350157755,20,0.115234375,-0.9483032,0.38031006
1602350157833,21,0.111328125,-0.94488525,0.37493896
1602350157912,22,0.11376953,-0.9507446,0.385437
1602350157991,23,0.111572266,-0.9468384,0.37200928
1602350158070,24,0.11230469,-0.94610596,0.3817749
1602350158148,25,0.11621094,-0.94366455,0.37786865
1602350158227,26,0.11376953,-0.9487915,0.38763428
1602350158306,27,0.11816406,-0.93756104,0.38519287
1602350158385,28,0.1159668,-0.9414673,0.39471436
1602350158463,29,0.118652344,-0.93341064,0.3937378
1602350158542,30,0.119140625,-0.9356079,0.40325928
1602350158621,31,0.13012695,-0.92755127,0.3859253
1602350158700,32,0.12402344,-0.93463135,0.39813232
1602350158778,33,0.1352539,-0.94000244,0.38494873
1602350158857,34,0.14331055,-0.9534302,0.40325928
1602350158936,35,0.13085938,-0.9368286,0.3739624
1602350159015,36,0.14379883,-0.93756104,0.3912964
1602350159093,37,0.13647461,-0.9282837,0.4003296
1602350159172,38,0.13671875,-0.9295044,0.4142456
1602350159251,39,0.13110352,-0.92510986,0.41448975
1602350159330,40,0.13598633,-0.9265747,0.4105835
1602350159408,41,0.12915039,-0.92071533,0.40985107
1602350159487,42,0.13671875,-0.9312134,0.41522217
1602350159566,43,0.13671875,-0.92510986,0.4039917
1602350159645,44,0.13647461,-0.92633057,0.4088745
1602350159723,45,0.13696289,-0.9295044,0.40545654
1602350159802,46,0.14013672,-0.9277954,0.40350342
1602350159881,47,0.14135742,-0.9282837,0.402771
1602350159960,48,0.14160156,-0.93292236,0.402771
1602350160038,49,0.13964844,-0.9260864,0.39471436
1602350160117,50,0.14086914,-0.93292236,0.40863037
1602350160196,51,0.1394043,-0.9248657,0.3998413
1602350160275,52,0.13696289,-0.92803955,0.41204834
1602350160353,53,0.14111328,-0.93048096,0.4130249
1602350160432,54,0.14038086,-0.92559814,0.41131592
1602350160511,55,0.13769531,-0.9209595,0.4100952
1602350160590,56,0.14135742,-0.9229126,0.4154663
1602350160668,57,0.14135742,-0.9204712,0.42279053
1602350160747,58,0.1418457,-0.9180298,0.41204834
1602350160826,59,0.14282227,-0.91900635,0.41815186
1602350160905,60,0.14160156,-0.9155884,0.41766357
1602350160983,61,0.13452148,-0.92071533,0.4159546
1602350161062,62,0.1418457,-0.91729736,0.43011475
1602350161141,63,0.14331055,-0.9302368,0.4393921
1602350161220,64,0.13720703,-0.9121704,0.44769287
1602350161298,65,0.1381836,-0.8921509,0.45892334
1602350161377,66,0.15112305,-0.8916626,0.4869995
1602350161456,67,0.13085938,-0.87384033,0.4899292
1602350161535,68,0.13183594,-0.8648071,0.4953003
1602350161613,69,0.1496582,-0.8694458,0.50457764
1602350161692,70,0.14013672,-0.87213135,0.5331421
1602350161771,71,0.14257812,-0.8530884,0.5211792
1602350161850,72,0.14111328,-0.8545532,0.5504761
1602350161928,73,0.14868164,-0.83135986,0.54974365
1602350162007,74,0.15478516,-0.8267212,0.58099365
1602350162086,75,0.14331055,-0.80841064,0.58636475
1602350162165,76,0.16333008,-0.7944946,0.61151123
1602350162243,77,0.1616211,-0.78375244,0.5914917
1602350162322,78,0.12792969,-0.78204346,0.5997925
1602350162401,79,0.17089844,-0.7817993,0.5922241
1602350162480,80,0.14453125,-0.80010986,0.60491943
1602350162558,81,0.14111328,-0.8237915,0.588562
1602350162637,82,0.14941406,-0.80181885,0.5817261
1602350162716,83,0.14672852,-0.8154907,0.55633545
1602350162795,84,0.16064453,-0.8118286,0.5795288
1602350162873,85,0.1628418,-0.81329346,0.57684326
1602350162952,86,0.15454102,-0.8328247,0.54852295
1602350163031,87,0.15478516,-0.8320923,0.5651245
1602350163110,88,0.14770508,-0.83258057,0.559021
1602350163188,89,0.15014648,-0.8272095,0.543396
1602350163267,90,0.15917969,-0.83551025,0.55755615
1602350163346,91,0.15478516,-0.8362427,0.54315186
1602350163425,92,0.15844727,-0.8418579,0.5343628
1602350163503,93,0.15966797,-0.8447876,0.5404663
1602350163582,94,0.15917969,-0.8521118,0.5385132
1602350163661,95,0.16235352,-0.8479614,0.5343628
1602350163740,96,0.15820312,-0.8508911,0.52874756
1602350163818,97,0.15893555,-0.85528564,0.52679443
1602350163897,98,0.15893555,-0.8569946,0.524353
1602350163976,99,0.16503906,-0.8521118,0.5285034
1602350164055,100,0.15942383,-0.85235596,0.5204468
1602350164133,101,0.16088867,-0.85284424,0.51483154
1602350164212,102,0.15942383,-0.8604126,0.5219116
1602350164291,103,0.15966797,-0.8616333,0.5158081
1602350164370,104,0.15576172,-0.8596802,0.5079956
1602350164448,105,0.15722656,-0.8623657,0.5072632
1602350164527,106,0.15991211,-0.8706665,0.5072632
1602350164606,107,0.1574707,-0.87164307,0.50408936
1602350164685,108,0.1586914,-0.86798096,0.5038452
1602350164763,109,0.15820312,-0.8723755,0.5023804
1602350164842,110,0.15625,-0.86968994,0.49847412
1602350164921,111,0.15112305,-0.8718872,0.49945068
1602350165000,112,0.15820312,-0.8674927,0.5031128
1602350165078,113,0.15600586,-0.86920166,0.5050659
1602350165157,114,0.1508789,-0.8735962,0.49700928
1602350165236,115,0.14916992,-0.8713989,0.49627686
1602350165315,116,0.15307617,-0.87286377,0.50213623
1602350165393,117,0.15112305,-0.8740845,0.5006714
1602350165472,118,0.1508789,-0.8723755,0.49920654
1602350165551,119,0.15161133,-0.8689575,0.5026245
1602350165630,120,0.15136719,-0.8677368,0.5023804
1602350165708,121,0.15673828,-0.86798096,0.5072632
1602350165787,122,0.14941406,-0.86383057,0.49920654
1602350165866,123,0.1550293,-0.8694458,0.5084839
1602350165945,124,0.15600586,-0.8640747,0.5036011
1602350166023,125,0.15429688,-0.866272,0.5038452
1602350166102,126,0.15332031,-0.8648071,0.50579834
1602350166181,127,0.15576172,-0.86676025,0.5079956
1602350166260,128,0.15576172,-0.86505127,0.50946045
1602350166338,129,0.15625,-0.864563,0.50994873
1602350166417,130,0.15576172,-0.8604126,0.5075073
1602350166496,131,0.16015625,-0.86260986,0.5206909
1602350166575,132,0.16088867,-0.8591919,0.5114136
1602350166653,133,0.16333008,-0.8574829,0.508728
1602350166732,134,0.16186523,-0.86065674,0.5199585
1602350166811,135,0.16064453,-0.86016846,0.5092163
1602350166890,136,0.16064453,-0.86260986,0.51190186
1602350166968,137,0.16235352,-0.8635864,0.51116943
1602350167047,138,0.16357422,-0.8574829,0.50897217
1602350167126,139,0.15771484,-0.86724854,0.5101929
1602350167205,140,0.16186523,-0.8633423,0.50994873
1602350167283,141,0.15942383,-0.8609009,0.512146
1602350167362,142,0.16137695,-0.8652954,0.5162964
1602350167441,143,0.15893555,-0.8648071,0.50823975
1602350167520,144,0.15844727,-0.8657837,0.50579834
1602350167598,145,0.1616211,-0.86505127,0.50775146
1602350167677,146,0.16137695,-0.8621216,0.5084839
1602350167756,147,0.16186523,-0.86505127,0.51190186
1602350167835,148,0.15576172,-0.8665161,0.5133667
1602350167913,149,0.15795898,-0.8623657,0.5026245
1602350167992,150,0.1550293,-0.8689575,0.51312256
1602350168071,151,0.1508789,-0.8689575,0.5038452
1602350168150,152,0.15112305,-0.86968994,0.5079956
1602350168228,153,0.15478516,-0.86553955,0.5079956
1602350168307,154,0.15405273,-0.8616333,0.510437
1602350168386,155,0.15722656,-0.8665161,0.5133667
1602350168465,156,0.15258789,-0.86260986,0.51116943
1602350168543,157,0.15625,-0.85772705,0.5072632
1602350168622,158,0.15478516,-0.86602783,0.51605225
1602350168701,159,0.15356445,-0.86016846,0.50775146
1602350168780,160,0.1550293,-0.86065674,0.51898193
1602350168878,161,0.15820312,-0.86138916,0.51849365
1602350168977,162,0.15551758,-0.85357666,0.50946045
1602350169076,163,0.16210938,-0.86309814,0.52264404
1602350169175,164,0.15795898,-0.8526001,0.52264404
1602350169274,165,0.16259766,-0.84991455,0.52093506
1602350169373,166,0.16333008,-0.8530884,0.53533936
1602350169471,167,0.15600586,-0.84820557,0.5162964
1602350169570,168,0.16088867,-0.8484497,0.5285034
1602350169669,169,0.15942383,-0.85113525,0.52752686
1602350169768,170,0.16186523,-0.85162354,0.52264404
1602350169867,171,0.16894531,-0.85650635,0.52948
1602350169966,172,0.1574707,-0.85406494,0.5211792
1602350170064,173,0.16625977,-0.85162354,0.5265503
1602350170163,174,0.16333008,-0.8533325,0.5206909
1602350170262,175,0.16333008,-0.8526001,0.5199585
1602350170361,176,0.16088867,-0.8557739,0.5194702
1602350170460,177,0.1616211,-0.85943604,0.52142334
1602350170559,178,0.1616211,-0.8530884,0.51971436
1602350170658,179,0.16113281,-0.86187744,0.5133667
1602350170756,180,0.16503906,-0.8496704,0.5241089
1602350170855,181,0.16455078,-0.85040283,0.5231323
1602350170954,182,0.16259766,-0.85723877,0.5307007
1602350171053,183,0.16088867,-0.8543091,0.5162964
1602350171152,184,0.16259766,-0.85772705,0.52630615
1602350171251,185,0.15966797,-0.86065674,0.51361084
1602350171349,186,0.15844727,-0.85723877,0.51361084
1602350171448,187,0.16088867,-0.8604126,0.5219116
1602350171547,188,0.15771484,-0.85772705,0.51239014
1602350171646,189,0.16357422,-0.8591919,0.5165405
1602350171745,190,0.15771484,-0.861145,0.51898193
1602350171844,191,0.15795898,-0.8574829,0.50701904
1602350171943,192,0.15625,-0.8579712,0.5199585
1602350172021,193,0.15698242,-0.85650635,0.51849365
1602350172100,194,0.15893555,-0.85821533,0.5187378
1602350172179,195,0.15649414,-0.85357666,0.5153198
1602350172258,196,0.15942383,-0.86016846,0.5199585
1602350172336,197,0.16308594,-0.85357666,0.5165405
1602350172415,198,0.16137695,-0.8574829,0.5211792
1602350172494,199,0.1616211,-0.8557739,0.5153198
1602350172573,200,0.15771484,-0.86431885,0.5128784
1602350172651,201,0.16430664,-0.8477173,0.53704834
1602350172730,202,0.17895508,-0.8406372,0.5219116
1602350172809,203,0.18579102,-0.8477173,0.527771
1602350172888,204,0.17919922,-0.84381104,0.5289917
1602350172966,205,0.17675781,-0.83721924,0.5372925
1602350173045,206,0.17626953,-0.83795166,0.53533936
1602350173124,207,0.16601562,-0.8413696,0.53656006
1602350173203,208,0.16918945,-0.84820557,0.51605225
1602350173281,209,0.16748047,-0.8574829,0.513855
1602350173360,210,0.16821289,-0.86016846,0.5153198
1602350173439,211,0.1652832,-0.86187744,0.5036011
1602350173518,212,0.16455078,-0.86553955,0.494812
1602350173596,213,0.16723633,-0.8740845,0.5075073
1602350173675,214,0.16503906,-0.87091064,0.48675537
1602350173754,215,0.16796875,-0.8699341,0.49432373
1602350173833,216,0.16894531,-0.87164307,0.4911499
1602350173911,217,0.16601562,-0.8723755,0.48431396
1602350173990,218,0.16601562,-0.87628174,0.4911499
1602350174069,219,0.16796875,-0.880188,0.48675537
1602350174148,220,0.16772461,-0.8731079,0.4850464
1602350174226,221,0.16503906,-0.878479,0.48016357
1602350174305,222,0.16796875,-0.8753052,0.4857788
1602350174384,223,0.17016602,-0.87579346,0.4845581
1602350174463,224,0.16699219,-0.8796997,0.4833374
1602350174541,225,0.16748047,-0.8772583,0.48114014
1602350174620,226,0.16357422,-0.8779907,0.480896
1602350174699,227,0.16137695,-0.880188,0.48187256
1602350174778,228,0.16625977,-0.8760376,0.48309326
1602350174856,229,0.16137695,-0.8831177,0.48260498
1602350174935,230,0.16918945,-0.87994385,0.4874878
1602350175014,231,0.16430664,-0.88067627,0.480896
1602350175093,232,0.16186523,-0.8858032,0.4804077
1602350175171,233,0.16064453,-0.8814087,0.47576904
1602350175250,234,0.16137695,-0.881897,0.47406006
1602350175329,235,0.15795898,-0.881897,0.47772217
1602350175408,236,0.15893555,-0.8809204,0.47772217
1602350175486,237,0.15893555,-0.8821411,0.47576904
1602350175565,238,0.15234375,-0.8855591,0.48065186
1602350175644,239,0.16088867,-0.88067627,0.48016357
1602350175723,240,0.15551758,-0.8855591,0.47943115
1602350175801,241,0.15917969,-0.87994385,0.4767456
1602350175880,242,0.15478516,-0.8804321,0.47479248
1602350175959,243,0.15942383,-0.8789673,0.48553467
1602350176038,244,0.16040039,-0.87872314,0.48480225
1602350176116,245,0.1628418,-0.8765259,0.48260498
1602350176195,246,0.15991211,-0.87579346,0.4869995
1602350176274,247,0.16967773,-0.87579346,0.49041748
1602350176353,248,0.16479492,-0.87677,0.4899292
1602350176431,249,0.16113281,-0.8735962,0.4857788
1602350176510,250,0.1628418,-0.87335205,0.48651123
1602350176589,251,0.16357422,-0.87579346,0.4882202
1602350176668,252,0.16333008,-0.8755493,0.480896
1602350176746,253,0.15991211,-0.8753052,0.4821167
1602350176825,254,0.16333008,-0.87823486,0.4928589
1602350176904,255,0.1640625,-0.8789673,0.48236084
1602350176983,256,0.16113281,-0.8789673,0.48309326
1602350177061,257,0.16381836,-0.87701416,0.48480225
1602350177140,258,0.16357422,-0.8792114,0.4833374
1602350177219,259,0.16723633,-0.8789673,0.48553467
1602350177298,260,0.17089844,-0.8753052,0.48187256
1602350177376,261,0.1640625,-0.8755493,0.47650146
1602350177455,262,0.16210938,-0.8831177,0.48944092
1602350177534,263,0.16821289,-0.88067627,0.4755249
1602350177613,264,0.16308594,-0.88409424,0.47821045
1602350177691,265,0.16088867,-0.8850708,0.48138428
1602350177770,266,0.16015625,-0.8833618,0.4730835
1602350177849,267,0.16088867,-0.89068604,0.47479248
1602350177928,268,0.15966797,-0.88604736,0.47747803
1602350178006,269,0.15356445,-0.8831177,0.46575928
1602350178085,270,0.16088867,-0.8880005,0.4833374
1602350178164,271,0.15917969,-0.88116455,0.46844482
1602350178243,272,0.15771484,-0.8831177,0.47698975
1602350178321,273,0.15991211,-0.88360596,0.47894287
1602350178400,274,0.15454102,-0.8875122,0.4755249
1602350178479,275,0.15527344,-0.88531494,0.47406006
1602350178558,276,0.15771484,-0.8826294,0.4730835
1602350178636,277,0.15332031,-0.88482666,0.47161865
1602350178715,278,0.15893555,-0.8867798,0.47503662
1602350178794,279,0.15771484,-0.88287354,0.46966553
1602350178873,280,0.16503906,-0.8845825,0.47528076
1602350178951,281,0.15893555,-0.8858032,0.47772217
1602350179030,282,0.16333008,-0.88067627,0.47454834
1602350179109,283,0.16088867,-0.88482666,0.4821167
1602350179188,284,0.16821289,-0.87677,0.48382568
1602350179266,285,0.16137695,-0.8777466,0.48187256
1602350179345,286,0.16113281,-0.8789673,0.4706421
1602350179424,287,0.16674805,-0.8765259,0.49310303
1602350179503,288,0.16748047,-0.8779907,0.4804077
1602350179581,289,0.1640625,-0.87701416,0.47894287
1602350179660,290,0.16772461,-0.8772583,0.48260498
1602350179739,291,0.16552734,-0.87628174,0.47698975
1602350179818,292,0.16821289,-0.8789673,0.48187256
1602350179896,293,0.16748047,-0.878479,0.47869873
1602350179975,294,0.1694336,-0.8789673,0.47869873
1602350180054,295,0.1640625,-0.8831177,0.46600342
1602350180133,296,0.16918945,-0.88165283,0.48382568
1602350180211,297,0.16772461,-0.88238525,0.4743042
1602350180290,298,0.16796875,-0.88116455,0.47576904
1602350180369,299,0.1628418,-0.8858032,0.4718628
1602350180448,300,0.16723633,-0.8850708,0.47894287
1602350180526,301,0.1628418,-0.8880005,0.47528076
1602350180605,302,0.16259766,-0.88238525,0.47113037
1602350180684,303,0.16015625,-0.8792114,0.4725952
1602350180763,304,0.16235352,-0.8870239,0.47991943
1602350180841,305,0.16040039,-0.8831177,0.4755249
1602350180920,306,0.16333008,-0.88360596,0.47332764
1602350180999,307,0.15966797,-0.8858032,0.4767456
1602350181078,308,0.16015625,-0.88360596,0.4784546
1602350181156,309,0.1574707,-0.8826294,0.4767456
1602350181235,310,0.15795898,-0.88604736,0.479187
1602350181314,311,0.15771484,-0.8855591,0.4718628
1602350181393,312,0.16015625,-0.87994385,0.47283936
1602350181471,313,0.16455078,-0.8855591,0.48284912
1602350181550,314,0.1665039,-0.88360596,0.47332764
1602350181629,315,0.16821289,-0.88360596,0.47821045
1602350181708,316,0.16772461,-0.8772583,0.48309326
1602350181786,317,0.16967773,-0.8831177,0.47528076
1602350181865,318,0.16552734,-0.8809204,0.47698975
1602350181944,319,0.17089844,-0.88238525,0.4796753
1602350182023,320,0.16748047,-0.878479,0.4767456
1602350182101,321,0.16967773,-0.8792114,0.479187
1602350182180,322,0.16967773,-0.8862915,0.47113037
1602350182259,323,0.171875,-0.881897,0.4821167
1602350182338,324,0.17163086,-0.8838501,0.47381592
1602350182416,325,0.17285156,-0.88409424,0.46624756
1602350182495,326,0.17016602,-0.8804321,0.47772217
1602350182574,327,0.16918945,-0.8855591,0.47113037
1602350182653,328,0.16894531,-0.8858032,0.4701538
1602350182731,329,0.16967773,-0.89019775,0.4701538
1602350182810,330,0.17382812,-0.8858032,0.46575928
1602350182889,331,0.17089844,-0.89312744,0.4616089
1602350182968,332,0.17089844,-0.88775635,0.46990967
1602350183046,333,0.17407227,-0.8875122,0.46600342
1602350183125,334,0.171875,-0.8882446,0.4647827
1602350183204,335,0.17016602,-0.88531494,0.45843506
1602350183283,336,0.17089844,-0.8882446,0.46722412
1602350183361,337,0.17382812,-0.8897095,0.46258545
1602350183440,338,0.16796875,-0.89141846,0.46673584
1602350183519,339,0.16625977,-0.8862915,0.45770264
1602350183598,340,0.17163086,-0.8945923,0.4689331
1602350183676,341,0.16625977,-0.8870239,0.45892334
1602350183755,342,0.16699219,-0.88897705,0.45892334
1602350183834,343,0.16308594,-0.8880005,0.46429443
1602350183913,344,0.16699219,-0.8892212,0.45843506
1602350183991,345,0.16601562,-0.89312744,0.46307373
1602350184070,346,0.16601562,-0.8892212,0.4677124
1602350184149,347,0.16748047,-0.8875122,0.465271
1602350184228,348,0.1665039,-0.88848877,0.45941162
1602350184306,349,0.17089844,-0.8892212,0.4706421
1602350184385,350,0.16748047,-0.8892212,0.4628296
1602350184464,351,0.17333984,-0.8880005,0.46502686
1602350184543,352,0.16723633,-0.8867798,0.4664917
1602350184621,353,0.16918945,-0.88848877,0.46185303
1602350184700,354,0.16821289,-0.8897095,0.46624756
1602350184779,355,0.171875,-0.8882446,0.4628296
1602350184858,356,0.1694336,-0.8899536,0.46453857
1602350184936,357,0.16699219,-0.8904419,0.45721436
1602350185015,358,0.16992188,-0.89434814,0.46575928
1602350185094,359,0.16772461,-0.8921509,0.45648193
1602350185173,360,0.16674805,-0.8936157,0.4616089
1602350185251,361,0.17041016,-0.88653564,0.4677124
1602350185330,362,0.16967773,-0.892395,0.46063232
1602350185409,363,0.17260742,-0.8880005,0.46258545
1602350185488,364,0.17138672,-0.89141846,0.46136475
1602350185566,365,0.16503906,-0.88604736,0.46307373
1602350185645,366,0.1652832,-0.892395,0.46209717
1602350185724,367,0.16455078,-0.89190674,0.46380615
1602350185803,368,0.16845703,-0.89141846,0.46380615
1602350185881,369,0.16455078,-0.8880005,0.46600342
1602350185960,370,0.16845703,-0.8887329,0.46380615
1602350186039,371,0.1628418,-0.8911743,0.46380615
1602350186118,372,0.16503906,-0.89068604,0.4640503
1602350186196,373,0.1628418,-0.88897705,0.46014404
1602350186275,374,0.16235352,-0.8892212,0.4628296
1602350186354,375,0.16113281,-0.89190674,0.4623413
1602350186433,376,0.16088867,-0.8904419,0.46063232
1602350186511,377,0.16479492,-0.89508057,0.46600342
1602350186590,378,0.16699219,-0.89434814,0.46331787
1602350186669,379,0.16601562,-0.89385986,0.46087646
1602350186748,380,0.16577148,-0.8899536,0.46551514
1602350186826,381,0.16308594,-0.8897095,0.45916748
1602350186905,382,0.16723633,-0.8882446,0.46600342
1602350186984,383,0.16723633,-0.88897705,0.46307373
1602350187063,384,0.16748047,-0.89312744,0.46575928
1602350187141,385,0.16430664,-0.88531494,0.46014404
1602350187220,386,0.16870117,-0.8945923,0.46185303
1602350187299,387,0.16577148,-0.89141846,0.46038818
1602350187378,388,0.1665039,-0.892395,0.45819092
1602350187456,389,0.16748047,-0.89141846,0.46014404
1602350187535,390,0.16479492,-0.88946533,0.4574585
1602350187614,391,0.16748047,-0.89068604,0.4569702
1602350187693,392,0.16796875,-0.8916626,0.4616089
1602350187771,393,0.16577148,-0.89971924,0.44818115
1602350187850,394,0.17016602,-0.89434814,0.4647827
1602350187929,395,0.16259766,-0.89630127,0.447937
1602350188008,396,0.16894531,-0.8960571,0.4537964
1602350188086,397,0.16674805,-0.8945923,0.44989014
1602350188165,398,0.15966797,-0.8994751,0.45355225
1602350188244,399,0.16796875,-0.9006958,0.44647217
1602350188323,400,0.16064453,-0.8994751,0.4454956
1602350188401,401,0.15429688,-0.90045166,0.46014404
1602350188480,402,0.1652832,-0.89385986,0.4472046
1602350188559,403,0.15283203,-0.90948486,0.4677124
1602350188638,404,0.1616211,-0.89434814,0.44940186
1602350188716,405,0.14453125,-0.8928833,0.4598999
1602350188795,406,0.15161133,-0.8904419,0.46600342
1602350188874,407,0.14331055,-0.8936157,0.45672607
1602350188953,408,0.14208984,-0.8921509,0.45916748
1602350189031,409,0.14648438,-0.8916626,0.46014404
1602350189110,410,0.15551758,-0.90338135,0.45526123
1602350189189,411,0.13208008,-0.90167236,0.43719482
1602350189268,412,0.13745117,-0.9168091,0.44036865
1602350189346,413,0.15063477,-0.9126587,0.43426514
1602350189425,414,0.12963867,-0.91973877,0.42181396
1602350189504,415,0.14257812,-0.9260864,0.42352295
