# Sensor position: Front pocket (trouser)
# Sensor side: Left
# Activity type: Sitting bent backward
# Activity code: 5
# Subject id: s1751093
timestamp,seq,accel_x,accel_y,accel_z
1603724415403,0,0.7167969,0.36224365,0.46307373
1603724415481,1,0.7150879,0.36517334,0.46185303
1603724415560,2,0.7116699,0.3661499,0.46331787
1603724415639,3,0.7163086,0.36566162,0.45794678
1603724415718,4,0.71606445,0.36444092,0.45892334
1603724415796,5,0.71313477,0.36688232,0.46209717
1603724415875,6,0.71484375,0.36395264,0.46209717
1603724415954,7,0.7158203,0.36444092,0.45892334
1603724416033,8,0.71313477,0.36468506,0.46063232
1603724416111,9,0.71655273,0.36444092,0.4598999
1603724416190,10,0.71606445,0.36395264,0.45941162
1603724416269,11,0.71606445,0.3649292,0.4616089
1603724416348,12,0.7141113,0.36468506,0.46063232
1603724416426,13,0.7155762,0.36639404,0.4611206
1603724416505,14,0.71606445,0.36761475,0.46258545
1603724416584,15,0.7145996,0.3637085,0.46209717
1603724416663,16,0.71484375,0.3661499,0.46063232
1603724416741,17,0.71533203,0.36419678,0.46185303
1603724416820,18,0.7175293,0.36517334,0.4616089
1603724416899,19,0.71655273,0.36517334,0.45916748
1603724416978,20,0.71435547,0.36444092,0.46038818
1603724417056,21,0.7150879,0.36468506,0.46380615
1603724417135,22,0.7155762,0.3673706,0.4598999
1603724417214,23,0.7141113,0.36444092,0.46014404
1603724417293,24,0.7175293,0.3632202,0.45965576
1603724417371,25,0.71533203,0.36566162,0.4628296
1603724417450,26,0.71606445,0.36419678,0.46136475
1603724417529,27,0.71533203,0.36517334,0.4647827
1603724417608,28,0.7158203,0.36395264,0.45965576
1603724417686,29,0.7158203,0.36224365,0.46063232
1603724417765,30,0.71875,0.36688232,0.4611206
1603724417844,31,0.71533203,0.37420654,0.44744873
1603724417923,32,0.7001953,0.38201904,0.45672607
1603724418001,33,0.7060547,0.36468506,0.46209717
1603724418080,34,0.7026367,0.36395264,0.4586792
1603724418159,35,0.704834,0.38641357,0.465271
1603724418238,36,0.72753906,0.33319092,0.47406006
1603724418316,37,0.74731445,0.33270264,0.4550171
1603724418395,38,0.7294922,0.3217163,0.48358154
1603724418474,39,0.7272949,0.31097412,0.496521
1603724418553,40,0.7409668,0.25115967,0.4862671
1603724418631,41,0.73095703,0.27630615,0.47210693
1603724418710,42,0.71484375,0.3217163,0.5031128
1603724418789,43,0.74902344,0.2675171,0.45941162
1603724418868,44,0.7751465,0.26483154,0.44744873
1603724418946,45,0.7548828,0.27069092,0.47113037
1603724419025,46,0.765625,0.2555542,0.45672607
1603724419104,47,0.7651367,0.26287842,0.46844482
1603724419183,48,0.75146484,0.2838745,0.4310913
1603724419261,49,0.7524414,0.27874756,0.43475342
1603724419340,50,0.76904297,0.2592163,0.42132568
1603724419419,51,0.8000488,0.23944092,0.4179077
1603724419498,52,0.77783203,0.22210693,0.4196167
1603724419576,53,0.80322266,0.24945068,0.44891357
1603724419655,54,0.74072266,0.215271,0.4677124
1603724419734,55,0.77856445,0.2321167,0.4545288
1603724419813,56,0.76342773,0.23162842,0.45672607
1603724419891,57,0.76342773,0.23358154,0.47454834
1603724419970,58,0.7648926,0.23284912,0.46063232
1603724420049,59,0.7661133,0.23529053,0.4694214
1603724420128,60,0.7644043,0.23724365,0.46331787
1603724420206,61,0.77124023,0.2453003,0.45184326
1603724420285,62,0.76464844,0.24700928,0.46209717
1603724420364,63,0.7602539,0.23699951,0.46331787
1603724420443,64,0.7570801,0.24090576,0.47113037
1603724420550,65,0.76538086,0.23846436,0.4623413
1603724420658,66,0.76831055,0.23675537,0.45648193
1603724420765,67,0.7626953,0.24578857,0.46502686
1603724420873,68,0.76123047,0.24383545,0.463562
1603724420980,69,0.76342773,0.2423706,0.46038818
1603724421088,70,0.7624512,0.2453003,0.46185303
1603724421195,71,0.7631836,0.24066162,0.46331787
1603724421303,72,0.7626953,0.24285889,0.45941162
1603724421410,73,0.7675781,0.24261475,0.45843506
1603724421518,74,0.76708984,0.24261475,0.4598999
1603724421625,75,0.76171875,0.24456787,0.46307373
1603724421733,76,0.7578125,0.24993896,0.46722412
1603724421840,77,0.7548828,0.2453003,0.47454834
1603724421948,78,0.7546387,0.23822021,0.47576904
1603724422055,79,0.7651367,0.23626709,0.4701538
1603724422163,80,0.7705078,0.24285889,0.4623413
1603724422271,81,0.75683594,0.24725342,0.46624756
1603724422378,82,0.76049805,0.24090576,0.46697998
1603724422486,83,0.77075195,0.24505615,0.45819092
1603724422593,84,0.75878906,0.24603271,0.4640503
1603724422701,85,0.75219727,0.24578857,0.47528076
1603724422808,86,0.75146484,0.24700928,0.4701538
1603724422916,87,0.76586914,0.23895264,0.4611206
1603724423023,88,0.7722168,0.23480225,0.4545288
1603724423131,89,0.77612305,0.2411499,0.45111084
1603724423238,90,0.77905273,0.24383545,0.4225464
1603724423346,91,0.7775879,0.24603271,0.4130249
1603724423453,92,0.7722168,0.24945068,0.4472046
1603724423561,93,0.795166,0.19256592,0.46575928
1603724423668,94,0.7910156,0.16448975,0.44891357
1603724423776,95,0.7570801,0.20306396,0.48138428
1603724423884,96,0.7524414,0.23431396,0.47650146
1603724423946,97,0.7739258,0.22283936,0.45672607
1603724424009,98,0.7751465,0.21966553,0.46136475
1603724424071,99,0.76586914,0.2218628,0.46917725
1603724424134,100,0.7614746,0.21356201,0.47381592
1603724424196,101,0.77001953,0.2074585,0.46746826
1603724424259,102,0.77197266,0.22161865,0.4611206
1603724424321,103,0.763916,0.22747803,0.47406006
1603724424384,104,0.7668457,0.21844482,0.46990967
1603724424446,105,0.76416016,0.22210693,0.4767456
1603724424509,106,0.7651367,0.2243042,0.4730835
1603724424571,107,0.7702637,0.21942139,0.4628296
1603724424634,108,0.7636719,0.21795654,0.46966553
1603724424696,109,0.763916,0.21966553,0.47332764
1603724424759,110,0.76953125,0.22161865,0.46966553
1603724424821,111,0.7651367,0.22235107,0.4713745
1603724424884,112,0.7626953,0.22528076,0.46746826
1603724424947,113,0.7663574,0.22357178,0.47332764
1603724425009,114,0.7644043,0.22088623,0.47039795
1603724425072,115,0.7636719,0.22479248,0.46990967
1603724425134,116,0.76123047,0.22528076,0.4706421
1603724425197,117,0.76660156,0.22406006,0.4689331
1603724425259,118,0.7648926,0.22406006,0.47113037
1603724425322,119,0.7602539,0.2230835,0.47454834
1603724425384,120,0.76171875,0.22113037,0.4713745
1603724425447,121,0.7619629,0.22845459,0.47625732
1603724425509,122,0.76171875,0.22479248,0.4725952
1603724425572,123,0.763916,0.22283936,0.4725952
1603724425634,124,0.76049805,0.22161865,0.47406006
1603724425697,125,0.7626953,0.22113037,0.47528076
1603724425759,126,0.7651367,0.22503662,0.46990967
1603724425822,127,0.7626953,0.22869873,0.47625732
1603724425885,128,0.7614746,0.22576904,0.4755249
1603724425963,129,0.7626953,0.22332764,0.47381592
1603724426042,130,0.76123047,0.22259521,0.4725952
1603724426121,131,0.7651367,0.22210693,0.47235107
1603724426200,132,0.76123047,0.2243042,0.4730835
1603724426278,133,0.7614746,0.22601318,0.47479248
1603724426357,134,0.7631836,0.22528076,0.4706421
1603724426436,135,0.7644043,0.22406006,0.47039795
1603724426515,136,0.76220703,0.22576904,0.47283936
1603724426593,137,0.7619629,0.22503662,0.47161865
1603724426672,138,0.76538086,0.22064209,0.47113037
1603724426751,139,0.7609863,0.22723389,0.47625732
1603724426830,140,0.7619629,0.22723389,0.47161865
1603724426908,141,0.7619629,0.2243042,0.4743042
1603724426987,142,0.76416016,0.22406006,0.47503662
1603724427066,143,0.76416016,0.2267456,0.47381592
1603724427145,144,0.7624512,0.22381592,0.4725952
1603724427223,145,0.7626953,0.22503662,0.4725952
1603724427302,146,0.7626953,0.22625732,0.4725952
1603724427381,147,0.76293945,0.22357178,0.4725952
1603724427460,148,0.7636719,0.22210693,0.4718628
1603724427538,149,0.76171875,0.2243042,0.4730835
1603724427617,150,0.7624512,0.2243042,0.4713745
1603724427696,151,0.7648926,0.22454834,0.4725952
1603724427775,152,0.76049805,0.22601318,0.4725952
1603724427853,153,0.7609863,0.22406006,0.47283936
1603724427932,154,0.76538086,0.22088623,0.47210693
1603724428011,155,0.763916,0.22454834,0.47406006
1603724428090,156,0.76171875,0.22283936,0.47283936
1603724428168,157,0.76342773,0.22332764,0.4725952
1603724428247,158,0.76049805,0.22235107,0.47357178
1603724428326,159,0.763916,0.22503662,0.4743042
1603724428405,160,0.765625,0.2243042,0.4743042
1603724428483,161,0.7624512,0.22625732,0.47381592
1603724428562,162,0.76416016,0.22601318,0.47088623
1603724428641,163,0.76342773,0.2230835,0.4718628
1603724428720,164,0.76220703,0.22698975,0.47357178
1603724428798,165,0.7631836,0.22454834,0.47357178
1603724428877,166,0.76220703,0.22332764,0.47161865
1603724428956,167,0.76220703,0.22332764,0.4725952
1603724429035,168,0.76220703,0.22454834,0.47576904
1603724429113,169,0.7644043,0.22821045,0.47283936
1603724429192,170,0.76220703,0.2243042,0.4718628
1603724429271,171,0.7636719,0.22479248,0.47479248
1603724429350,172,0.7626953,0.2230835,0.4725952
1603724429428,173,0.7626953,0.2255249,0.4718628
1603724429507,174,0.7648926,0.22650146,0.4730835
1603724429586,175,0.7614746,0.2243042,0.47528076
1603724429665,176,0.7619629,0.2243042,0.47454834
1603724429743,177,0.76342773,0.2255249,0.47283936
1603724429822,178,0.76293945,0.22747803,0.46990967
1603724429901,179,0.7648926,0.2230835,0.47454834
1603724429980,180,0.7626953,0.22406006,0.47210693
1603724430058,181,0.76416016,0.22796631,0.47088623
1603724430137,182,0.7626953,0.2243042,0.4694214
1603724430216,183,0.76220703,0.22454834,0.4701538
1603724430295,184,0.76220703,0.22161865,0.47283936
1603724430373,185,0.76171875,0.21990967,0.47332764
1603724430452,186,0.7624512,0.22503662,0.47406006
1603724430531,187,0.7609863,0.22650146,0.47503662
1603724430610,188,0.76171875,0.2255249,0.47479248
1603724430688,189,0.7619629,0.22113037,0.47625732
1603724430767,190,0.7636719,0.2255249,0.47650146
1603724430846,191,0.7644043,0.22113037,0.47283936
1603724430925,192,0.7602539,0.22601318,0.4725952
1603724431003,193,0.76220703,0.22723389,0.47357178
1603724431082,194,0.76171875,0.22454834,0.4706421
1603724431161,195,0.7648926,0.22259521,0.4730835
1603724431240,196,0.75927734,0.22283936,0.47869873
1603724431318,197,0.76293945,0.22454834,0.46966553
1603724431397,198,0.763916,0.22528076,0.47161865
1603724431476,199,0.7644043,0.2255249,0.4730835
1603724431555,200,0.75878906,0.2255249,0.47332764
1603724431633,201,0.75927734,0.22039795,0.4725952
1603724431712,202,0.7675781,0.2267456,0.4689331
1603724431791,203,0.76708984,0.2296753,0.46575928
1603724431870,204,0.7624512,0.22406006,0.47528076
1603724431948,205,0.7619629,0.22039795,0.4730835
1603724432027,206,0.7631836,0.22210693,0.47381592
1603724432106,207,0.765625,0.2243042,0.46990967
1603724432185,208,0.7624512,0.2230835,0.47454834
1603724432263,209,0.76049805,0.22332764,0.47113037
1603724432342,210,0.7614746,0.21990967,0.47357178
1603724432421,211,0.76904297,0.22845459,0.47283936
1603724432500,212,0.75756836,0.2230835,0.46966553
1603724432578,213,0.7609863,0.22283936,0.4767456
1603724432657,214,0.7636719,0.22039795,0.47235107
1603724432736,215,0.76904297,0.22381592,0.4730835
1603724432815,216,0.75683594,0.22918701,0.4784546
1603724432893,217,0.7624512,0.23040771,0.47381592
1603724432972,218,0.7668457,0.22357178,0.46868896
1603724433051,219,0.7585449,0.21746826,0.4755249
1603724433130,220,0.7573242,0.21966553,0.48016357
1603724433208,221,0.76342773,0.2243042,0.47650146
1603724433287,222,0.7619629,0.22943115,0.4725952
1603724433366,223,0.7595215,0.23114014,0.47381592
1603724433445,224,0.7626953,0.2218628,0.480896
1603724433523,225,0.7614746,0.22283936,0.47821045
1603724433602,226,0.7668457,0.22210693,0.4694214
1603724433681,227,0.75927734,0.22503662,0.47650146
1603724433760,228,0.7619629,0.2333374,0.4772339
1603724433838,229,0.7507324,0.22991943,0.47528076
1603724433917,230,0.7570801,0.22991943,0.47406006
1603724433996,231,0.76904297,0.23431396,0.46673584
1603724434075,232,0.76464844,0.23406982,0.4647827
1603724434153,233,0.7583008,0.22869873,0.47821045
1603724434232,234,0.75561523,0.23382568,0.4784546
1603724434311,235,0.7626953,0.23358154,0.46820068
1603724434390,236,0.7614746,0.22869873,0.47161865
1603724434468,237,0.75561523,0.2333374,0.47991943
1603724434547,238,0.765625,0.23309326,0.4664917
1603724434626,239,0.75561523,0.23138428,0.47454834
1603724434705,240,0.7561035,0.23065186,0.47406006
1603724434783,241,0.7619629,0.23236084,0.46990967
1603724434862,242,0.76416016,0.230896,0.4730835
1603724434941,243,0.75805664,0.23065186,0.47747803
1603724435020,244,0.7546387,0.230896,0.48114014
1603724435098,245,0.76049805,0.2267456,0.47747803
1603724435177,246,0.75756836,0.22796631,0.48260498
1603724435256,247,0.75512695,0.22698975,0.48138428
1603724435335,248,0.7590332,0.22894287,0.4804077
1603724435413,249,0.7597656,0.22821045,0.4784546
1603724435492,250,0.7561035,0.22894287,0.47821045
1603724435571,251,0.7585449,0.22723389,0.48065186
1603724435650,252,0.75878906,0.2296753,0.47625732
1603724435728,253,0.75805664,0.23138428,0.47528076
1603724435807,254,0.75634766,0.2267456,0.48236084
1603724435886,255,0.75927734,0.23065186,0.47894287
1603724435965,256,0.75756836,0.22796631,0.48260498
1603724436056,257,0.7602539,0.22625732,0.47406006
1603724436148,258,0.75683594,0.22918701,0.47894287
1603724436239,259,0.7583008,0.22845459,0.48065186
1603724436331,260,0.76171875,0.22747803,0.48187256
1603724436422,261,0.7570801,0.22528076,0.47650146
1603724436514,262,0.7553711,0.22821045,0.47943115
1603724436605,263,0.7565918,0.22796631,0.4796753
1603724436697,264,0.75756836,0.22747803,0.4804077
1603724436788,265,0.7565918,0.22821045,0.47698975
1603724436880,266,0.76171875,0.22918701,0.4779663
1603724436971,267,0.7561035,0.23138428,0.47869873
1603724437063,268,0.7558594,0.22747803,0.48114014
1603724437154,269,0.75878906,0.22869873,0.47894287
1603724437246,270,0.7595215,0.22650146,0.47698975
1603724437337,271,0.76049805,0.22698975,0.479187
1603724437429,272,0.75878906,0.22821045,0.48016357
1603724437521,273,0.7595215,0.22698975,0.47625732
1603724437612,274,0.7570801,0.22894287,0.47869873
1603724437704,275,0.76049805,0.2296753,0.47650146
1603724437795,276,0.76049805,0.2267456,0.4821167
1603724437887,277,0.7578125,0.22650146,0.47894287
1603724437978,278,0.7553711,0.22869873,0.480896
1603724438070,279,0.76123047,0.2267456,0.4772339
1603724438161,280,0.76123047,0.22918701,0.480896
1603724438253,281,0.75756836,0.22625732,0.48260498
1603724438344,282,0.7585449,0.2321167,0.4779663
1603724438436,283,0.76000977,0.23114014,0.47625732
1603724438527,284,0.75683594,0.22821045,0.47991943
1603724438619,285,0.7578125,0.22723389,0.47772217
1603724438710,286,0.7585449,0.22894287,0.4767456
1603724438802,287,0.75561523,0.22918701,0.47650146
1603724438894,288,0.75805664,0.230896,0.4804077
1603724438972,289,0.7595215,0.22918701,0.47821045
1603724439051,290,0.7609863,0.22772217,0.47576904
1603724439130,291,0.75683594,0.22991943,0.4767456
1603724439209,292,0.7597656,0.22991943,0.47528076
1603724439287,293,0.7583008,0.23114014,0.47332764
1603724439366,294,0.75756836,0.22845459,0.47772217
1603724439445,295,0.7578125,0.22845459,0.4784546
1603724439524,296,0.75878906,0.23040771,0.4725952
1603724439602,297,0.75561523,0.23065186,0.47747803
1603724439681,298,0.76000977,0.23016357,0.4796753
1603724439760,299,0.7578125,0.230896,0.47869873
1603724439839,300,0.7565918,0.23065186,0.4784546
1603724439917,301,0.7570801,0.22821045,0.4779663
1603724439996,302,0.7565918,0.23040771,0.47869873
1603724440075,303,0.7585449,0.22943115,0.47454834
1603724440154,304,0.7590332,0.23065186,0.4804077
1603724440232,305,0.76171875,0.230896,0.48162842
1603724440311,306,0.75805664,0.22943115,0.4772339
1603724440390,307,0.75927734,0.22943115,0.47650146
1603724440469,308,0.7578125,0.23065186,0.47869873
1603724440547,309,0.75756836,0.23284912,0.4779663
1603724440626,310,0.7570801,0.22894287,0.47821045
1603724440705,311,0.75878906,0.22650146,0.47479248
1603724440784,312,0.7583008,0.23040771,0.47943115
1603724440862,313,0.7570801,0.2296753,0.47943115
1603724440941,314,0.75683594,0.23016357,0.47772217
1603724441020,315,0.75634766,0.2296753,0.4796753
1603724441099,316,0.75634766,0.2296753,0.48114014
1603724441177,317,0.7583008,0.22796631,0.4779663
1603724441256,318,0.7565918,0.22869873,0.47698975
1603724441335,319,0.7561035,0.2296753,0.47943115
1603724441414,320,0.76000977,0.23040771,0.4779663
1603724441492,321,0.75927734,0.22772217,0.4772339
1603724441571,322,0.75805664,0.2243042,0.48114014
1603724441650,323,0.75512695,0.230896,0.4796753
1603724441729,324,0.7590332,0.22894287,0.4804077
1603724441807,325,0.7578125,0.22943115,0.47991943
1603724441886,326,0.7614746,0.22821045,0.47894287
1603724441965,327,0.7602539,0.23016357,0.480896
1603724442044,328,0.7583008,0.23162842,0.48284912
1603724442122,329,0.7561035,0.2267456,0.48016357
1603724442201,330,0.75512695,0.22576904,0.4804077
1603724442280,331,0.75805664,0.22991943,0.47698975
1603724442359,332,0.76123047,0.22894287,0.479187
1603724442437,333,0.7573242,0.22845459,0.479187
1603724442516,334,0.7565918,0.22943115,0.4784546
1603724442595,335,0.75561523,0.22821045,0.48358154
1603724442674,336,0.7561035,0.22796631,0.48016357
1603724442752,337,0.7583008,0.22821045,0.48236084
1603724442831,338,0.75927734,0.22601318,0.48406982
1603724442910,339,0.7595215,0.22869873,0.4796753
1603724442989,340,0.7565918,0.22943115,0.48431396
1603724443067,341,0.7558594,0.23040771,0.4772339
1603724443146,342,0.75927734,0.22869873,0.47991943
1603724443225,343,0.7561035,0.22698975,0.48016357
1603724443304,344,0.7573242,0.2296753,0.47698975
1603724443382,345,0.7590332,0.2296753,0.4784546
1603724443461,346,0.7583008,0.23016357,0.47650146
1603724443540,347,0.7565918,0.22576904,0.47894287
1603724443619,348,0.7570801,0.22698975,0.4755249
1603724443697,349,0.75561523,0.23016357,0.48114014
1603724443776,350,0.7570801,0.22845459,0.47625732
1603724443855,351,0.75634766,0.22821045,0.4796753
1603724443934,352,0.7602539,0.22821045,0.48065186
1603724444012,353,0.7570801,0.22894287,0.48065186
1603724444091,354,0.75634766,0.22991943,0.48065186
1603724444170,355,0.75634766,0.22650146,0.47894287
1603724444249,356,0.75756836,0.22796631,0.48065186
1603724444327,357,0.75561523,0.22650146,0.4804077
1603724444406,358,0.7570801,0.22943115,0.47650146
1603724444485,359,0.7585449,0.22772217,0.47821045
1603724444564,360,0.7553711,0.22821045,0.4784546
1603724444642,361,0.7573242,0.2267456,0.47821045
1603724444721,362,0.7573242,0.2296753,0.4772339
1603724444800,363,0.75878906,0.22796631,0.47698975
1603724444879,364,0.7585449,0.22796631,0.4804077
1603724444957,365,0.7585449,0.22894287,0.47772217
1603724445036,366,0.76000977,0.22698975,0.48065186
1603724445115,367,0.7595215,0.23040771,0.479187
1603724445194,368,0.75683594,0.22894287,0.4767456
1603724445272,369,0.7570801,0.23236084,0.47821045
1603724445351,370,0.76171875,0.22650146,0.4718628
1603724445430,371,0.7597656,0.23138428,0.4725952
1603724445509,372,0.75805664,0.23065186,0.47747803
1603724445587,373,0.7595215,0.2255249,0.4796753
1603724445666,374,0.7553711,0.22991943,0.4796753
1603724445745,375,0.7558594,0.230896,0.48138428
1603724445824,376,0.7595215,0.23114014,0.4784546
1603724445902,377,0.7565918,0.22894287,0.47332764
1603724445981,378,0.7546387,0.22918701,0.48016357
1603724446060,379,0.7565918,0.22723389,0.480896
1603724446139,380,0.7585449,0.22894287,0.48016357
1603724446217,381,0.7561035,0.22991943,0.48065186
1603724446296,382,0.75805664,0.2296753,0.47650146
1603724446375,383,0.75878906,0.2267456,0.479187
1603724446454,384,0.75805664,0.22845459,0.4779663
1603724446532,385,0.7570801,0.22845459,0.48162842
1603724446611,386,0.7597656,0.22845459,0.47943115
1603724446690,387,0.7595215,0.22747803,0.47698975
1603724446769,388,0.7578125,0.22991943,0.48016357
1603724446847,389,0.7597656,0.22943115,0.4779663
1603724446926,390,0.7609863,0.22918701,0.47698975
1603724447005,391,0.7565918,0.22796631,0.47991943
1603724447084,392,0.75878906,0.23162842,0.47943115
1603724447162,393,0.7595215,0.23065186,0.47869873
1603724447241,394,0.7583008,0.22747803,0.48065186
1603724447320,395,0.7573242,0.23138428,0.47821045
1603724447399,396,0.7573242,0.23016357,0.4804077
1603724447477,397,0.7602539,0.22845459,0.47650146
1603724447556,398,0.7565918,0.22943115,0.47479248
1603724447635,399,0.7558594,0.23114014,0.47943115
1603724447714,400,0.7570801,0.2267456,0.4772339
1603724447792,401,0.7585449,0.22747803,0.480896
1603724447871,402,0.75805664,0.22869873,0.47625732
1603724447950,403,0.7565918,0.230896,0.47650146
1603724448029,404,0.7583008,0.22991943,0.47528076
1603724448107,405,0.75561523,0.22796631,0.47869873
1603724448186,406,0.7565918,0.22796631,0.4755249
1603724448265,407,0.7597656,0.22943115,0.47869873
1603724448344,408,0.7578125,0.22894287,0.4767456
1603724448422,409,0.7570801,0.22991943,0.47503662
1603724448501,410,0.75439453,0.23016357,0.4784546
1603724448580,411,0.75805664,0.2296753,0.47747803
1603724448659,412,0.7561035,0.22845459,0.480896
1603724448737,413,0.76000977,0.23138428,0.4796753
1603724448816,414,0.75219727,0.22894287,0.4833374
1603724448895,415,0.76660156,0.23724365,0.47210693
