# Sensor position: Wrist
# Sensor side: Right
# Activity type: Descending stairs
# Activity code: 13
# Subject id: s1751093
timestamp,seq,accel_x,accel_y,accel_z
1603728900544,0,0.3046875,0.8786011,0.0993042
1603728900622,1,0.31030273,0.87786865,0.12713623
1603728900701,2,0.3034668,0.87615967,0.11175537
1603728900780,3,0.29638672,0.88568115,0.113220215
1603728900859,4,0.3017578,0.88153076,0.11102295
1603728900937,5,0.3310547,0.88275146,0.09222412
1603728901016,6,0.28222656,0.8829956,0.12298584
1603728901095,7,0.3088379,0.8798218,0.1227417
1603728901174,8,0.31762695,0.8859253,0.12445068
1603728901252,9,0.2939453,0.8810425,0.124938965
1603728901331,10,0.30541992,0.8781128,0.1251831
1603728901410,11,0.29052734,0.8751831,0.12762451
1603728901489,12,0.30566406,0.8720093,0.11639404
1603728901567,13,0.28930664,0.87249756,0.15032959
1603728901646,14,0.28759766,0.8817749,0.12591553
1603728901725,15,0.28881836,0.8829956,0.13641357
1603728901804,16,0.27978516,0.8834839,0.15740967
1603728901882,17,0.2993164,0.8859253,0.13104248
1603728901961,18,0.2944336,0.87835693,0.1149292
1603728902040,19,0.2775879,0.88275146,0.12030029
1603728902119,20,0.31396484,0.87542725,0.13104248
1603728902197,21,0.28295898,0.87615967,0.14398193
1603728902276,22,0.30297852,0.8781128,0.12542725
1603728902355,23,0.28833008,0.8788452,0.109802246
1603728902434,24,0.28076172,0.8812866,0.12542725
1603728902512,25,0.2878418,0.8942261,0.0836792
1603728902591,26,0.28466797,0.887146,0.0770874
1603728902670,27,0.25610352,0.9035034,0.08831787
1603728902749,28,0.20532227,0.91571045,0.0680542
1603728902827,29,0.2055664,0.9315796,0.09613037
1603728902906,30,0.15454102,0.9291382,0.101257324
1603728902985,31,0.15478516,0.9154663,0.10247803
1603728903064,32,0.2121582,0.8932495,0.14837646
1603728903142,33,0.17749023,0.87127686,0.17059326
1603728903221,34,0.09033203,0.76605225,0.15838623
1603728903300,35,0.08691406,0.75115967,0.23602295
1603728903379,36,0.095458984,0.7418823,0.2531128
1603728903457,37,0.13256836,0.9447632,0.29193115
1603728903536,38,0.18725586,1.2133179,0.35687256
1603728903615,39,0.359375,1.2223511,0.53118896
1603728903694,40,0.39672852,1.0326538,0.6083374
1603728903772,41,0.3618164,0.6774292,0.34832764
1603728903851,42,-0.056640625,0.57489014,0.35247803
1603728903930,43,-0.056396484,0.37176514,0.41326904
1603728904009,44,0.31323242,0.7640991,0.416687
1603728904087,45,0.5041504,1.2453003,0.32391357
1603728904166,46,0.328125,0.8944702,0.4393921
1603728904245,47,0.23583984,1.2599487,0.40301514
1603728904324,48,0.30151367,0.75286865,0.14007568
1603728904402,49,0.18676758,1.0275269,0.07879639
1603728904481,50,0.52075195,0.7313843,0.090026855
1603728904560,51,0.39770508,0.9623413,-0.012268066
1603728904639,52,0.025390625,0.7682495,0.2518921
1603728904717,53,0.09716797,0.6835327,-0.6211548
1603728904796,54,0.33203125,0.776062,0.06878662
1603728904875,55,0.21679688,0.85198975,-0.093566895
1603728904954,56,-0.078125,0.993103,-0.101623535
1603728905032,57,-0.04248047,0.7575073,-0.8049927
1603728905111,58,0.29589844,0.6400757,-0.5664673
1603728905190,59,0.25732422,0.55511475,-0.66192627
1603728905269,60,-0.68774414,0.42401123,-0.32696533
1603728905347,61,-0.24365234,0.62957764,-1.2439575
1603728905426,62,0.09106445,0.918396,-0.67852783
1603728905505,63,-1.1030273,-0.045959473,1.8310547E-4
1603728905584,64,-1.111084,-0.5354614,0.29681396
1603728905662,65,-0.98535156,-0.58380127,0.4401245
1603728905741,66,-0.84106445,-0.22271729,0.5597534
1603728905820,67,-1.1218262,0.07757568,0.32781982
1603728905899,68,-0.685791,0.2321167,0.34979248
1603728905977,69,-0.30566406,0.3571167,0.621521
1603728906056,70,-0.21948242,0.2970581,0.3932495
1603728906135,71,-0.5175781,1.0482788,0.1383667
1603728906214,72,-0.673584,1.0951538,0.463562
1603728906292,73,-0.83618164,-0.50250244,0.71990967
1603728906371,74,-0.8100586,-0.42926025,0.72039795
1603728906450,75,-0.6652832,0.085876465,0.50115967
1603728906529,76,-0.4169922,0.07659912,0.46575928
1603728906607,77,-0.5214844,0.1774292,0.63275146
1603728906686,78,-0.82958984,-0.18804932,0.80023193
1603728906765,79,-0.4987793,-0.0095825195,0.25335693
1603728906844,80,-0.8093262,-0.19073486,0.7164917
1603728906922,81,-0.7697754,-0.12188721,0.66400146
1603728907001,82,-0.8276367,-0.17584229,0.5375366
1603728907080,83,-0.7709961,-0.11871338,0.55145264
1603728907159,84,-0.7297363,-0.07305908,0.51776123
1603728907237,85,-0.5422363,0.015563965,0.34173584
1603728907316,86,-0.6958008,0.023376465,0.36444092
1603728907395,87,-1.1101074,0.042175293,0.4257202
1603728907474,88,-1.3076172,0.050720215,0.4393921
1603728907552,89,-1.0964355,0.082214355,0.33929443
1603728907631,90,-0.81396484,0.17303467,0.18328857
1603728907710,91,-0.8022461,0.2333374,0.2909546
1603728907789,92,-0.9838867,0.15106201,0.33441162
1603728907867,93,-1.2507324,0.16326904,0.39227295
1603728907946,94,-1.2104492,0.2658081,0.2843628
1603728908025,95,-0.921875,0.18988037,0.3114624
1603728908104,96,-0.6323242,0.31756592,0.1864624
1603728908182,97,-0.8400879,0.32147217,0.15130615
1603728908261,98,-1.0175781,0.3546753,0.24261475
1603728908340,99,-1.0861816,0.23919678,0.19891357
1603728908419,100,-1.1000977,0.2033081,0.17694092
1603728908497,101,-1.0678711,0.21624756,0.33441162
1603728908576,102,-0.8208008,0.28363037,0.20550537
1603728908655,103,-0.73461914,0.38812256,0.1954956
1603728908734,104,-0.8588867,0.39788818,0.27435303
1603728908812,105,-0.9265137,0.4022827,0.37005615
1603728908891,106,-0.82958984,0.527771,0.43060303
1603728908970,107,-0.7216797,0.57733154,0.3078003
1603728909049,108,-0.60668945,0.5194702,0.1642456
1603728909127,109,-0.7390137,0.3847046,0.2255249
1603728909206,110,-1.0253906,0.5692749,0.47772217
1603728909285,111,-0.81811523,0.4887085,0.480896
1603728909364,112,-0.6057129,0.43792725,0.37615967
1603728909442,113,-0.6447754,0.6251831,0.2411499
1603728909521,114,-0.9394531,0.5795288,0.3480835
1603728909600,115,-0.7277832,0.4989624,0.387146
1603728909679,116,-0.58862305,0.5722046,0.22943115
1603728909757,117,-0.56396484,0.479187,0.20770264
1603728909836,118,-1.0449219,0.5524292,0.33514404
1603728909915,119,-1.2080078,0.69207764,0.6005249
1603728909994,120,-0.77075195,0.45550537,0.21746826
1603728910072,121,-0.5661621,0.4389038,0.23773193
1603728910151,122,-0.66748047,0.6906128,0.35369873
1603728910230,123,-0.7097168,0.6593628,0.35931396
1603728910309,124,-0.6491699,0.5060425,0.28118896
1603728910387,125,-0.6879883,0.55877686,0.36761475
1603728910466,126,-0.71875,0.5236206,0.0927124
1603728910545,127,-0.64819336,0.7770386,0.26678467
1603728910624,128,-0.5969238,0.5709839,0.08709717
1603728910702,129,-0.8474121,0.71746826,0.18817139
1603728910781,130,-0.97387695,0.81073,0.2243042
1603728910860,131,-0.84399414,0.7406616,0.17181396
1603728910939,132,-0.6208496,0.5392456,0.14569092
1603728911017,133,-0.58032227,0.5265503,0.168396
1603728911096,134,-0.71240234,0.6942749,0.28460693
1603728911175,135,-0.7836914,0.7682495,0.29656982
1603728911254,136,-0.7241211,0.6415405,0.34295654
1603728911332,137,-0.68359375,0.5634155,0.21868896
1603728911411,138,-0.6308594,0.6930542,0.2062378
1603728911490,139,-0.4814453,0.576355,0.15106201
1603728911569,140,-0.5720215,0.66156006,0.19207764
1603728911647,141,-0.74902344,0.72406006,0.113220215
1603728911726,142,-0.9440918,0.92181396,0.22454834
1603728911805,143,-0.7241211,0.5951538,0.2243042
1603728911884,144,-0.62158203,0.5241089,0.2616577
1603728911962,145,-0.6333008,0.7194214,0.32318115
1603728912041,146,-0.68847656,0.84832764,0.2033081
1603728912120,147,-0.6875,0.6268921,0.14129639
1603728912199,148,-0.5917969,0.73431396,0.11053467
1603728912277,149,-0.4375,0.6535034,0.089538574
1603728912356,150,-0.57470703,0.6950073,0.21722412
1603728912435,151,-0.84228516,0.7548218,0.32733154
1603728912514,152,-0.9406738,0.63275146,0.44232178
1603728912592,153,-0.70996094,0.47943115,0.36761475
1603728912671,154,-0.6052246,0.44110107,0.31097412
1603728912750,155,-0.70996094,0.62420654,0.4257202
1603728912829,156,-0.8352051,0.41107178,0.40203857
1603728912907,157,-1.0087891,0.46258545,0.4874878
1603728912986,158,-0.6791992,0.43377686,0.22332764
1603728913065,159,-0.6484375,0.5446167,0.24407959
1603728913144,160,-0.72753906,0.638855,0.355896
1603728913222,161,-0.84814453,0.7055054,0.31781006
1603728913301,162,-0.8054199,0.68914795,0.3053589
1603728913380,163,-0.80322266,0.47479248,0.34661865
1603728913459,164,-0.7277832,0.4237671,0.44989014
1603728913537,165,-0.56884766,0.34002686,0.45404053
1603728913616,166,-0.720459,0.5634155,0.42816162
1603728913695,167,-0.69262695,0.52996826,0.54071045
1603728913774,168,-0.6953125,0.28167725,0.4574585
1603728913852,169,-0.7890625,0.26434326,0.4616089
1603728913931,170,-0.76000977,0.479187,0.618103
1603728914010,171,-0.72216797,0.6610718,0.5844116
1603728914089,172,-0.68896484,0.43597412,0.4923706
1603728914167,173,-0.7541504,0.27288818,0.42425537
1603728914246,174,-0.98046875,0.27044678,0.49945068
1603728914325,175,-0.798584,0.2411499,0.555603
1603728914404,176,-0.72021484,0.37200928,0.5504761
1603728914482,177,-0.72436523,0.35247803,0.56121826
1603728914561,178,-0.8305664,0.29193115,0.47454834
1603728914640,179,-0.9001465,0.31243896,0.54730225
1603728914719,180,-0.7067871,0.34661865,0.53411865
1603728914797,181,-0.57006836,0.42034912,0.46185303
1603728914876,182,-0.6208496,0.17181396,0.41522217
1603728914955,183,-1.0424805,0.32977295,0.60321045
1603728915034,184,-0.9941406,0.41497803,0.56658936
1603728915112,185,-0.86083984,0.07611084,0.51678467
1603728915191,186,-0.7163086,0.16864014,0.5375366
1603728915270,187,-0.7578125,0.18060303,0.54315186
1603728915349,188,-0.79467773,0.17816162,0.5543823
1603728915427,189,-0.7595215,0.354187,0.6107788
1603728915506,190,-0.6213379,0.385437,0.49212646
1603728915585,191,-0.6586914,0.51605225,0.5741577
1603728915664,192,-0.7062988,0.42156982,0.5504761
1603728915742,193,-0.86816406,0.36883545,0.805603
1603728915821,194,-0.6335449,0.31976318,0.96136475
1603728915900,195,-0.32128906,0.29559326,0.58758545
1603728915979,196,-0.44067383,0.38787842,0.63690186
1603728916057,197,-0.7089844,0.36273193,0.76556396
1603728916136,198,-1.3608398,0.3180542,0.9347534
1603728916215,199,-1.0031738,0.5228882,0.42938232
1603728916294,200,-0.48120117,0.49505615,0.36029053
1603728916372,201,-0.26049805,0.39300537,0.27923584
1603728916451,202,-0.45336914,0.41644287,0.5609741
1603728916530,203,-0.73779297,0.6625366,0.7692261
1603728916609,204,-0.9890137,0.5438843,0.6835327
1603728916687,205,-1.0275879,0.53460693,0.6720581
1603728916766,206,-0.93603516,0.43206787,0.4208374
1603728916845,207,-0.80126953,0.49871826,0.3324585
1603728916924,208,-0.44262695,0.23114014,0.10028076
1603728917002,209,-0.47460938,0.18157959,0.23040771
1603728917081,210,-0.48413086,0.15447998,0.27947998
1603728917160,211,-0.6894531,0.40301514,0.6178589
1603728917239,212,-0.7927246,0.5939331,0.82806396
1603728917317,213,-0.84594727,0.480896,0.6437378
1603728917396,214,-1.138916,0.4249878,0.79486084
1603728917475,215,-0.7402344,0.47869873,0.5048218
1603728917554,216,-0.43139648,0.28729248,0.3607788
1603728917632,217,-0.5961914,0.34222412,0.68963623
1603728917711,218,-0.75683594,0.2843628,1.1002808
1603728917790,219,-0.48217773,-0.112854004,0.6366577
1603728917869,220,-0.4333496,-0.19390869,0.2675171
1603728917947,221,-0.70410156,-0.15582275,0.5128784
1603728918026,222,-0.87231445,-0.081848145,0.8673706
1603728918105,223,-0.642334,-0.059143066,0.7567749
1603728918184,224,-0.41674805,-0.008361816,0.4869995
1603728918276,225,-0.51660156,0.042175293,0.6046753
1603728918368,226,-1.0202637,-0.045959473,1.1744995
1603728918461,227,-0.9863281,0.12567139,0.99139404
1603728918553,228,-0.6936035,0.5387573,0.45233154
1603728918646,229,-0.6875,0.1954956,0.5560913
1603728918738,230,-0.7861328,-0.002746582,0.6141968
1603728918831,231,-0.80810547,-0.124572754,0.64056396
1603728918923,232,-0.79345703,-0.061828613,0.67889404
1603728919016,233,-0.609375,-0.046936035,0.57977295
1603728919108,234,-0.640625,0.04876709,0.6762085
1603728919201,235,-0.7211914,0.08319092,0.7538452
1603728919293,236,-0.7619629,0.016296387,0.64227295
1603728919386,237,-0.8901367,0.08148193,0.65667725
1603728919478,238,-0.75927734,0.0368042,0.61102295
1603728919571,239,-0.7661133,0.2189331,0.6149292
1603728919663,240,-0.7324219,0.23309326,0.63812256
1603728919755,241,-0.7619629,0.15057373,0.63031006
1603728919848,242,-0.6850586,0.015075684,0.48675537
1603728919940,243,-0.82006836,0.049987793,0.7994995
1603728920033,244,-0.7145996,0.0680542,0.73846436
1603728920125,245,-0.65966797,0.038757324,0.590271
1603728920218,246,-0.51171875,0.030212402,0.52508545
1603728920310,247,-0.82055664,0.08123779,0.5639038
1603728920403,248,-1.0563965,0.12615967,0.9476929
1603728920495,249,-0.7819824,0.22869873,0.571228
1603728920588,250,-0.77612305,0.32073975,0.6203003
1603728920680,251,-0.76049805,0.09906006,0.6378784
1603728920773,252,-0.84521484,0.06439209,0.56048584
1603728920865,253,-0.8425293,0.08416748,0.7868042
1603728920958,254,-0.6237793,0.04437256,0.71624756
1603728921050,255,-0.46777344,0.03753662,0.70965576
1603728921143,256,-0.5300293,0.1720581,0.7736206
1603728921221,257,-0.5415039,0.24432373,0.70965576
1603728921300,258,-0.8630371,0.17352295,0.8505249
1603728921379,259,-0.69921875,0.309021,0.6234741
1603728921458,260,-0.5505371,0.36639404,0.5375366
1603728921536,261,-0.76904297,0.29534912,0.8473511
1603728921615,262,-0.6816406,0.038513184,0.6168823
1603728921694,263,-0.76416016,0.086120605,0.7260132
1603728921773,264,-0.75927734,0.24188232,0.77337646
1603728921851,265,-0.60717773,0.1618042,0.6703491
1603728921930,266,-0.6152344,0.11859131,0.6034546
1603728922009,267,-0.6047363,0.18719482,0.55267334
1603728922088,268,-0.5690918,0.21697998,0.5128784
1603728922166,269,-0.7807617,0.07684326,0.91522217
1603728922245,270,-0.6538086,0.14154053,1.0331421
1603728922324,271,-0.42773438,0.28118896,0.6432495
1603728922403,272,-0.5390625,0.19500732,0.56073
1603728922481,273,-0.828125,0.32196045,0.6774292
1603728922560,274,-0.90771484,0.29193115,0.7772827
1603728922639,275,-0.6401367,0.08685303,0.55682373
1603728922718,276,-0.55322266,0.13983154,0.5692749
1603728922796,277,-0.732666,0.3300171,0.68548584
1603728922875,278,-0.8317871,0.29437256,0.77874756
1603728922954,279,-0.748291,0.63031006,0.6430054
1603728923033,280,-0.5637207,0.4418335,0.43304443
1603728923111,281,-0.5739746,0.09075928,0.6195679
1603728923190,282,-0.6647949,0.07220459,0.64520264
1603728923269,283,-0.90771484,0.014831543,0.8522339
1603728923348,284,-0.845459,-6.1035156E-5,0.8065796
1603728923426,285,-0.6308594,0.109313965,0.59783936
1603728923505,286,-0.53149414,0.030212402,0.43499756
1603728923584,287,-0.78808594,0.023376465,0.7987671
1603728923663,288,-0.9091797,0.23895264,0.949646
1603728923741,289,-0.62402344,0.3222046,0.7218628
1603728923820,290,-0.51123047,-0.09088135,0.59417725
1603728923899,291,-0.58984375,-0.038879395,0.5709839
1603728923978,292,-0.9104004,0.059265137,0.83758545
1603728924056,293,-0.7832031,-0.09625244,0.7838745
1603728924135,294,-0.53100586,0.05706787,0.57562256
1603728924214,295,-0.5605469,0.1239624,0.6264038
1603728924293,296,-0.6611328,0.24993896,0.7484741
1603728924371,297,-0.8208008,0.3204956,0.98480225
1603728924450,298,-0.61279297,0.3468628,0.70721436
1603728924529,299,-0.5605469,0.48529053,0.71673584
1603728924608,300,-0.6230469,0.22357178,0.53900146
1603728924686,301,-0.62109375,0.57366943,0.5482788
1603728924765,302,-0.6118164,0.52020264,0.5492554
1603728924844,303,-0.5090332,0.31097412,0.49090576
1603728924923,304,-0.4958496,0.340271,0.5687866
1603728925001,305,-0.6796875,0.44940186,0.66619873
1603728925080,306,-0.8703613,0.7394409,0.9376831
1603728925159,307,-0.5888672,0.602478,0.57855225
1603728925238,308,-0.54345703,0.40301514,0.53411865
1603728925316,309,-0.5534668,0.16156006,0.3053589
1603728925395,310,-0.7675781,0.4743042,0.53118896
1603728925474,311,-1.0371094,0.29022217,0.90423584
1603728925553,312,-0.7062988,0.15692139,0.6364136
1603728925631,313,-0.51416016,0.23724365,0.54437256
1603728925710,314,-0.5246582,0.35906982,0.38983154
1603728925789,315,-0.99194336,0.44647217,0.89959717
1603728925868,316,-0.7993164,0.5927124,0.6972046
1603728925946,317,-0.4987793,0.7418823,0.465271
1603728926025,318,-0.48535156,0.33465576,0.34906006
1603728926104,319,-0.6677246,0.3546753,0.37078857
