# Sensor position: Front pocket (trouser)
# Sensor side: Left
# Activity type: Descending stairs
# Activity code: 13
# Subject id: s1770036
timestamp,seq,accel_x,accel_y,accel_z
1606574954259,0,0.13598633,-0.9866333,0.15960693
1606574954337,1,0.11279297,-1.0054321,0.19232178
1606574954416,2,0.15014648,-0.98883057,0.20428467
1606574954495,3,0.10522461,-0.97076416,0.20233154
1606574954574,4,0.07080078,-0.9624634,0.2230835
1606574954652,5,0.09301758,-1.0054321,0.2074585
1606574954731,6,0.106933594,-1.0122681,0.23699951
1606574954810,7,-0.025146484,-1.1333618,0.22039795
1606574954889,8,0.1081543,-1.18219,0.25213623
1606574954967,9,0.45043945,-0.91290283,-0.053527832
1606574955046,10,0.103027344,-1.2388306,0.059509277
1606574955125,11,0.10473633,-0.92388916,0.3624878
1606574955204,12,0.41552734,-0.6826782,0.16400146
1606574955282,13,0.24658203,-0.7402954,0.47576904
1606574955361,14,0.3544922,-0.8579712,0.36883545
1606574955440,15,0.43017578,-0.7954712,0.49261475
1606574955519,16,0.46777344,-0.95806885,0.42156982
1606574955597,17,0.3713379,-1.1602173,0.12420654
1606574955676,18,-0.021728516,-0.9031372,0.04827881
1606574955755,19,0.2211914,-1.0386353,0.2501831
1606574955834,20,0.11621094,-0.9234009,0.16571045
1606574955912,21,0.14648438,-0.9636841,0.3241577
1606574955991,22,0.2241211,-0.8152466,0.31121826
1606574956070,23,0.12768555,-0.755188,0.16790771
1606574956149,24,0.083496094,-0.75860596,0.26312256
1606574956227,25,0.15893555,-0.91656494,0.42156982
1606574956306,26,-0.13110352,-0.8279419,0.4574585
1606574956385,27,0.15966797,-1.5012817,0.2880249
1606574956464,28,0.65600586,-1.2935181,-0.061828613
1606574956542,29,0.12646484,-1.1362915,0.44476318
1606574956621,30,0.22070312,-0.57281494,0.47381592
1606574956700,31,0.29882812,-0.5532837,0.18426514
1606574956779,32,0.18481445,-0.6001587,0.35272217
1606574956857,33,0.27954102,-0.9187622,0.30877686
1606574956936,34,0.32421875,-0.77178955,0.47113037
1606574957015,35,0.19116211,-1.3057251,0.15130615
1606574957094,36,0.080078125,-1.4107056,0.22064209
1606574957172,37,0.20703125,-1.0022583,0.52874756
1606574957251,38,0.10083008,-0.75177,0.19354248
1606574957330,39,0.20239258,-0.7197876,0.3817749
1606574957409,40,-0.059570312,-0.7493286,0.24456787
1606574957487,41,0.022216797,-0.9133911,0.41033936
1606574957566,42,0.25439453,-1.2271118,0.28656006
1606574957645,43,0.41381836,-1.2468872,0.3085327
1606574957724,44,0.31762695,-0.98272705,0.42010498
1606574957802,45,0.24707031,-0.73687744,0.35443115
1606574957881,46,0.24682617,-0.5132446,0.28729248
1606574957960,47,0.1574707,-0.8274536,0.3319702
1606574958039,48,0.3383789,-0.76812744,0.57489014
1606574958117,49,0.2902832,-1.3206177,0.20379639
1606574958196,50,-0.07470703,-1.1668091,0.13104248
1606574958275,51,0.3305664,-1.1531372,0.53460693
1606574958354,52,0.1430664,-0.71881104,0.24627686
1606574958432,53,0.20678711,-0.7366333,0.36346436
1606574958511,54,0.08251953,-0.8023071,0.32611084
1606574958590,55,-0.0021972656,-0.9204712,0.34344482
1606574958669,56,0.32836914,-1.3526001,0.20111084
1606574958747,57,0.5317383,-1.0603638,0.45037842
1606574958826,58,0.32202148,-0.9421997,0.30804443
1606574958905,59,0.20532227,-0.5796509,0.22625732
1606574958984,60,0.3239746,-0.5755005,0.35369873
1606574959062,61,0.13574219,-0.8953247,0.36419678
1606574959141,62,0.4050293,-0.9143677,0.49334717
1606574959220,63,0.25878906,-1.2625122,0.016296387
1606574959299,64,0.03466797,-1.3926392,0.5228882
1606574959377,65,0.2980957,-0.8460083,0.2868042
1606574959456,66,0.07299805,-0.7432251,0.19012451
1606574959535,67,0.21313477,-0.77838135,0.4105835
1606574959614,68,-0.017089844,-0.7637329,0.28778076
1606574959692,69,0.092041016,-1.0923462,0.3241577
1606574959771,70,0.35424805,-1.2908325,0.27947998
1606574959850,71,0.5266113,-1.0442505,0.47381592
1606574959929,72,0.17529297,-0.881897,0.34075928
1606574960007,73,0.25,-0.5864868,0.25701904
1606574960086,74,0.29101562,-0.6499634,0.38494873
1606574960165,75,0.16040039,-0.8308716,0.42523193
1606574960244,76,0.43115234,-0.96417236,0.33221436
1606574960322,77,0.20239258,-1.3501587,0.1437378
1606574960401,78,0.012207031,-1.2241821,0.47479248
1606574960480,79,0.2939453,-0.8904419,0.29315186
1606574960559,80,0.09326172,-0.64630127,0.20452881
1606574960637,81,0.12695312,-0.81915283,0.4459839
1606574960716,82,-0.071777344,-0.90460205,0.49725342
1606574960795,83,0.033447266,-1.239563,0.39642334
1606574960874,84,0.31835938,-1.31427,0.20452881
1606574960952,85,0.064941406,-1.3150024,-0.045715332
1606574961031,86,0.22143555,-1.0117798,0.23065186
1606574961110,87,0.28759766,-0.6939087,0.44451904
1606574961189,88,0.2697754,-0.7764282,0.34100342
1606574961267,89,0.23828125,-0.7761841,0.62005615
1606574961346,90,0.34423828,-1.0957642,0.5848999
1606574961425,91,0.22802734,-0.9990845,0.18963623
1606574961504,92,-0.20507812,-1.1607056,0.06585693
1606574961582,93,0.45458984,-0.850647,0.23699951
1606574961661,94,0.11230469,-1.0015259,0.27044678
1606574961740,95,0.27075195,-0.94537354,0.066101074
1606574961819,96,0.1850586,-0.97979736,0.51190186
1606574961897,97,-0.09667969,-1.0303345,0.40545654
1606574961976,98,-0.061523438,-1.2202759,0.355896
1606574962055,99,0.26049805,-0.98760986,0.03289795
1606574962134,100,0.087890625,-1.1868286,-0.14141846
1606574962212,101,0.26171875,-0.87335205,0.49725342
1606574962291,102,0.2788086,-0.8530884,0.18377686
1606574962370,103,0.30932617,-0.6758423,0.34368896
1606574962449,104,0.36083984,-0.8545532,0.48309326
1606574962527,105,0.2841797,-0.9898071,0.71258545
1606574962606,106,0.34326172,-1.0859985,0.13787842
1606574962685,107,-0.10498047,-0.9907837,0.1437378
1606574962764,108,0.42871094,-1.0081177,0.30682373
1606574962842,109,0.21289062,-0.63360596,0.2423706
1606574962921,110,0.16821289,-0.7185669,0.28631592
1606574963000,111,0.13964844,-0.7005005,0.2958374
1606574963079,112,0.049560547,-0.8755493,0.3847046
1606574963157,113,0.17504883,-1.3145142,0.38519287
1606574963236,114,0.5805664,-1.2922974,0.1786499
1606574963315,115,0.21948242,-0.87091064,0.49334717
1606574963394,116,0.3017578,-0.8208618,0.37542725
1606574963472,117,0.2685547,-0.3916626,0.2243042
1606574963551,118,0.12036133,-0.6194458,0.28460693
1606574963630,119,0.32250977,-0.8291626,0.54022217
1606574963709,120,0.3557129,-1.3479614,0.11029053
1606574963787,121,0.12646484,-1.522522,0.18011475
1606574963866,122,0.15014648,-0.9192505,0.59906006
1606574963945,123,0.07055664,-0.6987915,0.18817139
1606574964024,124,0.23071289,-0.7439575,0.45550537
1606574964102,125,0.056640625,-0.68927,0.28997803
1606574964181,126,0.20874023,-1.117981,0.28778076
1606574964260,127,0.5126953,-1.3032837,0.4171753
1606574964339,128,0.33203125,-1.0090942,0.5524292
1606574964417,129,0.23730469,-0.6358032,0.2802124
1606574964496,130,0.21801758,-0.61724854,0.26605225
1606574964575,131,0.23999023,-0.7715454,0.26556396
1606574964654,132,0.32373047,-0.7835083,0.5175171
1606574964732,133,0.26586914,-1.5186157,0.028503418
1606574964811,134,0.12231445,-1.1497192,0.48968506
1606574964890,135,0.23144531,-1.0203247,0.26483154
1606574964969,136,0.13012695,-0.6917114,0.3414917
1606574965047,137,0.19677734,-0.72540283,0.3209839
1606574965126,138,0.056396484,-0.74957275,0.3234253
1606574965205,139,0.09326172,-1.173645,0.36688232
1606574965284,140,0.5852051,-1.3435669,0.2814331
1606574965362,141,0.29663086,-0.91973877,0.45843506
1606574965441,142,0.13842773,-0.6856079,0.22698975
1606574965520,143,0.21508789,-0.6345825,0.25213623
1606574965599,144,0.3076172,-0.7925415,0.41766357
1606574965677,145,0.30151367,-0.892395,0.36468506
1606574965756,146,0.38305664,-1.3137817,0.16937256
1606574965835,147,-0.084228516,-1.2737427,0.46697998
1606574965914,148,0.30151367,-0.9258423,0.29974365
1606574965992,149,0.12963867,-0.7349243,0.20257568
1606574966071,150,0.2319336,-0.7456665,0.40203857
1606574966150,151,0.012207031,-0.7913208,0.3517456
1606574966229,152,0.19604492,-1.0935669,0.27874756
1606574966307,153,0.5341797,-1.2791138,0.41986084
1606574966386,154,0.2890625,-0.99005127,0.39959717
1606574966465,155,0.23583984,-0.7151489,0.31854248
1606574966544,156,0.2734375,-0.5923462,0.2880249
1606574966622,157,0.30664062,-0.78741455,0.34466553
1606574966701,158,0.33911133,-0.78985596,0.48187256
1606574966780,159,0.39916992,-1.1463013,0.21429443
1606574966859,160,-0.012207031,-1.232727,0.37469482
1606574966937,161,0.3449707,-1.0776978,0.3241577
1606574967016,162,0.15600586,-0.9170532,0.2892456
1606574967095,163,0.10864258,-0.7842407,0.33709717
1606574967174,164,0.23168945,-0.8323364,0.39788818
1606574967252,165,0.12695312,-0.8843384,0.45233154
1606574967331,166,0.036132812,-0.9570923,0.5302124
1606574967410,167,0.23828125,-1.2747192,0.3036499
1606574967489,168,0.23754883,-1.1370239,-0.057922363
1606574967567,169,0.12402344,-1.3887329,0.27996826
1606574967646,170,0.23901367,-0.8147583,0.44232178
1606574967725,171,0.18115234,-0.93218994,0.15252686
1606574967804,172,0.40966797,-0.66412354,0.3991089
1606574967882,173,0.26464844,-0.70196533,0.7345581
1606574967961,174,0.47924805,-0.7769165,0.52801514
1606574968040,175,0.5632324,-0.73321533,0.39007568
1606574968119,176,0.4111328,-1.0828247,0.3600464
1606574968197,177,-0.13500977,-1.0679321,0.19085693
1606574968276,178,0.3474121,-0.9439087,0.27679443
1606574968355,179,0.06958008,-0.93096924,0.276062
1606574968434,180,0.20947266,-0.923645,0.21234131
1606574968512,181,0.28759766,-1.0098267,0.3475952
1606574968591,182,0.06713867,-0.9714966,0.3085327
1606574968670,183,0.03540039,-1.0967407,0.30291748
1606574968749,184,0.026367188,-1.1404419,0.13665771
1606574968827,185,0.38964844,-0.9956665,0.19866943
1606574968906,186,0.11450195,-1.0496216,0.1930542
1606574968985,187,0.40722656,-0.69659424,0.30633545
1606574969064,188,0.24731445,-0.6343384,0.23480225
1606574969142,189,0.25024414,-0.6304321,0.28997803
1606574969221,190,0.27539062,-0.7000122,0.4454956
1606574969300,191,0.36987305,-0.9517212,0.36639404
1606574969379,192,0.5793457,-1.2161255,0.40496826
1606574969457,193,0.17578125,-1.1697388,0.21600342
1606574969536,194,-0.103027344,-1.0755005,0.29241943
1606574969615,195,0.35766602,-0.8484497,0.3739624
1606574969694,196,0.10253906,-0.7896118,0.12567139
1606574969772,197,0.18652344,-0.7241821,0.35662842
1606574969851,198,0.1796875,-0.92266846,0.38641357
1606574969930,199,0.17773438,-0.9397583,0.38885498
1606574970009,200,0.29077148,-1.2681274,0.30267334
1606574970087,201,0.47705078,-0.9558716,0.3283081
1606574970166,202,0.1928711,-0.8982544,0.2855835
1606574970245,203,0.3076172,-0.64190674,0.23846436
1606574970324,204,0.28344727,-0.7427368,0.39544678
1606574970402,205,0.23144531,-0.8550415,0.28875732
1606574970481,206,0.45092773,-1.0562134,0.32318115
1606574970560,207,0.0048828125,-1.3113403,0.12615967
1606574970639,208,0.35424805,-1.1148071,0.51898193
1606574970717,209,0.095947266,-0.7788696,0.27581787
1606574970796,210,0.23168945,-0.77227783,0.32537842
1606574970875,211,0.1394043,-0.7637329,0.3012085
1606574970954,212,0.08911133,-0.9768677,0.40740967
1606574971032,213,0.32421875,-1.2341919,0.21795654
1606574971111,214,0.58935547,-1.0286255,0.47381592
1606574971190,215,0.14990234,-0.8682251,0.35614014
1606574971269,216,0.2919922,-0.552063,0.25457764
1606574971347,217,0.29785156,-0.76812744,0.3632202
1606574971426,218,0.2866211,-0.7883911,0.42669678
1606574971505,219,0.42456055,-1.2097778,0.21209717
1606574971584,220,-0.02319336,-1.1365356,0.21795654
1606574971662,221,0.27124023,-1.1043091,0.44207764
1606574971741,222,0.18945312,-0.81622314,0.2999878
1606574971820,223,0.1940918,-0.75616455,0.36297607
1606574971899,224,0.17675781,-0.7920532,0.36419678
1606574971977,225,0.11669922,-0.9692993,0.36151123
1606574972056,226,0.3244629,-1.2297974,0.22479248
1606574972135,227,0.48095703,-1.0166626,0.44818115
1606574972214,228,0.22753906,-0.80426025,0.2765503
1606574972292,229,0.33666992,-0.6199341,0.34368896
1606574972371,230,0.20019531,-0.81866455,0.2897339
1606574972450,231,0.31420898,-0.83673096,0.54852295
1606574972529,232,0.42578125,-1.0840454,0.18084717
1606574972607,233,0.05126953,-1.1209106,0.2753296
1606574972686,234,0.26538086,-1.1333618,0.35198975
1606574972765,235,0.20092773,-0.7576294,0.24993896
1606574972844,236,0.203125,-0.7944946,0.40789795
1606574972922,237,0.068847656,-0.8115845,0.3847046
1606574973001,238,0.15283203,-0.9780884,0.40008545
1606574973080,239,0.33789062,-1.1633911,0.1774292
1606574973159,240,0.3569336,-0.97198486,0.49163818
1606574973237,241,0.14501953,-0.9793091,0.29412842
1606574973316,242,0.49902344,-0.68536377,0.30877686
1606574973395,243,0.33032227,-0.62506104,0.5541382
1606574973474,244,0.42285156,-0.7666626,0.47772217
1606574973552,245,0.5209961,-0.5918579,0.62835693
1606574973631,246,0.7355957,-1.2197876,0.23406982
1606574973710,247,0.19213867,-1.2835083,0.12884521
1606574973789,248,-0.018798828,-1.2402954,0.18841553
1606574973867,249,0.19018555,-0.83306885,0.26361084
1606574973946,250,0.10864258,-0.9331665,0.19525146
1606574974025,251,0.24609375,-0.90338135,0.46502686
1606574974104,252,-0.061279297,-0.94781494,0.4393921
1606574974182,253,0.17211914,-1.1426392,0.30999756
1606574974261,254,-0.0703125,-1.2337036,0.2838745
1606574974340,255,0.3540039,-0.9143677,-0.019348145
1606574974419,256,-0.17626953,-1.2803345,0.20062256
1606574974497,257,0.5317383,-0.8711548,0.15081787
1606574974576,258,0.19873047,-0.8255005,0.31610107
1606574974655,259,0.31762695,-0.6970825,0.43597412
1606574974734,260,0.40820312,-0.62335205,0.4743042
1606574974812,261,0.2553711,-0.76641846,0.6845093
1606574974891,262,0.3984375,-0.64849854,0.6622925
1606574974970,263,0.50683594,-1.2107544,0.4459839
1606574975049,264,0.22705078,-0.81988525,0.34783936
1606574975127,265,0.22290039,-1.1326294,0.09490967
1606574975206,266,0.40649414,-0.7752075,0.4118042
1606574975285,267,0.033691406,-0.82525635,0.21209717
1606574975364,268,0.42504883,-0.8076782,0.4303589
1606574975442,269,0.15332031,-0.71417236,0.15960693
1606574975521,270,0.08227539,-0.79693604,0.36761475
1606574975600,271,0.06591797,-0.9360962,0.54071045
1606574975679,272,0.0847168,-1.1091919,0.5800171
1606574975757,273,0.41137695,-1.4214478,0.2597046
1606574975836,274,0.59399414,-0.8670044,-0.11212158
1606574975915,275,0.07543945,-1.1516724,0.5463257
1606574975994,276,0.3322754,-0.48468018,0.33953857
1606574976072,277,0.3095703,-0.62677,0.2802124
1606574976151,278,0.18701172,-0.57110596,0.42840576
1606574976230,279,0.37548828,-0.82940674,0.27923584
1606574976309,280,0.3173828,-0.87677,0.43865967
1606574976387,281,0.40844727,-1.2832642,0.36053467
1606574976466,282,0.028808594,-1.0835571,0.22332764
1606574976545,283,0.26245117,-1.2034302,0.42425537
1606574976624,284,0.16381836,-0.8093872,0.3451538
1606574976702,285,0.1394043,-0.73101807,0.1437378
1606574976781,286,0.19897461,-0.7588501,0.4105835
1606574976860,287,0.021484375,-0.84747314,0.4093628
1606574976939,288,0.2578125,-1.2678833,0.3204956
1606574977017,289,0.46704102,-1.1069946,0.21820068
1606574977096,290,0.37939453,-0.9607544,0.49627686
1606574977175,291,0.16186523,-0.6790161,0.31536865
1606574977254,292,0.2631836,-0.59625244,0.21258545
1606574977332,293,0.34570312,-0.78912354,0.5101929
1606574977411,294,0.29663086,-0.8982544,0.40911865
1606574977490,295,0.29248047,-1.2649536,0.1461792
1606574977569,296,0.06542969,-1.203186,0.21673584
1606574977647,297,0.26293945,-1.0620728,0.4401245
1606574977726,298,0.068847656,-0.71221924,0.23040771
1606574977805,299,0.19433594,-0.78302,0.29925537
1606574977884,300,0.1628418,-0.7461548,0.3102417
1606574977962,301,0.17333984,-1.2202759,0.31365967
1606574978041,302,0.42626953,-1.2681274,0.30682373
1606574978120,303,0.42114258,-0.91973877,0.41497803
1606574978199,304,0.22070312,-0.7307739,0.29632568
1606574978277,305,0.2631836,-0.5576782,0.307312
1606574978356,306,0.23876953,-0.80718994,0.39959717
1606574978435,307,0.36206055,-0.8545532,0.47601318
1606574978514,308,0.40234375,-1.3308716,0.1605835
1606574978592,309,-0.045654297,-1.062561,0.33416748
1606574978671,310,0.28686523,-1.2307739,0.24676514
1606574978750,311,0.18603516,-0.60113525,0.29559326
1606574978829,312,0.14526367,-0.88604736,0.32122803
1606574978907,313,0.13354492,-0.7424927,0.30511475
1606574978986,314,0.026123047,-1.0100708,0.35736084
1606574979065,315,0.3647461,-1.2869263,0.260437
1606574979144,316,0.5583496,-0.97540283,0.4142456
1606574979222,317,0.22924805,-0.85723877,0.33514404
1606574979301,318,0.31958008,-0.58721924,0.2592163
1606574979380,319,0.33911133,-0.6560669,0.4537964
1606574979459,320,0.2541504,-0.83551025,0.37860107
1606574979537,321,0.46313477,-1.0881958,0.27435303
1606574979616,322,0.03564453,-1.326477,0.19622803
1606574979695,323,0.2932129,-1.0791626,0.4784546
1606574979774,324,0.13647461,-0.88775635,0.28338623
1606574979852,325,0.15454102,-0.6865845,0.22088623
1606574979931,326,0.17114258,-0.8374634,0.4105835
1606574980010,327,0.015136719,-0.8765259,0.4237671
1606574980089,328,0.2602539,-1.256897,0.35369873
1606574980167,329,0.36621094,-1.222229,0.15594482
1606574980246,330,0.00390625,-1.3403931,0.30438232
1606574980325,331,0.32421875,-0.8574829,0.1383667
1606574980404,332,0.15771484,-0.83258057,0.2999878
1606574980482,333,0.35742188,-0.8648071,0.3139038
1606574980561,334,0.3190918,-0.72735596,0.5866089
1606574980640,335,0.11743164,-0.8748169,0.5673218
1606574980719,336,0.39916992,-0.8369751,0.4225464
1606574980797,337,0.6591797,-1.1170044,0.31951904
1606574980876,338,-0.019042969,-0.9314575,0.2868042
1606574980955,339,0.17163086,-1.0601196,0.10321045
1606574981034,340,0.21362305,-0.86431885,0.33514404
1606574981112,341,0.115478516,-0.9158325,0.27801514
1606574981191,342,0.32470703,-0.9212036,0.31488037
1606574981270,343,0.13549805,-0.95635986,0.2741089
1606574981349,344,0.16845703,-1.0396118,0.26605225
1606574981427,345,9.765625E-4,-1.2009888,0.3283081
1606574981506,346,0.14892578,-1.0584106,0.050476074
1606574981585,347,0.18432617,-1.0686646,0.31170654
1606574981664,348,0.2397461,-1.0464478,0.07977295
1606574981742,349,0.43969727,-0.5623169,0.39666748
1606574981821,350,0.31420898,-0.6177368,0.35272217
1606574981900,351,0.29516602,-0.64971924,0.4857788
1606574981979,352,0.16992188,-0.6489868,0.38983154
1606574982057,353,0.33935547,-0.7493286,0.40252686
1606574982136,354,0.529541,-0.8423462,0.45159912
1606574982215,355,0.5078125,-1.0159302,0.2579956
1606574982294,356,0.03100586,-1.4190063,0.18499756
1606574982372,357,0.1899414,-1.1045532,0.43084717
1606574982451,358,0.2163086,-0.9092407,0.36468506
1606574982530,359,0.1977539,-0.708313,0.246521
1606574982609,360,0.18261719,-0.67559814,0.33709717
1606574982687,361,0.1274414,-0.74591064,0.35150146
1606574982766,362,0.033691406,-0.96539307,0.38446045
1606574982845,363,0.30004883,-1.348938,0.21282959
1606574982924,364,0.6413574,-1.093811,0.32977295
1606574983002,365,0.3725586,-0.96759033,0.51190186
1606574983081,366,0.2980957,-0.5618286,0.32073975
1606574983160,367,0.25756836,-0.46832275,0.31903076
1606574983239,368,0.14257812,-0.77838135,0.46331787
1606574983317,369,0.41625977,-0.7913208,0.47113037
1606574983396,370,0.35888672,-1.2024536,0.2098999
1606574983475,371,0.087402344,-1.2451782,0.20013428
1606574983554,372,0.2849121,-1.1795044,0.42767334
1606574983632,373,0.10620117,-0.7752075,0.26434326
1606574983711,374,0.16821289,-0.7385864,0.29656982
1606574983790,375,0.14794922,-0.75079346,0.3571167
1606574983869,376,0.014892578,-0.87945557,0.3986206
1606574983947,377,0.33007812,-1.154602,0.28607178
1606574984026,378,0.4404297,-1.166565,0.24285889
1606574984105,379,0.36572266,-1.0930786,0.49505615
1606574984184,380,0.23632812,-0.61065674,0.32611084
1606574984262,381,0.22192383,-0.5305786,0.25286865
1606574984341,382,0.22705078,-0.8579712,0.33929443
1606574984420,383,0.37963867,-0.798645,0.5236206
1606574984499,384,0.22973633,-1.2922974,0.038269043
1606574984577,385,0.30541992,-1.4185181,0.38128662
1606574984656,386,0.13427734,-0.9402466,0.33099365
1606574984735,387,0.10180664,-0.7402954,0.19232178
1606574984814,388,0.3149414,-0.7041626,0.37005615
1606574984892,389,-0.020751953,-0.7542114,0.33392334
1606574984971,390,0.12011719,-1.0125122,0.26922607
1606574985050,391,0.48828125,-1.2957153,0.3204956
1606574985129,392,0.43017578,-1.1299438,0.44573975
1606574985207,393,0.28295898,-0.8147583,0.32122803
1606574985286,394,0.23876953,-0.5796509,0.20501709
1606574985365,395,0.1928711,-0.7090454,0.29510498
1606574985444,396,0.36865234,-0.82696533,0.46209717
1606574985522,397,0.33251953,-0.87823486,0.26312256
1606574985601,398,0.17797852,-1.4085083,0.13909912
1606574985680,399,0.14892578,-1.2583618,0.5492554
1606574985759,400,0.34423828,-0.9138794,0.31414795
1606574985837,401,0.08569336,-0.7896118,0.22381592
1606574985916,402,0.17944336,-0.6897583,0.3102417
1606574985995,403,0.032958984,-0.7268677,0.32122803
1606574986074,404,0.115478516,-1.0696411,0.28656006
1606574986152,405,0.4309082,-1.3291626,0.22137451
1606574986231,406,0.42285156,-0.97076416,0.5343628
1606574986310,407,0.15429688,-0.9138794,0.2267456
1606574986389,408,0.36572266,-0.6602173,0.24993896
1606574986467,409,0.32055664,-0.7214966,0.43499756
1606574986546,410,0.32080078,-0.89385986,0.5133667
1606574986625,411,0.29052734,-0.864563,0.60443115
1606574986704,412,0.30981445,-1.2078247,-0.08404541
1606574986782,413,0.17236328,-1.4685669,0.3505249
1606574986861,414,0.31201172,-1.0112915,0.21160889
1606574986940,415,-0.014160156,-0.83599854,0.2423706
1606574987019,416,0.30493164,-0.90875244,0.30023193
1606574987097,417,0.21264648,-0.9133911,0.30633545
1606574987176,418,0.032226562,-1.0916138,0.2994995
1606574987255,419,0.1303711,-1.2036743,0.41326904
1606574987334,420,0.14208984,-1.0635376,0.17645264
1606574987412,421,0.12133789,-1.0894165,-0.18145752
1606574987491,422,0.119628906,-1.1677856,0.2958374
1606574987570,423,0.3359375,-0.79473877,0.2616577
1606574987649,424,0.09838867,-0.8674927,0.19451904
1606574987727,425,0.36791992,-0.8115845,0.2892456
1606574987806,426,0.31225586,-0.81378174,0.5199585
1606574987885,427,0.19506836,-0.94610596,0.47357178
1606574987964,428,0.41845703,-0.90411377,0.41693115
1606574988042,429,0.3491211,-1.0510864,0.25164795
1606574988121,430,-0.22094727,-1.0247192,0.13934326
1606574988200,431,0.34594727,-1.083313,0.2736206
1606574988279,432,0.14526367,-0.8999634,0.2514038
1606574988357,433,0.20361328,-0.89923096,0.12786865
1606574988436,434,0.24072266,-0.9182739,0.26141357
1606574988515,435,0.02758789,-0.9717407,0.41082764
1606574988594,436,-0.046142578,-1.2678833,0.39300537
1606574988672,437,0.20947266,-1.1633911,0.14764404
1606574988751,438,0.46264648,-0.8845825,-0.22515869
1606574988830,439,0.0871582,-1.2554321,0.33172607
1606574988909,440,0.42382812,-0.6734009,0.3036499
1606574988987,441,0.32788086,-0.60113525,0.28851318
1606574989066,442,0.11401367,-0.6692505,0.27044678
1606574989145,443,0.28955078,-0.6748657,0.25726318
1606574989224,444,0.3161621,-0.8045044,0.4874878
1606574989302,445,0.33398438,-0.8328247,0.2765503
1606574989381,446,0.57788086,-1.2954712,0.28289795
1606574989460,447,-0.07910156,-1.3521118,0.30828857
1606574989539,448,0.2668457,-1.1091919,0.3156128
1606574989631,449,0.16308594,-0.78326416,0.3007202
1606574989723,450,0.10473633,-0.76104736,0.09588623
1606574989815,451,0.19018555,-0.6416626,0.4389038
1606574989907,452,0.12817383,-0.7324829,0.2658081
1606574989999,453,0.13549805,-1.1567993,0.22210693
1606574990091,454,0.7104492,-1.3267212,0.42034912
1606574990183,455,0.30786133,-1.0134888,0.3912964
1606574990275,456,0.28442383,-0.67266846,0.21722412
1606574990367,457,0.21557617,-0.5459595,0.32537842
1606574990459,458,0.21289062,-0.87091064,0.2033081
1606574990551,459,0.44750977,-0.7346802,0.42962646
1606574990643,460,0.16821289,-1.647522,-0.007873535
1606574990735,461,0.18603516,-1.2019653,0.649353
1606574990827,462,0.21557617,-1.0122681,0.22747803
1606574990919,463,0.13183594,-0.6226196,0.21282959
1606574991011,464,0.2121582,-0.7046509,0.26287842
1606574991103,465,0.017578125,-0.75128174,0.29779053
1606574991195,466,0.13476562,-1.036438,0.27435303
1606574991287,467,0.6604004,-1.4163208,0.3493042
1606574991379,468,0.39111328,-0.9932251,0.49822998
1606574991471,469,0.27734375,-0.75787354,0.30267334
1606574991563,470,0.21044922,-0.46539307,0.20037842
1606574991655,471,0.17382812,-0.8357544,0.28826904
1606574991747,472,0.5058594,-0.7463989,0.4611206
1606574991839,473,0.30200195,-1.2852173,0.070495605
1606574991931,474,0.09301758,-1.4011841,0.513855
1606574992023,475,0.24487305,-1.0806274,0.2345581
1606574992115,476,0.19458008,-0.7527466,0.22943115
1606574992207,477,0.20288086,-0.68292236,0.2711792
1606574992299,478,0.119384766,-0.75250244,0.29193115
1606574992391,479,0.032958984,-0.9495239,0.38739014
1606574992484,480,0.3557129,-1.3374634,0.23699951
1606574992562,481,0.5698242,-1.0886841,0.53656006
1606574992641,482,0.20947266,-0.8936157,0.291687
1606574992720,483,0.27392578,-0.60113525,0.21185303
1606574992799,484,0.18847656,-0.68585205,0.3397827
1606574992877,485,0.26611328,-0.8694458,0.21063232
1606574992956,486,0.4794922,-0.8501587,0.48431396
1606574993035,487,0.18530273,-1.329895,0.05609131
1606574993114,488,0.014404297,-1.3027954,0.54681396
1606574993192,489,0.35864258,-0.9702759,0.19891357
1606574993271,490,0.1237793,-0.76031494,0.22796631
1606574993350,491,0.17480469,-0.6995239,0.3522339
1606574993429,492,0.029052734,-0.78375244,0.37469482
1606574993507,493,0.056884766,-1.0562134,0.29681396
1606574993586,494,0.45336914,-1.3953247,0.17889404
1606574993665,495,0.2998047,-0.9678345,0.5453491
1606574993744,496,0.17651367,-0.96099854,0.18426514
1606574993822,497,0.3239746,-0.59991455,0.42352295
1606574993901,498,0.26953125,-0.67266846,0.44891357
1606574993980,499,0.2277832,-0.82525635,0.45770264
1606574994059,500,0.31835938,-0.7163696,0.61590576
1606574994137,501,0.36767578,-1.2822876,-0.012268066
1606574994216,502,0.015136719,-1.4302368,0.52752686
1606574994295,503,0.23022461,-1.11969,0.09539795
1606574994374,504,0.078125,-0.93756104,0.38104248
1606574994452,505,0.27124023,-0.8928833,0.19500732
1606574994531,506,0.22607422,-0.8521118,0.4142456
1606574994610,507,-0.0056152344,-1.0952759,0.33929443
1606574994689,508,-0.014160156,-1.24469,0.33880615
1606574994767,509,0.25463867,-0.96173096,0.08782959
1606574994846,510,-0.033203125,-1.1841431,-0.06817627
1606574994925,511,0.2446289,-1.0320435,0.33270264
1606574995004,512,0.2590332,-0.82525635,0.14984131
1606574995082,513,0.2626953,-0.8225708,0.16522217
1606574995161,514,0.44848633,-0.7793579,0.4647827
1606574995240,515,0.3088379,-0.8340454,0.42010498
1606574995319,516,0.32543945,-0.84991455,0.5778198
1606574995397,517,0.46679688,-0.78741455,0.4088745
1606574995476,518,0.2980957,-1.111145,0.36224365
1606574995555,519,-0.25732422,-0.99298096,0.14666748
1606574995634,520,0.3942871,-1.1741333,0.18963623
1606574995712,521,0.22583008,-0.69195557,0.3842163
1606574995791,522,0.083740234,-0.9234009,0.1281128
1606574995870,523,0.3166504,-0.81329346,0.42645264
1606574995949,524,0.16577148,-0.7034302,0.09881592
1606574996027,525,0.119140625,-0.8440552,0.44451904
1606574996106,526,-0.040283203,-0.97076416,0.5775757
1606574996185,527,0.1159668,-1.0488892,0.4550171
1606574996264,528,0.3881836,-1.4331665,0.20306396
1606574996342,529,0.67211914,-1.0164185,-0.086242676
1606574996421,530,0.07714844,-1.0044556,0.699646
1606574996500,531,0.33154297,-0.58258057,0.246521
1606574996579,532,0.26000977,-0.44976807,0.31781006
1606574996657,533,0.1652832,-0.6243286,0.3517456
1606574996736,534,0.35302734,-0.82037354,0.46600342
1606574996815,535,0.32788086,-0.9277954,0.25531006
1606574996894,536,0.19311523,-1.5335083,0.20135498
1606574996972,537,0.16430664,-1.1345825,0.60369873
1606574997051,538,0.1340332,-0.9002075,0.27801514
1606574997130,539,0.2043457,-0.67315674,0.30023193
1606574997209,540,0.16967773,-0.800354,0.3522339
1606574997287,541,0.036865234,-0.77960205,0.41326904
1606574997366,542,0.17797852,-1.2390747,0.32928467
1606574997445,543,0.4729004,-1.1331177,0.24603271
1606574997524,544,0.35107422,-1.006897,0.45550537
1606574997602,545,0.091308594,-0.7463989,0.19378662
1606574997681,546,0.31933594,-0.6345825,0.2597046
1606574997760,547,0.22021484,-0.77716064,0.3361206
1606574997839,548,0.34960938,-0.7949829,0.38568115
1606574997917,549,0.34643555,-1.4326782,0.11981201
1606574997996,550,-0.033203125,-1.1531372,0.5848999
1606574998075,551,0.28808594,-1.1265259,0.15447998
1606574998154,552,0.19897461,-0.67633057,0.3234253
1606574998232,553,0.16210938,-0.7605591,0.38128662
1606574998311,554,0.015380859,-0.7346802,0.23358154
1606574998390,555,0.09375,-1.1277466,0.37054443
1606574998469,556,0.7062988,-1.2605591,0.27923584
1606574998547,557,0.29663086,-1.0210571,0.4616089
1606574998626,558,0.30395508,-0.7998657,0.29656982
1606574998705,559,0.28735352,-0.55792236,0.16375732
1606574998784,560,0.19580078,-0.7522583,0.3522339
1606574998862,561,0.3305664,-0.7683716,0.41375732
1606574998941,562,0.39575195,-1.3652954,0.19403076
1606574999020,563,-0.013183594,-1.1555786,0.48602295
1606574999099,564,0.27783203,-1.1912231,0.2008667
1606574999177,565,0.21582031,-0.72198486,0.33636475
1606574999256,566,0.1484375,-0.7803345,0.28363037
1606574999335,567,0.125,-0.7398071,0.29803467
1606574999414,568,0.024658203,-0.87628174,0.39715576
1606574999492,569,0.29516602,-1.2783813,0.26116943
1606574999571,570,0.5727539,-1.147522,0.47406006
1606574999650,571,0.33081055,-0.9429321,0.32928467
1606574999729,572,0.2626953,-0.6465454,0.27044678
1606574999807,573,0.22436523,-0.6123657,0.30877686
1606574999886,574,0.24536133,-0.88360596,0.3024292
1606574999965,575,0.42529297,-0.6975708,0.46038818
1606575000044,576,0.26953125,-1.2815552,0.08685303
1606575000122,577,0.02758789,-1.1716919,0.4730835
1606575000201,578,0.30517578,-1.2251587,0.37249756
1606575000280,579,0.19091797,-0.8123169,0.22918701
1606575000359,580,0.061523438,-0.798645,0.21600342
1606575000437,581,0.1315918,-0.756897,0.41937256
1606575000516,582,-0.0024414062,-0.9277954,0.49139404
1606575000595,583,0.11645508,-1.0278931,0.49017334
1606575000674,584,0.2685547,-1.3984985,0.19403076
1606575000752,585,0.4255371,-1.2520142,-0.21490479
1606575000831,586,0.043945312,-1.1760864,0.4118042
1606575000910,587,0.2084961,-0.704895,0.19573975
1606575000989,588,0.3317871,-0.90948486,0.2909546
1606575001067,589,0.28881836,-0.73272705,0.46185303
1606575001146,590,0.2927246,-0.8789673,0.58465576
1606575001225,591,0.31176758,-1.15802,0.36883545
1606575001304,592,0.1706543,-0.8008423,0.21185303
1606575001382,593,-0.0063476562,-1.3484497,0.1539917
1606575001461,594,0.39233398,-0.81866455,0.2662964
1606575001540,595,-0.0036621094,-0.92071533,0.16009521
1606575001619,596,0.20703125,-1.0115356,0.14447021
1606575001697,597,0.21826172,-0.94659424,0.38079834
1606575001776,598,0.0075683594,-0.9771118,0.3192749
1606575001855,599,0.13598633,-1.1155396,0.23651123
1606575001934,600,-0.10424805,-1.1106567,0.41082764
1606575002012,601,0.32055664,-1.0730591,0.09710693
1606575002091,602,0.04711914,-1.1506958,-0.17144775
1606575002170,603,0.20678711,-1.0305786,0.31365967
1606575002249,604,0.32104492,-0.82281494,0.24554443
1606575002327,605,0.26489258,-0.78985596,0.062683105
1606575002406,606,0.42895508,-0.769104,0.42156982
1606575002485,607,0.26293945,-0.9234009,0.62005615
1606575002564,608,0.32299805,-1.0794067,0.416687
1606575002642,609,0.3474121,-0.9404907,0.18939209
1606575002721,610,-0.14892578,-1.0947876,0.10223389
1606575002800,611,0.46191406,-0.9246216,0.26727295
1606575002879,612,0.1394043,-0.8250122,0.31878662
1606575002957,613,0.1850586,-0.7883911,0.0836792
1606575003036,614,0.20214844,-0.7173462,0.496521
1606575003115,615,-0.16210938,-0.81427,0.33636475
1606575003194,616,0.12988281,-0.9055786,0.46136475
1606575003272,617,0.33398438,-1.1824341,0.2008667
1606575003351,618,0.44604492,-1.2329712,0.14324951
1606575003430,619,0.34936523,-1.0427856,0.670105
1606575003509,620,0.25708008,-0.7852173,0.2855835
1606575003587,621,0.24584961,-0.43243408,0.17376709
1606575003666,622,0.16064453,-0.7156372,0.28631592
1606575003745,623,0.42944336,-0.92559814,0.53826904
1606575003824,624,0.2890625,-0.8284302,0.32196045
1606575003902,625,0.14379883,-1.4146118,0.12054443
1606575003981,626,0.19555664,-1.1831665,0.52679443
1606575004060,627,0.19873047,-0.944397,0.18914795
1606575004139,628,0.18774414,-0.6880493,0.276062
1606575004217,629,0.13427734,-0.6831665,0.3456421
1606575004296,630,0.09667969,-0.91485596,0.36761475
1606575004375,631,0.19116211,-1.2883911,0.26239014
1606575004454,632,0.70092773,-1.1558228,0.479187
1606575004532,633,0.17236328,-0.9356079,0.31658936
1606575004611,634,0.31689453,-0.65167236,0.27947998
1606575004690,635,0.23266602,-0.6265259,0.34075928
1606575004769,636,0.18359375,-0.8377075,0.27972412
1606575004847,637,0.43115234,-0.7686157,0.47161865
1606575004926,638,0.29956055,-1.361145,0.047546387
1606575005005,639,-0.032470703,-1.2249146,0.62835693
1606575005084,640,0.29174805,-1.0698853,0.2662964
1606575005162,641,0.1694336,-0.79351807,0.31048584
1606575005241,642,0.14501953,-0.7300415,0.291687
1606575005320,643,0.122558594,-0.736145,0.3065796
1606575005399,644,0.123535156,-0.8015747,0.38226318
1606575005477,645,0.18579102,-1.2009888,0.32489014
1606575005556,646,0.5378418,-1.1831665,0.3390503
1606575005635,647,0.33984375,-0.97491455,0.44207764
1606575005714,648,0.2241211,-0.75860596,0.34075928
1606575005792,649,0.28320312,-0.5408325,0.2789917
1606575005871,650,0.20629883,-0.8255005,0.2897339
1606575005950,651,0.41210938,-0.81500244,0.432312
1606575006029,652,0.34228516,-1.2383423,0.12738037
1606575006107,653,0.0031738281,-1.2246704,0.41448975
1606575006186,654,0.2932129,-1.1333618,0.32806396
1606575006265,655,0.15649414,-0.72540283,0.27435303
1606575006344,656,0.2175293,-0.76446533,0.37420654
1606575006422,657,0.07421875,-0.7505493,0.31341553
1606575006501,658,0.07543945,-0.91656494,0.42767334
1606575006580,659,0.3161621,-1.3130493,0.24871826
1606575006659,660,0.5905762,-1.1904907,0.3883667
1606575006737,661,0.1586914,-0.8526001,0.29656982
1606575006816,662,0.2006836,-0.67852783,0.18865967
1606575006895,663,0.3486328,-0.6074829,0.4064331
1606575006974,664,0.1940918,-0.8596802,0.28778076
1606575007052,665,0.44995117,-0.8233032,0.35760498
1606575007131,666,0.0859375,-1.4019165,0.024108887
1606575007210,667,0.17553711,-1.2212524,0.64349365
1606575007289,668,0.24926758,-0.9517212,0.40081787
1606575007367,669,0.16064453,-0.7595825,0.25579834
1606575007446,670,0.12109375,-0.79888916,0.34710693
1606575007525,671,0.05053711,-0.8484497,0.4664917
1606575007604,672,0.049560547,-0.9570923,0.43475342
1606575007682,673,0.2680664,-1.2651978,0.25823975
1606575007761,674,0.24707031,-1.4404907,-0.06427002
1606575007840,675,0.1940918,-1.1448364,0.4730835
1606575007919,676,0.110839844,-0.7439575,0.121276855
1606575007997,677,0.3581543,-0.9204712,0.16375732
1606575008076,678,0.4489746,-0.6748657,0.48919678
1606575008155,679,0.16040039,-0.8987427,0.6342163
1606575008234,680,0.46044922,-0.7756958,0.6342163
1606575008312,681,0.4230957,-1.2166138,0.20062256
1606575008391,682,0.022705078,-0.76885986,0.27093506
1606575008470,683,0.047607422,-1.28302,0.0099487305
1606575008549,684,0.40478516,-0.710022,0.41033936
1606575008627,685,0.09399414,-1.003479,0.15472412
1606575008706,686,0.3227539,-0.9414673,0.3649292
1606575008785,687,0.24316406,-0.895813,0.26190186
1606575008864,688,-0.091796875,-1.0896606,0.40301514
1606575008942,689,0.15649414,-1.1682739,0.29632568
1606575009021,690,-0.011474609,-1.1680298,0.23675537
1606575009100,691,0.41577148,-1.005188,-0.30352783
1606575009179,692,0.018066406,-1.1677856,0.34173584
1606575009257,693,0.42529297,-0.8526001,0.32366943
1606575009336,694,0.23388672,-0.66241455,0.26019287
1606575009415,695,0.25854492,-0.5967407,0.18182373
1606575009494,696,0.28710938,-0.6741333,0.22821045
1606575009572,697,0.31347656,-0.8040161,0.5031128
1606575009651,698,0.2763672,-0.78253174,0.4689331
1606575009730,699,0.55444336,-1.3872681,0.1906128
1606575009809,700,-0.140625,-1.2097778,0.2633667
1606575009887,701,0.32250977,-1.116272,0.34979248
1606575009966,702,0.1862793,-0.80596924,0.32757568
1606575010045,703,0.14550781,-0.7022095,0.17474365
1606575010124,704,0.21557617,-0.7371216,0.45306396
1606575010202,705,0.028564453,-0.8189087,0.37615967
1606575010281,706,0.13354492,-1.1785278,0.29486084
1606575010360,707,0.63916016,-1.2332153,0.1359253
1606575010439,708,0.28466797,-0.9373169,0.57611084
1606575010517,709,0.19116211,-0.7510376,0.2074585
1606575010596,710,0.21313477,-0.59381104,0.21844482
1606575010675,711,0.28466797,-0.8386841,0.41033936
1606575010754,712,0.38305664,-0.78863525,0.39935303
1606575010832,713,0.099853516,-1.4741821,-0.022277832
1606575010911,714,0.30517578,-1.1201782,0.64715576
1606575010990,715,0.088378906,-0.95196533,0.11248779
1606575011069,716,0.23022461,-0.72491455,0.40252686
1606575011147,717,0.13769531,-0.8220825,0.3270874
1606575011226,718,0.11987305,-0.7647095,0.33026123
1606575011305,719,0.15625,-1.3162231,0.2616577
1606575011384,720,0.72021484,-1.1172485,0.545105
1606575011462,721,0.14916992,-0.9024048,0.27288818
1606575011541,722,0.26513672,-0.5796509,0.21356201
1606575011620,723,0.2043457,-0.71295166,0.31976318
1606575011699,724,0.33789062,-0.8167114,0.33172607
1606575011777,725,0.34594727,-0.93096924,0.37908936
1606575011856,726,0.10131836,-1.3892212,-0.0071411133
1606575011935,727,0.17114258,-1.2793579,0.666687
1606575012014,728,0.2619629,-0.8635864,0.15032959
1606575012092,729,0.09448242,-0.7192993,0.3126831
1606575012171,730,0.21972656,-0.71832275,0.36566162
1606575012250,731,-0.05908203,-0.7949829,0.32440186
1606575012329,732,0.13964844,-1.2642212,0.28948975
1606575012407,733,0.7426758,-1.2420044,0.3444214
1606575012486,734,0.26953125,-0.9517212,0.49554443
1606575012565,735,0.28564453,-0.6914673,0.30389404
1606575012644,736,0.28515625,-0.5745239,0.2772827
1606575012722,737,0.1694336,-0.80670166,0.38372803
1606575012801,738,0.38134766,-0.739563,0.47161865
1606575012880,739,0.2932129,-1.2224731,0.15985107
1606575012959,740,0.017578125,-1.1360474,0.4569702
1606575013037,741,0.32177734,-1.2659302,0.23040771
1606575013116,742,0.14575195,-0.7793579,0.3932495
1606575013195,743,0.13989258,-0.72442627,0.18426514
1606575013274,744,0.14916992,-0.7437134,0.39105225
1606575013352,745,-0.06323242,-0.8196411,0.23919678
1606575013431,746,0.29125977,-1.4768677,0.28240967
1606575013510,747,0.6125488,-1.0950317,0.48138428
1606575013589,748,0.1706543,-1.0083618,0.32733154
1606575013667,749,0.19970703,-0.725647,0.29901123
1606575013746,750,0.34399414,-0.64190674,0.3065796
1606575013825,751,0.20581055,-0.8069458,0.42181396
1606575013904,752,0.36499023,-0.75738525,0.6220093
1606575013982,753,0.14282227,-1.0657349,0.56463623
1606575014061,754,0.34472656,-1.0332642,-0.08331299
1606575014140,755,0.07373047,-1.5908813,0.26727295
1606575014219,756,0.26220703,-0.8843384,0.13787842
1606575014297,757,0.05834961,-0.85772705,0.33172607
1606575014376,758,0.19091797,-0.90631104,0.23675537
1606575014455,759,0.12817383,-0.9714966,0.49066162
1606575014534,760,0.028076172,-1.2207642,0.38226318
1606575014612,761,-0.015136719,-1.1296997,0.1942749
1606575014691,762,0.41870117,-1.0620728,-0.13482666
1606575014770,763,-0.095703125,-1.1028442,0.47943115
1606575014849,764,0.2487793,-0.8965454,0.18670654
1606575014927,765,0.1352539,-0.9209595,0.08782959
1606575015006,766,0.4025879,-0.8308716,0.27801514
1606575015085,767,0.21118164,-0.7815552,0.46429443
1606575015164,768,0.21289062,-0.89727783,0.57562256
1606575015242,769,0.3544922,-0.79107666,0.54901123
1606575015321,770,0.43066406,-1.1011353,0.36834717
1606575015400,771,0.25024414,-0.87335205,0.20916748
1606575015479,772,-0.2890625,-1.2649536,0.09466553
1606575015557,773,0.49023438,-0.85113525,0.2579956
1606575015636,774,0.14086914,-0.8921509,0.24725342
1606575015715,775,0.09277344,-0.9981079,0.22039795
1606575015794,776,0.27734375,-0.89630127,0.42132568
1606575015872,777,-0.09350586,-1.0530396,0.29388428
1606575015951,778,0.09643555,-1.2058716,0.31707764
1606575016030,779,0.25708008,-1.0176392,0.21063232
1606575016109,780,0.3330078,-0.9692993,-0.13360596
1606575016187,781,0.014892578,-1.1738892,0.40838623
1606575016266,782,0.40039062,-0.73321533,0.23504639
1606575016345,783,0.2734375,-0.56207275,0.30096436
1606575016424,784,0.07543945,-0.6799927,0.2584839
1606575016502,785,0.37963867,-0.81378174,0.31610107
1606575016581,786,0.28442383,-0.77593994,0.494812
1606575016660,787,0.24169922,-0.95806885,0.20916748
1606575016739,788,0.30493164,-1.4702759,0.1329956
1606575016817,789,-0.00390625,-1.1792603,0.54730225
1606575016896,790,0.23217773,-0.9973755,0.35516357
1606575016975,791,0.18530273,-0.6983032,0.184021
1606575017054,792,0.12426758,-0.8286743,0.24383545
1606575017132,793,0.13623047,-0.7402954,0.40423584
1606575017211,794,0.079589844,-0.8591919,0.39959717
1606575017290,795,0.22558594,-1.1995239,0.21234131
1606575017369,796,0.4699707,-1.1807251,0.2177124
1606575017447,797,0.3334961,-0.95977783,0.52142334
1606575017526,798,0.25048828,-0.6983032,0.25579834
1606575017605,799,0.19848633,-0.5647583,0.3258667
1606575017684,800,0.22875977,-0.9199829,0.2831421
1606575017762,801,0.45410156,-0.6890259,0.5492554
1606575017841,802,0.21484375,-1.492981,-0.0064086914
1606575017920,803,0.10644531,-1.1868286,0.56903076
1606575017999,804,0.21655273,-1.055481,0.2267456
1606575018077,805,0.11401367,-0.72784424,0.3151245
1606575018156,806,0.17944336,-0.786438,0.3151245
1606575018235,807,0.10913086,-0.7449341,0.32000732
1606575018314,808,0.057128906,-0.97784424,0.36224365
1606575018392,809,0.2861328,-1.3113403,0.19500732
1606575018471,810,0.57299805,-1.1670532,0.4796753
1606575018550,811,0.19873047,-0.87384033,0.24310303
1606575018629,812,0.17016602,-0.5654907,0.22503662
1606575018707,813,0.2644043,-0.70928955,0.32489014
1606575018786,814,0.27661133,-0.8948364,0.3390503
1606575018865,815,0.31103516,-0.82940674,0.40863037
1606575018944,816,0.2055664,-1.2993774,0.040222168
1606575019022,817,0.033935547,-1.3223267,0.5753784
1606575019101,818,0.3828125,-0.9246216,0.36590576
1606575019180,819,0.040771484,-0.8250122,0.1671753
1606575019259,820,0.18945312,-0.7312622,0.46600342
1606575019337,821,0.03955078,-0.7407837,0.3319702
1606575019416,822,0.06347656,-1.0977173,0.2838745
1606575019495,823,0.47973633,-1.2954712,0.22064209
1606575019574,824,0.42749023,-0.9043579,0.50531006
1606575019652,825,0.20605469,-0.86676025,0.30804443
1606575019731,826,0.32080078,-0.60235596,0.230896
1606575019810,827,0.24145508,-0.8101196,0.39178467
1606575019889,828,0.2758789,-0.75494385,0.34710693
1606575019967,829,0.38354492,-1.0784302,0.23602295
1606575020046,830,0.029052734,-1.3643188,0.16497803
1606575020125,831,0.24633789,-1.0964966,0.53656006
1606575020204,832,0.10253906,-0.8596802,0.30560303
1606575020282,833,0.1730957,-0.73028564,0.27044678
1606575020361,834,0.17553711,-0.81134033,0.37078857
1606575020440,835,2.4414062E-4,-0.8049927,0.39837646
1606575020519,836,0.19384766,-1.1089478,0.24993896
1606575020597,837,0.32104492,-1.2908325,0.22698975
1606575020676,838,0.30078125,-0.99005127,0.47454834
1606575020755,839,0.115234375,-0.98565674,0.25042725
1606575020834,840,0.2668457,-0.71759033,0.18011475
1606575020912,841,0.38452148,-0.71099854,0.4779663
1606575020991,842,0.26342773,-0.80059814,0.42279053
1606575021070,843,0.25610352,-0.6819458,0.65423584
1606575021149,844,0.41796875,-1.2390747,0.1708374
1606575021227,845,0.03881836,-1.3840942,0.19866943
1606575021306,846,0.23046875,-1.2268677,0.12786865
1606575021385,847,7.324219E-4,-0.9624634,0.3366089
1606575021464,848,0.23144531,-0.90802,0.18084717
1606575021542,849,0.31811523,-0.861145,0.39056396
1606575021621,850,-0.010009766,-1.0354614,0.3554077
1606575021700,851,-0.039794922,-1.2009888,0.3751831
1606575021779,852,0.2626953,-1.1316528,0.16497803
1606575021857,853,0.15917969,-1.0567017,-0.2000122
1606575021936,854,-0.03564453,-1.1670532,0.23529053
1606575022015,855,0.4345703,-0.88946533,0.14715576
1606575022094,856,0.2006836,-0.76885986,0.3078003
1606575022172,857,0.31884766,-0.76885986,0.32537842
1606575022251,858,0.28735352,-0.79644775,0.51434326
1606575022330,859,0.2619629,-0.93634033,0.5519409
1606575022409,860,0.42163086,-0.92071533,0.42840576
1606575022487,861,0.37426758,-0.98394775,0.20794678
1606575022566,862,-0.10913086,-1.1074829,0.184021
1606575022645,863,0.3605957,-0.87945557,0.2855835
1606575022724,864,0.0690918,-0.9573364,0.2543335
1606575022802,865,0.2692871,-0.8286743,0.30804443
1606575022881,866,0.2355957,-0.76641846,0.2975464
1606575022960,867,0.15429688,-0.74420166,0.22894287
1606575023039,868,-0.022216797,-0.8557739,0.4882202
1606575023117,869,0.12695312,-0.98565674,0.37054443
1606575023196,870,0.38989258,-1.3484497,0.20477295
1606575023275,871,0.46191406,-1.1929321,0.10882568
1606575023354,872,0.29370117,-0.942688,0.45404053
1606575023432,873,0.28344727,-0.6067505,0.25994873
1606575023511,874,0.25830078,-0.4968872,0.24993896
1606575023590,875,0.19628906,-0.78204346,0.40472412
1606575023669,876,0.43066406,-0.91534424,0.4520874
1606575023747,877,0.39575195,-1.000061,0.30975342
1606575023826,878,0.11328125,-1.2420044,0.090026855
1606575023905,879,0.12670898,-1.3118286,0.53118896
1606575023984,880,0.1730957,-0.84332275,0.18499756
1606575024062,881,0.18188477,-0.72076416,0.22503662
1606575024141,882,0.15112305,-0.7756958,0.3619995
1606575024220,883,0.013671875,-0.8406372,0.2999878
1606575024299,884,0.2421875,-1.1445923,0.18035889
1606575024377,885,0.59765625,-1.2583618,0.4249878
1606575024456,886,0.22216797,-0.96466064,0.38641357
1606575024535,887,0.30493164,-0.61138916,0.2296753
1606575024614,888,0.2709961,-0.60162354,0.3258667
1606575024692,889,0.2006836,-0.8406372,0.29437256
1606575024771,890,0.46435547,-0.892395,0.449646
1606575024850,891,0.115722656,-1.3699341,0.0079956055
1606575024929,892,0.17285156,-1.289856,0.60150146
1606575025007,893,0.24584961,-0.85650635,0.18182373
1606575025086,894,0.07519531,-0.6968384,0.25457764
1606575025165,895,0.27001953,-0.7527466,0.40472412
1606575025244,896,-0.01171875,-0.87945557,0.30682373
1606575025322,897,0.2055664,-1.2839966,0.2838745
1606575025401,898,0.70043945,-1.015686,0.37298584
1606575025480,899,0.27075195,-0.9365845,0.36346436
1606575025559,900,0.30151367,-0.57891846,0.2814331
1606575025637,901,0.21850586,-0.68341064,0.40081787
1606575025716,902,0.31152344,-0.8858032,0.32855225
1606575025795,903,0.46411133,-0.9439087,0.33831787
1606575025874,904,0.033691406,-1.3059692,0.012390137
1606575025952,905,0.20239258,-1.2112427,0.58465576
1606575026031,906,0.23339844,-0.7962036,0.21966553
1606575026110,907,0.10058594,-0.788147,0.3529663
1606575026189,908,0.2541504,-0.7593384,0.30975342
1606575026267,909,-0.08276367,-0.84332275,0.30316162
1606575026346,910,0.45874023,-1.2944946,0.28533936
1606575026425,911,0.5053711,-1.0962524,0.46722412
1606575026504,912,0.3425293,-0.737854,0.36761475
1606575026582,913,0.18237305,-0.5964966,0.24334717
1606575026661,914,0.30932617,-0.8442993,0.42767334
1606575026740,915,0.3774414,-0.76519775,0.38861084
1606575026819,916,0.34375,-1.1377563,0.29315186
1606575026897,917,0.03466797,-1.0713501,0.20965576
1606575026976,918,0.13574219,-1.24469,0.41888428
1606575027055,919,0.27124023,-0.71710205,0.32855225
1606575027134,920,0.15600586,-0.8682251,0.35198975
1606575027212,921,0.07104492,-0.85284424,0.40374756
1606575027291,922,0.011962891,-0.87994385,0.45257568
1606575027370,923,0.2705078,-1.2786255,0.338562
1606575027449,924,0.3408203,-1.164856,0.051208496
1606575027527,925,-0.0146484375,-1.4282837,0.07098389
1606575027606,926,0.43896484,-0.6865845,0.43914795
1606575027685,927,0.20751953,-0.77789307,0.22137451
1606575027764,928,0.3251953,-0.82403564,0.5084839
1606575027842,929,0.4753418,-0.93096924,0.39666748
1606575027921,930,0.44213867,-1.039856,0.3925171
1606575028000,931,-0.012451172,-1.0569458,0.26531982
1606575028079,932,0.19897461,-0.9751587,0.16009521
1606575028157,933,0.20922852,-0.85894775,0.27923584
1606575028236,934,0.028076172,-0.96759033,0.29119873
1606575028315,935,0.23657227,-0.9859009,0.3241577
1606575028394,936,0.22851562,-0.9434204,0.29534912
1606575028472,937,0.01171875,-0.97003174,0.36834717
1606575028551,938,0.14135742,-1.1775513,0.28851318
1606575028630,939,0.010009766,-1.0686646,0.25750732
1606575028709,940,0.2578125,-1.038147,-0.14312744
1606575028787,941,0.056152344,-1.12677,0.34881592
1606575028866,942,0.39233398,-0.86187744,0.26678467
1606575028945,943,0.22875977,-0.70880127,0.29632568
1606575029024,944,0.37719727,-0.68463135,0.39154053
1606575029102,945,0.38476562,-0.8184204,0.58221436
1606575029181,946,0.28173828,-0.8987427,0.61273193
1606575029260,947,0.49951172,-1.0945435,0.32147217
1606575029339,948,0.21044922,-0.7888794,0.2662964
1606575029417,949,-0.03857422,-1.1655884,0.14837646
1606575029496,950,0.45336914,-0.7588501,0.4093628
1606575029575,951,0.13549805,-0.81695557,0.20843506
1606575029654,952,0.28637695,-0.74053955,0.36297607
1606575029732,953,0.1262207,-0.72125244,0.3163452
1606575029811,954,0.07739258,-0.90167236,0.39593506
1606575029890,955,0.2211914,-1.100647,0.28851318
1606575029969,956,0.6003418,-1.2190552,0.26434326
1606575030047,957,0.33154297,-0.9495239,0.52337646
1606575030126,958,0.44580078,-0.72003174,0.36834717
1606575030205,959,0.30981445,-0.4348755,0.30218506
1606575030284,960,0.22436523,-0.661438,0.4147339
1606575030375,961,0.40844727,-0.8670044,0.4796753
1606575030467,962,0.32299805,-0.9146118,0.3883667
1606575030559,963,0.36132812,-1.4251099,0.18695068
1606575030651,964,-0.04345703,-0.93829346,0.20452881
1606575030743,965,0.20019531,-1.2503052,0.31365967
1606575030835,966,0.24926758,-0.63360596,0.1984253
1606575030927,967,0.12524414,-0.81427,0.33221436
1606575031019,968,0.13500977,-0.74664307,0.29779053
1606575031111,969,0.07519531,-1.0752563,0.22698975
1606575031203,970,0.54125977,-1.2515259,0.3102417
1606575031295,971,0.39672852,-1.06427,0.4869995
1606575031387,972,0.30688477,-0.66607666,0.31781006
1606575031479,973,0.2175293,-0.6206665,0.2831421
1606575031571,974,0.29589844,-0.7427368,0.37054443
1606575031663,975,0.37670898,-0.81866455,0.3710327
1606575031755,976,0.45947266,-1.2937622,0.18988037
1606575031847,977,-0.08911133,-1.2097778,0.47235107
1606575031939,978,0.23095703,-1.1738892,0.17401123
1606575032031,979,0.2722168,-0.67681885,0.36102295
1606575032123,980,0.12817383,-0.78253174,0.24310303
1606575032215,981,0.10058594,-0.79522705,0.35638428
1606575032307,982,0.056884766,-0.8743286,0.35028076
1606575032399,983,0.29370117,-1.2466431,0.30682373
1606575032491,984,0.61621094,-1.0393677,0.43011475
1606575032583,985,0.29052734,-0.9043579,0.42352295
1606575032675,986,0.30395508,-0.5339966,0.2904663
1606575032767,987,0.23632812,-0.6565552,0.37713623
1606575032859,988,0.26342773,-0.81329346,0.37420654
1606575032951,989,0.5241699,-1.0855103,0.31243896
1606575033043,990,0.025390625,-1.2285767,0.16497803
1606575033135,991,0.14648438,-1.2402954,0.5133667
1606575033227,992,0.26904297,-0.8364868,0.3390503
1606575033305,993,0.09741211,-0.73443604,0.28997803
1606575033384,994,0.20385742,-0.7420044,0.37860107
1606575033463,995,0.03955078,-0.81207275,0.3912964
1606575033542,996,0.13012695,-1.1448364,0.23260498
1606575033620,997,0.6743164,-1.1846313,0.39813232
1606575033699,998,0.26123047,-1.0029907,0.47454834
1606575033778,999,0.25634766,-0.62506104,0.31072998
1606575033857,1000,0.24487305,-0.5762329,0.246521
1606575033935,1001,0.33422852,-0.83013916,0.46063232
1606575034014,1002,0.43774414,-0.8477173,0.49578857
1606575034093,1003,0.3388672,-1.149231,0.17059326
1606575034172,1004,-0.006591797,-1.1970825,0.44451904
1606575034250,1005,0.2956543,-1.0379028,0.36151123
1606575034329,1006,0.12548828,-0.784729,0.23822021
1606575034408,1007,0.2006836,-0.8088989,0.39227295
1606575034487,1008,0.13598633,-0.89263916,0.47601318
1606575034565,1009,-0.014404297,-0.8164673,0.4557495
1606575034644,1010,0.2055664,-1.3076782,0.3180542
1606575034723,1011,0.37060547,-1.0862427,-0.0037231445
1606575034802,1012,0.024169922,-1.329895,0.36590576
1606575034880,1013,0.31054688,-0.8814087,0.416687
1606575034959,1014,0.2783203,-0.79815674,0.22161865
1606575035038,1015,0.42236328,-0.6848755,0.45184326
1606575035117,1016,0.4086914,-0.8088989,0.6610718
1606575035195,1017,0.6123047,-0.5462036,0.5199585
1606575035274,1018,0.37719727,-1.2244263,0.39666748
1606575035353,1019,-0.045166016,-0.90216064,0.28363037
1606575035432,1020,0.2487793,-1.0422974,0.14984131
1606575035510,1021,0.16259766,-0.8718872,0.29730225
1606575035589,1022,0.119628906,-0.90460205,0.22332764
1606575035668,1023,0.24682617,-0.973938,0.24505615
1606575035747,1024,0.24658203,-0.95391846,0.30584717
1606575035825,1025,-0.011230469,-1.0745239,0.42791748
1606575035904,1026,-0.0925293,-1.2219849,0.33343506
1606575035983,1027,0.19921875,-1.0789185,0.077819824
1606575036062,1028,0.13769531,-1.1047974,-0.0413208
1606575036140,1029,0.24072266,-0.98394775,0.39959717
1606575036219,1030,0.3713379,-0.61187744,0.25579834
1606575036298,1031,0.20019531,-0.44122314,0.18011475
1606575036377,1032,0.3347168,-0.5899048,0.41278076
1606575036455,1033,0.2409668,-0.8804321,0.47283936
1606575036534,1034,0.43115234,-0.9060669,0.5656128
1606575036613,1035,0.3869629,-1.3609009,0.2645874
1606575036692,1036,0.033447266,-0.8850708,0.27313232
1606575036770,1037,0.2553711,-1.289856,0.21697998
1606575036849,1038,0.27563477,-0.82354736,0.29119873
1606575036928,1039,0.09790039,-0.76519775,0.19671631
1606575037007,1040,0.24047852,-0.7571411,0.39154053
1606575037085,1041,0.052001953,-0.8057251,0.4076538
1606575037164,1042,0.19677734,-1.1275024,0.29779053
1606575037243,1043,0.38500977,-1.296936,0.29193115
1606575037322,1044,0.42114258,-0.94195557,0.45843506
1606575037400,1045,0.3239746,-0.8557739,0.28460693
1606575037479,1046,0.31445312,-0.49786377,0.36712646
1606575037558,1047,0.2163086,-0.57159424,0.3546753
1606575037637,1048,0.24365234,-0.8567505,0.4743042
1606575037715,1049,0.47680664,-0.8357544,0.34832764
1606575037794,1050,0.15844727,-1.4065552,0.101989746
1606575037873,1051,0.13867188,-1.2122192,0.4960327
1606575037952,1052,0.21166992,-0.9192505,0.20892334
1606575038030,1053,0.14135742,-0.77545166,0.27825928
1606575038109,1054,0.15478516,-0.7678833,0.37493896
1606575038188,1055,0.07861328,-0.82525635,0.3847046
1606575038267,1056,0.13183594,-1.1091919,0.26800537
1606575038345,1057,0.6557617,-1.1316528,0.34735107
1606575038424,1058,0.25585938,-1.0374146,0.45233154
1606575038503,1059,0.36889648,-0.56744385,0.28704834
1606575038582,1060,0.22460938,-0.61187744,0.3060913
1606575038660,1061,0.21191406,-0.7695923,0.34368896
1606575038739,1062,0.43579102,-0.8726196,0.49066162
1606575038818,1063,0.34521484,-1.5029907,0.038513184
1606575038897,1064,-0.053710938,-1.0344849,0.5631714
1606575038975,1065,0.27441406,-1.1192017,0.16644287
1606575039054,1066,0.19555664,-0.6604614,0.36102295
1606575039133,1067,0.12475586,-0.75909424,0.3036499
1606575039212,1068,0.084472656,-0.8386841,0.355896
1606575039290,1069,0.11767578,-0.97052,0.3139038
1606575039369,1070,0.5209961,-1.2302856,0.40081787
1606575039448,1071,0.4423828,-1.0464478,0.46185303
1606575039527,1072,0.36572266,-0.6436157,0.3480835
1606575039605,1073,0.21972656,-0.4973755,0.21795654
1606575039684,1074,0.28759766,-0.7522583,0.4574585
1606575039763,1075,0.47729492,-0.786438,0.39691162
1606575039842,1076,0.44555664,-1.3452759,0.08074951
1606575039920,1077,-0.1538086,-1.072815,0.49920654
1606575039999,1078,0.32055664,-1.3313599,0.25701904
1606575040078,1079,0.23535156,-0.690979,0.36346436
1606575040157,1080,0.08520508,-0.75372314,0.17889404
1606575040235,1081,0.12890625,-0.7437134,0.4352417
1606575040314,1082,0.013916016,-0.8965454,0.36444092
1606575040393,1083,0.22045898,-1.241272,0.19940186
1606575040472,1084,0.5578613,-1.2007446,0.4093628
1606575040550,1085,0.30273438,-0.9973755,0.44378662
1606575040629,1086,0.23657227,-0.6824341,0.27947998
1606575040708,1087,0.37329102,-0.42877197,0.4537964
1606575040787,1088,0.27929688,-0.61016846,0.58270264
1606575040865,1089,0.39013672,-0.7932739,0.4718628
1606575040944,1090,0.70458984,-0.9834595,0.5907593
1606575041023,1091,0.3125,-1.1480103,0.17108154
1606575041102,1092,-0.09326172,-1.4341431,0.26654053
1606575041180,1093,0.20019531,-0.8496704,0.20550537
1606575041259,1094,0.122558594,-0.8948364,0.27801514
1606575041338,1095,0.26391602,-0.9758911,0.2164917
1606575041417,1096,0.1484375,-0.83306885,0.47943115
1606575041495,1097,-0.06958008,-1.1555786,0.40179443
1606575041574,1098,0.07080078,-1.203186,0.29901123
1606575041653,1099,0.19189453,-1.1157837,0.06390381
1606575041732,1100,0.068847656,-1.140686,0.33563232
1606575041810,1101,0.19555664,-0.9258423,0.12005615
1606575041889,1102,0.29003906,-0.74224854,0.2098999
1606575041968,1103,0.39819336,-0.6499634,0.4147339
1606575042047,1104,0.2590332,-0.7300415,0.56170654
1606575042125,1105,0.31713867,-0.92510986,0.4804077
1606575042204,1106,0.46044922,-1.1047974,0.30755615
1606575042283,1107,-0.07714844,-0.9817505,0.18670654
1606575042362,1108,0.29907227,-1.0740356,0.2826538
1606575042440,1109,0.080322266,-0.8484497,0.23480225
1606575042519,1110,0.14819336,-0.9578247,0.20062256
1606575042598,1111,0.27124023,-0.9417114,0.36639404
1606575042677,1112,0.032714844,-0.9968872,0.3053589
1606575042755,1113,0.012939453,-1.0940552,0.44940186
1606575042834,1114,0.13964844,-1.2005005,0.24847412
1606575042913,1115,0.42260742,-0.9155884,-0.061340332
1606575042992,1116,0.021972656,-1.2122192,0.21966553
1606575043070,1117,0.35498047,-0.7485962,0.40203857
1606575043149,1118,0.30249023,-0.5437622,0.2609253
1606575043228,1119,0.11743164,-0.6543579,0.33587646
1606575043307,1120,0.36865234,-0.7385864,0.5062866
1606575043385,1121,0.29467773,-0.69122314,0.32489014
1606575043464,1122,0.36547852,-0.77423096,0.37786865
1606575043543,1123,0.5095215,-1.3943481,0.18988037
1606575043622,1124,-0.14746094,-1.1758423,0.43133545
1606575043700,1125,0.22436523,-1.1355591,0.24945068
1606575043779,1126,0.15698242,-0.74298096,0.4623413
1606575043858,1127,0.08691406,-0.7346802,0.2453003
1606575043937,1128,0.19140625,-0.7432251,0.4274292
1606575044015,1129,0.04663086,-0.880188,0.41619873
1606575044094,1130,0.14477539,-1.3096313,0.28582764
1606575044173,1131,0.6682129,-1.0440063,0.25823975
1606575044252,1132,0.21557617,-1.0501099,0.45233154
1606575044330,1133,0.27270508,-0.48272705,0.29144287
1606575044409,1134,0.18334961,-0.63946533,0.152771
1606575044488,1135,0.21459961,-0.7661743,0.4989624
1606575044567,1136,0.46289062,-0.8677368,0.38128662
1606575044645,1137,0.24584961,-1.4885864,0.04144287
1606575044724,1138,0.10449219,-1.2090454,0.5824585
1606575044803,1139,0.171875,-1.0164185,0.19598389
1606575044882,1140,0.20654297,-0.68951416,0.32244873
1606575044960,1141,0.12158203,-0.73809814,0.36102295
1606575045039,1142,0.048095703,-0.79693604,0.37835693
1606575045118,1143,0.16137695,-1.0603638,0.33953857
1606575045197,1144,0.3828125,-1.3189087,0.25091553
1606575045275,1145,0.58691406,-0.99298096,0.50775146
1606575045354,1146,0.16577148,-0.7720337,0.26239014
1606575045433,1147,0.22802734,-0.50128174,0.25115967
1606575045512,1148,0.26098633,-0.70977783,0.33148193
1606575045590,1149,0.36083984,-0.8364868,0.51849365
1606575045669,1150,0.3857422,-1.2112427,0.1864624
1606575045748,1151,0.0043945312,-1.3081665,0.28533936
1606575045827,1152,0.30932617,-1.1370239,0.3912964
1606575045905,1153,0.111083984,-0.74835205,0.29412842
1606575045984,1154,0.15136719,-0.76446533,0.2970581
1606575046063,1155,0.15356445,-0.7349243,0.35491943
1606575046142,1156,0.10253906,-0.8303833,0.3961792
1606575046220,1157,0.12158203,-1.288147,0.30584717
1606575046299,1158,0.68774414,-1.1401978,0.35150146
1606575046378,1159,0.31274414,-0.9209595,0.38250732
1606575046457,1160,0.22949219,-0.6062622,0.31414795
1606575046535,1161,0.29541016,-0.60894775,0.40545654
1606575046614,1162,0.21484375,-0.90289307,0.31732178
1606575046693,1163,0.42919922,-0.79766846,0.43084717
1606575046772,1164,0.19628906,-1.33844,-0.044006348
1606575046850,1165,0.203125,-1.2088013,0.6310425
1606575046929,1166,0.14208984,-1.0059204,0.25750732
1606575047008,1167,0.06347656,-0.67315674,0.3078003
1606575047087,1168,0.25146484,-0.7971802,0.4015503
1606575047165,1169,0.03149414,-0.800354,0.3300171
1606575047244,1170,0.16430664,-1.0056763,0.3529663
1606575047323,1171,0.359375,-1.2080688,0.18890381
1606575047402,1172,0.36865234,-1.1123657,0.57366943
1606575047480,1173,0.2043457,-0.8225708,0.37176514
1606575047559,1174,0.3869629,-0.6189575,0.3078003
1606575047638,1175,0.23803711,-0.6851196,0.5072632
1606575047717,1176,0.3359375,-0.78448486,0.5429077
1606575047795,1177,0.32006836,-0.69122314,0.61712646
1606575047874,1178,0.43579102,-1.194397,0.13861084
1606575047953,1179,0.0068359375,-1.409729,0.22747803
1606575048032,1180,0.29174805,-1.2102661,0.1281128
1606575048110,1181,0.025634766,-0.90704346,0.3456421
1606575048189,1182,0.12451172,-0.83062744,0.19769287
1606575048268,1183,0.29663086,-0.9907837,0.2616577
1606575048347,1184,-0.014160156,-1.0042114,0.57244873
1606575048425,1185,-0.05029297,-1.2612915,0.38323975
1606575048504,1186,0.30151367,-1.0457153,-7.9345703E-4
1606575048583,1187,-0.045654297,-1.1360474,-0.047180176
1606575048662,1188,0.3244629,-0.9741821,0.385437
1606575048740,1189,0.26831055,-0.82647705,0.15032959
1606575048819,1190,0.27416992,-0.8887329,0.2819214
1606575048898,1191,0.42456055,-0.70440674,0.46038818
1606575048977,1192,0.2902832,-0.75909424,0.5248413
1606575049055,1193,0.32543945,-0.8452759,0.56585693
1606575049134,1194,0.4248047,-0.93756104,0.53167725
1606575049213,1195,0.3178711,-0.8652954,0.25579834
1606575049292,1196,-0.140625,-1.0947876,0.16009521
1606575049370,1197,0.4453125,-0.8442993,0.3793335
1606575049449,1198,0.008300781,-0.90093994,0.24310303
1606575049528,1199,0.3395996,-0.7632446,0.38616943
1606575049607,1200,0.21142578,-0.7913208,0.32537842
1606575049685,1201,0.052734375,-0.82525635,0.43255615
1606575049764,1202,-0.08325195,-0.95025635,0.52948
1606575049843,1203,0.15722656,-1.196106,0.33587646
1606575049922,1204,0.5866699,-1.029602,-0.045959473
1606575050000,1205,0.3762207,-1.289856,0.33172607
1606575050079,1206,0.5505371,-0.7385864,0.45111084
1606575050158,1207,0.32617188,-0.4319458,0.2062378
1606575050237,1208,0.19897461,-0.48150635,0.3300171
1606575050315,1209,0.23388672,-0.82598877,0.4105835
1606575050394,1210,0.44750977,-0.84210205,0.36346436
1606575050473,1211,0.40649414,-1.2817993,0.20892334
1606575050552,1212,-0.07080078,-1.2363892,0.40008545
1606575050630,1213,0.25854492,-1.0720825,0.3414917
1606575050709,1214,0.23413086,-0.6934204,0.27630615
1606575050788,1215,0.13085938,-0.84747314,0.41253662
1606575050867,1216,0.104003906,-0.81622314,0.34857178
1606575050945,1217,0.1586914,-1.0718384,0.35858154
1606575051024,1218,0.4543457,-1.1863403,0.24310303
1606575051103,1219,0.4350586,-0.9717407,0.46697998
1606575051182,1220,0.2565918,-0.6096802,0.30926514
1606575051260,1221,0.28076172,-0.61846924,0.29681396
1606575051339,1222,0.2097168,-0.68218994,0.40081787
1606575051418,1223,0.39746094,-0.8892212,0.3637085
1606575051497,1224,0.17041016,-1.510315,0.09661865
1606575051575,1225,0.13720703,-1.2893677,0.5404663
1606575051654,1226,0.19873047,-0.7620239,0.19696045
1606575051733,1227,0.20117188,-0.7647095,0.25238037
1606575051812,1228,0.11010742,-0.736145,0.3373413
1606575051890,1229,0.11621094,-0.8062134,0.39105225
1606575051969,1230,0.16137695,-1.3428345,0.33807373
1606575052048,1231,0.670166,-1.0584106,0.43011475
1606575052127,1232,0.3034668,-0.9324341,0.3427124
1606575052205,1233,0.24609375,-0.49005127,0.28338623
1606575052284,1234,0.22973633,-0.7185669,0.39837646
1606575052363,1235,0.38989258,-0.7991333,0.3378296
1606575052442,1236,0.36743164,-0.8904419,0.28753662
1606575052520,1237,0.060058594,-1.4212036,0.016296387
1606575052599,1238,0.1796875,-1.2612915,0.7975464
1606575052678,1239,0.15283203,-0.8748169,0.1708374
1606575052757,1240,0.17602539,-0.7046509,0.27874756
1606575052835,1241,0.20141602,-0.75567627,0.34075928
1606575052914,1242,0.05493164,-0.8389282,0.44403076
1606575052993,1243,0.09326172,-1.3081665,0.30511475
1606575053072,1244,0.5136719,-1.0276489,0.19525146
1606575053150,1245,0.3972168,-0.97735596,0.5722046
1606575053229,1246,0.22558594,-0.66900635,0.32635498
1606575053308,1247,0.2109375,-0.5352173,0.2033081
1606575053387,1248,0.2854004,-0.7620239,0.4586792
1606575053465,1249,0.4321289,-0.84869385,0.387146
1606575053544,1250,0.17602539,-1.4004517,0.058532715
1606575053623,1251,0.09399414,-1.1685181,0.6173706
1606575053702,1252,0.22485352,-1.0911255,0.21478271
1606575053780,1253,0.16040039,-0.67852783,0.26434326
1606575053859,1254,0.15234375,-0.80255127,0.34368896
1606575053938,1255,0.02758789,-0.8779907,0.38519287
1606575054017,1256,0.12573242,-1.0376587,0.48162842
1606575054095,1257,0.31396484,-1.2481079,0.3439331
1606575054174,1258,0.3251953,-1.2390747,0.08392334
1606575054253,1259,0.08276367,-1.1985474,0.27801514
1606575054332,1260,0.30200195,-0.647522,0.35565186
1606575054410,1261,0.2685547,-0.7871704,0.35662842
1606575054489,1262,0.38476562,-0.7835083,0.49725342
1606575054568,1263,0.28149414,-0.78204346,0.5585327
1606575054647,1264,0.34277344,-0.8677368,0.65960693
1606575054725,1265,0.43579102,-1.09552,0.30145264
1606575054804,1266,0.009765625,-0.8953247,0.20257568
1606575054883,1267,0.18164062,-1.0645142,0.2789917
1606575054962,1268,0.16113281,-0.9155884,0.21209717
1606575055040,1269,0.12011719,-0.9710083,0.30145264
1606575055119,1270,0.24145508,-0.95513916,0.24578857
1606575055198,1271,0.1862793,-0.923645,0.25482178
1606575055277,1272,0.04272461,-0.9595337,0.32000732
1606575055355,1273,0.17480469,-1.0911255,0.35101318
1606575055434,1274,-0.045410156,-1.2078247,0.37664795
1606575055513,1275,0.2578125,-0.9168091,0.07977295
1606575055592,1276,0.08959961,-1.1218872,-0.042053223
1606575055670,1277,0.10961914,-1.0940552,0.3163452
1606575055749,1278,0.36132812,-0.8052368,0.2723999
1606575055828,1279,0.2697754,-0.79278564,0.27947998
1606575055907,1280,0.4230957,-0.6675415,0.42279053
1606575055985,1281,0.23803711,-0.833313,0.56781006
1606575056064,1282,0.32421875,-0.9768677,0.5529175
1606575056143,1283,0.44458008,-0.9885864,0.28753662
1606575056222,1284,0.046875,-0.82159424,0.2741089
1606575056300,1285,0.008544922,-1.270813,0.070495605
1606575056379,1286,0.47680664,-0.7774048,0.30804443
1606575056458,1287,0.08544922,-0.84259033,0.20819092
1606575056537,1288,0.18774414,-0.87579346,0.4130249
1606575056615,1289,0.21313477,-0.7554321,0.29144287
1606575056694,1290,0.11376953,-0.85284424,0.38641357
1606575056773,1291,0.13964844,-0.92022705,0.46551514
1606575056852,1292,0.16210938,-1.0801392,0.3168335
1606575056930,1293,0.49121094,-1.1814575,0.06072998
1606575057009,1294,0.33032227,-1.0357056,0.5853882
1606575057088,1295,0.37573242,-0.784729,0.3920288
1606575057167,1296,0.32006836,-0.49420166,0.3131714
1606575057245,1297,0.2355957,-0.6489868,0.2838745
1606575057324,1298,0.29345703,-0.7503052,0.48162842
1606575057403,1299,0.3149414,-0.83673096,0.4196167
1606575057482,1300,0.3786621,-1.15094,0.25726318
1606575057560,1301,0.08300781,-1.2332153,0.19573975
1606575057639,1302,0.14624023,-1.2901001,0.4718628
1606575057718,1303,0.1628418,-0.8062134,0.29266357
1606575057797,1304,0.21899414,-0.73565674,0.18914795
1606575057875,1305,0.1850586,-0.80963135,0.41937256
1606575057954,1306,0.032226562,-0.8015747,0.36688232
1606575058033,1307,0.12646484,-1.0606079,0.322937
1606575058112,1308,0.34033203,-1.2842407,0.27215576
1606575058190,1309,0.4892578,-0.97076416,0.44500732
1606575058269,1310,0.18017578,-0.81817627,0.24603271
1606575058348,1311,0.20581055,-0.56427,0.29608154
1606575058427,1312,0.26953125,-0.7168579,0.35247803
1606575058505,1313,0.31103516,-0.84869385,0.45526123
1606575058584,1314,0.39672852,-1.18927,0.2321167
1606575058663,1315,0.03149414,-1.1799927,0.07977295
1606575058742,1316,0.20117188,-1.2947388,0.6325073
1606575058820,1317,0.13085938,-0.81622314,0.2230835
1606575058899,1318,0.16601562,-0.75616455,0.26922607
1606575058978,1319,0.23022461,-0.74176025,0.3217163
1606575059057,1320,0.0073242188,-0.85650635,0.40423584
1606575059135,1321,0.18847656,-1.225647,0.28411865
1606575059214,1322,0.5500488,-1.2002563,0.3241577
1606575059293,1323,0.30322266,-0.97052,0.4159546
1606575059372,1324,0.18139648,-0.6465454,0.27166748
1606575059450,1325,0.2368164,-0.58306885,0.27508545
1606575059529,1326,0.2644043,-0.83721924,0.35931396
1606575059608,1327,0.3239746,-0.7632446,0.51116943
1606575059687,1328,0.2890625,-1.4363403,0.022888184
1606575059765,1329,0.07324219,-1.15802,0.62127686
1606575059844,1330,0.22314453,-1.0835571,0.19598389
1606575059923,1331,0.11743164,-0.75177,0.3336792
1606575060002,1332,0.19799805,-0.7827759,0.3234253
1606575060080,1333,0.13671875,-0.7859497,0.36639404
1606575060159,1334,4.8828125E-4,-0.91485596,0.36590576
1606575060238,1335,0.3005371,-1.2246704,0.25628662
1606575060317,1336,0.45996094,-1.2127075,0.39349365
1606575060395,1337,0.30273438,-0.9143677,0.3546753
1606575060474,1338,0.15307617,-0.6289673,0.26361084
1606575060553,1339,0.2607422,-0.6218872,0.22454834
1606575060632,1340,0.32983398,-0.84576416,0.4616089
1606575060710,1341,0.33764648,-0.7686157,0.42474365
1606575060789,1342,0.2770996,-1.3892212,0.109802246
1606575060868,1343,-0.0024414062,-1.0632935,0.52996826
1606575060947,1344,0.30908203,-1.1333618,0.18499756
1606575061025,1345,0.14013672,-0.7398071,0.3444214
1606575061104,1346,0.13989258,-0.82159424,0.33709717
1606575061183,1347,0.08935547,-0.88238525,0.4303589
1606575061262,1348,0.103515625,-0.909729,0.43084717
1606575061340,1349,0.27026367,-1.21344,0.34857178
1606575061419,1350,0.31225586,-1.1968384,0.12786865
1606575061498,1351,0.052246094,-1.3267212,0.23358154
1606575061577,1352,0.32495117,-0.7761841,0.3673706
1606575061655,1353,0.15698242,-0.84747314,0.20233154
1606575061734,1354,0.41430664,-0.7871704,0.39520264
1606575061813,1355,0.26123047,-0.7822876,0.5421753
1606575061892,1356,0.32202148,-0.91973877,0.5114136
1606575061970,1357,0.4584961,-0.8328247,0.5861206
1606575062049,1358,0.38378906,-1.0713501,0.3060913
1606575062128,1359,0.12182617,-0.7246704,0.32489014
1606575062207,1360,-0.091552734,-1.2515259,0.081726074
1606575062285,1361,0.34179688,-0.83013916,0.34906006
1606575062364,1362,0.11230469,-0.9776001,0.17694092
1606575062443,1363,0.31884766,-0.9578247,0.3209839
1606575062522,1364,0.22021484,-0.9260864,0.27825928
1606575062600,1365,-0.050048828,-0.96099854,0.3991089
1606575062679,1366,0.09741211,-1.2232056,0.24188232
1606575062758,1367,0.109375,-1.1489868,0.19085693
1606575062837,1368,0.32910156,-1.0029907,-0.069885254
1606575062915,1369,0.08569336,-1.0901489,0.32733154
1606575062994,1370,0.4086914,-0.6956177,0.28948975
1606575063073,1371,0.23608398,-0.60821533,0.28289795
1606575063152,1372,0.25219727,-0.74298096,0.2921753
1606575063230,1373,0.2409668,-0.69659424,0.40863037
1606575063309,1374,0.107910156,-0.7324829,0.3751831
1606575063388,1375,0.28100586,-0.77838135,0.3439331
1606575063467,1376,0.47192383,-1.6087036,0.11907959
1606575063545,1377,-0.017333984,-1.1555786,0.401062
1606575063624,1378,0.16381836,-0.9348755,0.23382568
1606575063703,1379,0.20898438,-0.70098877,0.30267334
1606575063782,1380,0.18164062,-0.786438,0.3319702
1606575063860,1381,-0.0073242188,-0.8526001,0.4249878
1606575063939,1382,0.2199707,-1.2581177,0.25653076
1606575064018,1383,0.6086426,-1.1262817,0.3793335
1606575064097,1384,0.38085938,-0.895813,0.37445068
1606575064175,1385,0.18481445,-0.6211548,0.21575928
1606575064254,1386,0.23828125,-0.6445923,0.32147217
1606575064333,1387,0.2902832,-0.8208618,0.35369873
1606575064412,1388,0.35473633,-0.86383057,0.31610107
1606575064490,1389,0.16455078,-1.4771118,0.06585693
1606575064569,1390,0.16894531,-1.2073364,0.7086792
1606575064648,1391,0.20751953,-0.90509033,0.32562256
1606575064727,1392,0.15039062,-0.7136841,0.20965576
1606575064805,1393,0.19482422,-0.7490845,0.39520264
1606575064884,1394,-0.038330078,-0.7769165,0.39031982
1606575064963,1395,0.21533203,-1.1489868,0.2387085
1606575065042,1396,0.5756836,-1.3147583,0.3361206
1606575065120,1397,0.33789062,-0.9578247,0.5458374
1606575065199,1398,0.22094727,-0.71173096,0.26434326
1606575065278,1399,0.2927246,-0.56085205,0.31854248
1606575065357,1400,0.16577148,-0.7905884,0.2765503
1606575065435,1401,0.34155273,-0.7888794,0.479187
1606575065514,1402,0.375,-1.1636353,0.27874756
1606575065593,1403,0.103271484,-1.0635376,0.0368042
1606575065672,1404,0.095458984,-1.3486938,0.664978
1606575065750,1405,0.24560547,-0.80548096,0.28289795
1606575065829,1406,0.17919922,-0.7703247,0.31488037
1606575065908,1407,0.12768555,-0.7905884,0.41156006
1606575065987,1408,0.011474609,-0.8130493,0.37860107
1606575066065,1409,0.23925781,-1.0654907,0.24163818
1606575066144,1410,0.3564453,-1.2476196,0.23382568
1606575066223,1411,0.46850586,-0.99542236,0.55584717
1606575066302,1412,0.20141602,-0.7815552,0.23626709
1606575066380,1413,0.23120117,-0.54644775,0.29852295
1606575066459,1414,0.29003906,-0.73516846,0.32196045
1606575066538,1415,0.37548828,-0.85479736,0.39715576
1606575066617,1416,0.38720703,-1.0855103,0.30096436
1606575066695,1417,0.049560547,-1.333313,0.18206787
1606575066774,1418,0.16503906,-1.1231079,0.5060425
1606575066853,1419,0.1821289,-0.8706665,0.3234253
1606575066932,1420,0.14453125,-0.7276001,0.28704834
1606575067010,1421,0.20874023,-0.7954712,0.43084717
1606575067089,1422,0.033447266,-0.7756958,0.38983154
1606575067168,1423,0.09741211,-1.1101685,0.3217163
1606575067247,1424,0.5107422,-1.2605591,0.21380615
1606575067325,1425,0.4387207,-0.91900635,0.56243896
1606575067404,1426,0.22460938,-0.7852173,0.27801514
1606575067483,1427,0.24414062,-0.53326416,0.27923584
1606575067562,1428,0.30444336,-0.741272,0.40740967
1606575067640,1429,0.30200195,-0.75201416,0.40325928
1606575067719,1430,0.4333496,-1.2752075,0.18865967
1606575067798,1431,-0.078125,-1.2380981,0.5075073
1606575067877,1432,0.25756836,-1.1433716,0.29437256
1606575067955,1433,0.2163086,-0.8447876,0.32781982
1606575068034,1434,0.08959961,-0.7139282,0.26116943
1606575068113,1435,0.22045898,-0.736145,0.4208374
1606575068192,1436,0.004638672,-0.76641846,0.3283081
1606575068270,1437,0.08666992,-1.3508911,0.34246826
1606575068349,1438,0.6503906,-1.2092896,0.37908936
1606575068428,1439,0.23754883,-0.98394775,0.42010498
1606575068507,1440,0.2211914,-0.7341919,0.2374878
1606575068585,1441,0.32202148,-0.66119385,0.3102417
1606575068664,1442,0.26708984,-0.7749634,0.4093628
1606575068743,1443,0.37890625,-0.79034424,0.5446167
1606575068822,1444,0.25219727,-0.88482666,0.5036011
1606575068900,1445,0.4338379,-1.1199341,0.054138184
1606575068979,1446,-0.008056641,-1.5701294,0.41351318
1606575069058,1447,0.28271484,-0.9968872,0.27142334
1606575069137,1448,0.048339844,-0.7859497,0.2753296
1606575069215,1449,0.19262695,-0.96832275,0.109558105
1606575069294,1450,0.23217773,-0.91363525,0.47406006
1606575069373,1451,0.0034179688,-1.0713501,0.40838623
1606575069452,1452,-0.05419922,-1.1917114,0.3546753
1606575069530,1453,0.24780273,-0.9795532,0.15570068
1606575069609,1454,0.05517578,-1.1370239,-0.09869385
1606575069688,1455,0.13330078,-1.1663208,0.19232178
1606575069767,1456,0.35546875,-0.8274536,0.37078857
1606575069845,1457,0.10522461,-0.89727783,0.16644287
1606575069924,1458,0.43481445,-0.7769165,0.23065186
1606575070003,1459,0.30932617,-0.7901001,0.45233154
1606575070082,1460,0.29125977,-0.9273071,0.512146
1606575070160,1461,0.3413086,-0.83599854,0.5951538
1606575070239,1462,0.39794922,-1.0540161,0.418396
1606575070318,1463,0.20166016,-0.80548096,0.2189331
1606575070397,1464,-0.12402344,-1.2061157,0.051208496
1606575070475,1465,0.41210938,-0.98394775,0.27142334
1606575070554,1466,0.16040039,-0.85406494,0.28167725
1606575070633,1467,0.123291016,-0.91363525,0.25579834
1606575070712,1468,0.27441406,-0.8526001,0.3468628
1606575070790,1469,0.12695312,-0.76763916,0.31781006
1606575070869,1470,0.20117188,-0.8374634,0.22503662
1606575070948,1471,0.1616211,-0.878479,0.4081421
1606575071027,1472,0.07763672,-1.0234985,0.434021
1606575071118,1473,0.37231445,-1.1914673,0.13494873
1606575071210,1474,0.5109863,-1.1653442,0.307312
1606575071302,1475,0.2578125,-0.9356079,0.49969482
1606575071394,1476,0.37573242,-0.70098877,0.30633545
1606575071486,1477,0.34301758,-0.6079712,0.26507568
1606575071578,1478,0.20263672,-0.69488525,0.34173584
1606575071670,1479,0.24316406,-0.7715454,0.41400146
1606575071762,1480,0.38183594,-0.8687134,0.44256592
1606575071854,1481,0.2614746,-0.9429321,0.33685303
1606575071946,1482,0.2692871,-1.2192993,0.101257324
1606575072038,1483,0.16235352,-1.296936,0.5048218
1606575072130,1484,0.16455078,-0.95562744,0.2819214
1606575072222,1485,0.14282227,-0.8225708,0.20281982
1606575072314,1486,0.22314453,-0.77008057,0.37860107
1606575072406,1487,0.07128906,-0.7866821,0.32659912
1606575072498,1488,0.15991211,-0.8015747,0.4335327
1606575072589,1489,0.1315918,-1.2402954,0.3192749
1606575072681,1490,0.47705078,-1.1970825,0.13494873
1606575072773,1491,0.4338379,-0.9961548,0.50897217
1606575072865,1492,0.21972656,-0.89190674,0.3373413
1606575072957,1493,0.25439453,-0.56329346,0.2682495
1606575073049,1494,0.25927734,-0.614563,0.23797607
1606575073141,1495,0.14794922,-0.88775635,0.50823975
1606575073233,1496,0.5097656,-0.77789307,0.4159546
1606575073325,1497,0.26757812,-1.5186157,0.062927246
1606575073417,1498,-0.03515625,-1.0029907,0.51971436
1606575073509,1499,0.2553711,-1.2578735,0.20477295
1606575073601,1500,0.16040039,-0.69732666,0.293396
1606575073693,1501,0.16845703,-0.7498169,0.19134521
1606575073785,1502,0.14086914,-0.736145,0.37615967
1606575073877,1503,0.053466797,-0.94781494,0.40911865
1606575073969,1504,0.16333008,-1.2959595,0.30096436
1606575074047,1505,0.58154297,-1.1292114,0.3078003
1606575074126,1506,0.38061523,-0.95269775,0.402771
1606575074205,1507,0.1550293,-0.74102783,0.26434326
1606575074284,1508,0.26953125,-0.6038208,0.23699951
1606575074362,1509,0.19042969,-0.786438,0.3204956
1606575074441,1510,0.36816406,-0.8245239,0.46575928
1606575074520,1511,0.38452148,-1.1655884,0.19891357
1606575074599,1512,0.022949219,-1.2114868,0.19085693
1606575074677,1513,0.10595703,-1.3386841,0.45550537
1606575074756,1514,0.20654297,-0.7839966,0.25604248
1606575074835,1515,0.171875,-0.7871704,0.25653076
1606575074914,1516,0.16430664,-0.7810669,0.3258667
1606575074992,1517,0.004638672,-0.82159424,0.3204956
1606575075071,1518,0.12841797,-1.0557251,0.32391357
1606575075150,1519,0.30004883,-1.2937622,0.22161865
1606575075229,1520,0.5644531,-1.0974731,0.43621826
1606575075307,1521,0.20605469,-0.8652954,0.29681396
1606575075386,1522,0.20288086,-0.59503174,0.2855835
1606575075465,1523,0.27319336,-0.6682739,0.28240967
1606575075544,1524,0.24829102,-0.83306885,0.39886475
1606575075622,1525,0.4104004,-0.8567505,0.40789795
1606575075701,1526,0.33496094,-1.3345337,0.10491943
1606575075780,1527,-0.1237793,-1.2085571,0.61102295
1606575075859,1528,0.36328125,-1.072815,0.19207764
1606575075937,1529,0.16577148,-0.82232666,0.38983154
1606575076016,1530,0.06225586,-0.7678833,0.1383667
1606575076095,1531,0.20800781,-0.7974243,0.5687866
1606575076174,1532,0.037353516,-0.7337036,0.16644287
1606575076252,1533,0.1081543,-0.9902954,0.4598999
1606575076331,1534,0.32788086,-1.4668579,0.21624756
1606575076410,1535,0.57714844,-1.0610962,0.5734253
