# Sensor position: Chest
# Sensor side: Right
# Activity type: Sitting
# Activity code: 0
# Subject id: s1746788
timestamp,seq,accel_x,accel_y,accel_z
1601381360792,0,0.1496582,-1.0032349,0.16986084
1601381360808,1,0.1496582,-1.0032349,0.16986084
1601381360808,2,0.14428711,-0.9990845,0.16766357
1601381360810,3,0.14428711,-0.9990845,0.16766357
1601381360810,4,0.14916992,-1.0029907,0.16888428
1601381360811,5,0.14916992,-1.0029907,0.16888428
1601381360812,6,0.14794922,-0.9993286,0.16619873
1601381360813,7,0.14794922,-0.9993286,0.16619873
1601381360814,8,0.14941406,-1.0025024,0.16546631
1601381360815,9,0.14941406,-1.0025024,0.16546631
1601381360816,10,0.14892578,-1.0003052,0.16448975
1601381360817,11,0.14892578,-1.0003052,0.16448975
1601381360823,12,0.14697266,-0.9993286,0.16326904
1601381360825,13,0.14697266,-0.9993286,0.16326904
1601381360826,14,0.14990234,-1.0039673,0.16375732
1601381360827,15,0.14990234,-1.0039673,0.16375732
1601381360832,16,0.14526367,-0.9961548,0.16473389
1601381360833,17,0.14526367,-0.9961548,0.16473389
1601381360834,18,0.14428711,-1.000061,0.16278076
1601381360836,19,0.14428711,-1.000061,0.16278076
1601381360839,20,0.15234375,-1.00177,0.1630249
1601381360840,21,0.15234375,-1.00177,0.1630249
1601381360846,22,0.14990234,-0.9998169,0.16595459
1601381360847,23,0.14990234,-0.9998169,0.16595459
1601381360848,24,0.14624023,-1.0005493,0.16229248
1601381360849,25,0.14624023,-1.0005493,0.16229248
1601381360855,26,0.15356445,-1.00177,0.16278076
1601381360856,27,0.15356445,-1.00177,0.16278076
1601381360856,28,0.15136719,-1.0005493,0.16448975
1601381360860,29,0.15136719,-1.0005493,0.16448975
1601381360867,30,0.15405273,-0.99957275,0.16790771
1601381360867,31,0.15405273,-0.99957275,0.16790771
1601381360868,32,0.14794922,-1.0020142,0.16571045
1601381360871,33,0.14794922,-1.0020142,0.16571045
1601381360874,34,0.15112305,-0.99957275,0.16229248
1601381360876,35,0.15063477,-1.0005493,0.16668701
1601381360879,36,0.15307617,-1.0012817,0.16790771
1601381360881,37,0.15112305,-0.99957275,0.16229248
1601381360884,38,0.15063477,-1.0005493,0.16668701
1601381360886,39,0.15307617,-1.0012817,0.16790771
1601381360888,40,0.1538086,-1.0003052,0.16473389
1601381360891,41,0.15673828,-0.99664307,0.16937256
1601381360898,42,0.1538086,-1.0003052,0.16473389
1601381360899,43,0.15625,-0.9973755,0.17474365
1601381360902,44,0.15673828,-0.99664307,0.16937256
1601381360903,45,0.15405273,-1.0003052,0.17132568
1601381360906,46,0.15625,-0.9973755,0.17474365
1601381360911,47,0.1574707,-0.9993286,0.17474365
1601381360912,48,0.15405273,-1.0003052,0.17132568
1601381360913,49,0.15478516,-0.99713135,0.16790771
1601381360914,50,0.1574707,-0.9993286,0.17474365
1601381360916,51,0.15478516,-0.99713135,0.16790771
1601381360920,52,0.15649414,-0.9968872,0.17303467
1601381360921,53,0.15649414,-0.9968872,0.17303467
1601381360925,54,0.15576172,-0.9998169,0.17034912
1601381360926,55,0.15576172,-0.9998169,0.17034912
1601381360927,56,0.15551758,-0.9963989,0.17132568
1601381360928,57,0.15551758,-0.9963989,0.17132568
1601381360933,58,0.15429688,-0.99664307,0.16815186
1601381360934,59,0.15429688,-0.99664307,0.16815186
1601381360935,60,0.15478516,-0.9985962,0.17230225
1601381360938,61,0.15478516,-0.9985962,0.17230225
1601381360940,62,0.15722656,-1.0005493,0.17181396
1601381360943,63,0.15722656,-1.0005493,0.17181396
1601381363394,64,0.15673828,-0.99835205,0.17669678
1601381363397,65,0.15673828,-0.99835205,0.17669678
1601381363398,66,0.15478516,-0.9963989,0.16888428
1601381363406,67,0.15478516,-0.9963989,0.16888428
1601381363406,68,0.1538086,-1.005188,0.17523193
1601381363407,69,0.1538086,-1.005188,0.17523193
1601381363408,70,0.15405273,-1.0015259,0.16912842
1601381363409,71,0.15405273,-1.0015259,0.16912842
1601381363409,72,0.15209961,-1.00177,0.16595459
1601381363413,73,0.15209961,-1.00177,0.16595459
1601381363419,74,0.14648438,-1.0022583,0.16619873
1601381363420,75,0.14648438,-1.0022583,0.16619873
1601381363420,76,0.13574219,-1.0081177,0.17645264
1601381363421,77,0.13574219,-1.0081177,0.17645264
1601381363423,78,0.17651367,-0.9834595,0.17352295
1601381363427,79,0.17651367,-0.9834595,0.17352295
1601381363428,80,0.1928711,-1.0005493,0.18182373
1601381363431,81,0.1928711,-1.0005493,0.18182373
1601381363433,82,0.15112305,-1.000061,0.18841553
1601381363436,83,0.13354492,-1.0215454,0.18670654
1601381363439,84,0.15112305,-1.000061,0.18841553
1601381363441,85,0.13354492,-1.0215454,0.18670654
1601381363444,86,0.11401367,-1.0332642,0.16229248
1601381363444,87,0.11401367,-1.0332642,0.16229248
1601381363447,88,0.109375,-1.008606,0.14520264
1601381363449,89,0.109375,-1.008606,0.14520264
1601381363459,90,0.1003418,-1.0003052,0.13153076
1601381363459,91,0.1003418,-1.0003052,0.13153076
1601381363460,92,0.060058594,-1.0049438,0.11077881
1601381363460,93,0.060058594,-1.0049438,0.11077881
1601381363462,94,0.03491211,-1.0183716,0.097351074
1601381363464,95,0.026367188,-1.0059204,0.08123779
1601381363467,96,0.060546875,-1.0239868,0.08441162
1601381363488,97,0.060058594,-1.0127563,0.089782715
1601381363490,98,0.03491211,-1.0183716,0.097351074
1601381363491,99,0.06323242,-1.0222778,0.09637451
1601381363492,100,0.06982422,-1.0256958,0.11444092
1601381363503,101,0.026367188,-1.0059204,0.08123779
1601381363503,102,0.07324219,-1.0281372,0.12420654
1601381363504,103,0.060546875,-1.0239868,0.08441162
1601381363515,104,0.08642578,-1.0291138,0.12176514
1601381363515,105,0.060058594,-1.0127563,0.089782715
1601381363522,106,0.09106445,-1.024231,0.112976074
1601381363523,107,0.06323242,-1.0222778,0.09637451
1601381363524,108,0.06982422,-1.0256958,0.11444092
1601381363524,109,0.092041016,-1.0161743,0.10662842
1601381363528,110,0.09423828,-1.0249634,0.08856201
1601381363529,111,0.07324219,-1.0281372,0.12420654
1601381363532,112,0.08642578,-1.0291138,0.12176514
1601381363535,113,0.09106445,-1.024231,0.112976074
1601381363537,114,0.08862305,-1.0232544,0.085632324
1601381363545,115,0.092041016,-1.0161743,0.10662842
1601381363546,116,0.09887695,-1.0230103,0.08709717
1601381363549,117,0.09423828,-1.0249634,0.08856201
1601381363549,118,0.099609375,-1.0288696,0.08856201
1601381363550,119,0.08862305,-1.0232544,0.085632324
1601381363550,120,0.092285156,-1.0239868,0.08831787
1601381363562,121,0.09887695,-1.0230103,0.08709717
1601381363562,122,0.099365234,-1.0269165,0.08123779
1601381363563,123,0.1015625,-1.024231,0.085876465
1601381363566,124,0.099609375,-1.0288696,0.08856201
1601381363570,125,0.092285156,-1.0239868,0.08831787
1601381363572,126,0.099365234,-1.0269165,0.08123779
1601381363575,127,0.1015625,-1.024231,0.085876465
1601381365894,128,0.099365234,-1.0220337,0.081726074
1601381365899,129,0.099365234,-1.0220337,0.081726074
1601381365900,130,0.091552734,-1.024231,0.07757568
1601381365902,131,0.091552734,-1.024231,0.07757568
1601381365904,132,0.10058594,-1.0269165,0.07611084
1601381365905,133,0.08862305,-1.0227661,0.08416748
1601381365908,134,0.08886719,-1.0188599,0.07952881
1601381365911,135,0.10058594,-1.0269165,0.07611084
1601381365912,136,0.099121094,-1.0335083,0.08294678
1601381365915,137,0.08862305,-1.0227661,0.08416748
1601381365917,138,0.08886719,-1.0188599,0.07952881
1601381365919,139,0.099121094,-1.0335083,0.08294678
1601381365922,140,0.09057617,-1.0300903,0.07318115
1601381365927,141,0.09057617,-1.0300903,0.07318115
1601381365928,142,0.10083008,-1.0305786,0.09051514
1601381365928,143,0.10083008,-1.0305786,0.09051514
1601381365930,144,0.09301758,-1.0291138,0.09857178
1601381365933,145,0.09301758,-1.0291138,0.09857178
1601381365935,146,0.072265625,-1.0108032,0.090026855
1601381365937,147,0.072265625,-1.0108032,0.090026855
1601381365939,148,0.05908203,-1.0144653,0.08270264
1601381365942,149,0.05908203,-1.0144653,0.08270264
1601381365944,150,0.07299805,-1.0264282,0.094177246
1601381365946,151,0.07299805,-1.0264282,0.094177246
1601381365951,152,0.07763672,-1.0291138,0.097351074
1601381365951,153,0.07763672,-1.0291138,0.097351074
1601381365952,154,0.08496094,-1.0254517,0.09857178
1601381365955,155,0.08496094,-1.0254517,0.09857178
1601381365958,156,0.07446289,-1.0315552,0.090026855
1601381365959,157,0.07446289,-1.0315552,0.090026855
1601381365963,158,0.051513672,-1.0264282,0.07244873
1601381365963,159,0.051513672,-1.0264282,0.07244873
1601381365966,160,0.067871094,-1.0281372,0.07977295
1601381365967,161,0.067871094,-1.0281372,0.07977295
1601381365972,162,0.0715332,-1.0203247,0.086364746
1601381365973,163,0.0715332,-1.0203247,0.086364746
1601381365979,164,0.068359375,-1.0283813,0.10296631
1601381365983,165,0.067871094,-1.0215454,0.10272217
1601381365983,166,0.068359375,-1.0283813,0.10296631
1601381365987,167,0.064208984,-1.0291138,0.09686279
1601381365987,168,0.067871094,-1.0215454,0.10272217
1601381365991,169,0.07788086,-1.0234985,0.10418701
1601381365992,170,0.064208984,-1.0291138,0.09686279
1601381365995,171,0.08129883,-1.0110474,0.11468506
1601381365996,172,0.07788086,-1.0234985,0.10418701
1601381365998,173,0.061279297,-1.0303345,0.09320068
1601381366004,174,0.08129883,-1.0110474,0.11468506
1601381366005,175,0.049316406,-1.039856,0.08465576
1601381366005,176,0.061279297,-1.0303345,0.09320068
1601381366006,177,0.041503906,-1.024231,0.077819824
1601381366009,178,0.072509766,-1.020813,0.113220215
1601381366009,179,0.049316406,-1.039856,0.08465576
1601381366011,180,0.0769043,-1.0134888,0.0927124
1601381366014,181,0.041503906,-1.024231,0.077819824
1601381366016,182,0.06762695,-1.046936,0.085632324
1601381366017,183,0.072509766,-1.020813,0.113220215
1601381366019,184,0.1274414,-0.97540283,0.07977295
1601381366021,185,0.09472656,-1.0244751,0.113708496
1601381366025,186,0.0769043,-1.0134888,0.0927124
1601381366026,187,0.075927734,-1.0154419,0.124694824
1601381366029,188,0.06762695,-1.046936,0.085632324
1601381366032,189,0.1274414,-0.97540283,0.07977295
1601381366034,190,0.09472656,-1.0244751,0.113708496
1601381366037,191,0.075927734,-1.0154419,0.124694824
1601381368590,192,-0.010009766,-1.0581665,0.12322998
1601381368594,193,-0.036621094,-1.1653442,0.074157715
1601381368595,194,-0.010009766,-1.0581665,0.12322998
1601381368597,195,-0.05493164,-1.0842896,-0.039123535
1601381368601,196,-0.036621094,-1.1653442,0.074157715
1601381368602,197,-0.04321289,-1.048645,-0.16168213
1601381368604,198,-0.05493164,-1.0842896,-0.039123535
1601381368607,199,-0.18847656,-0.89434814,-0.15142822
1601381368608,200,-0.04321289,-1.048645,-0.16168213
1601381368616,201,-0.16967773,-0.8152466,-0.1560669
1601381368616,202,-0.18847656,-0.89434814,-0.15142822
1601381368617,203,-0.09692383,-1.0234985,-0.07745361
1601381368618,204,-0.16967773,-0.8152466,-0.1560669
1601381368619,205,-0.06518555,-1.2224731,0.012634277
1601381368623,206,-0.09692383,-1.0234985,-0.07745361
1601381368625,207,-0.07104492,-1.0354614,0.042907715
1601381368626,208,-0.06518555,-1.2224731,0.012634277
1601381368628,209,-0.034179688,-1.0027466,0.0524292
1601381368633,210,-0.029541016,-1.0430298,0.09173584
1601381368633,211,-0.07104492,-1.0354614,0.042907715
1601381368635,212,-0.034179688,-1.0027466,0.0524292
1601381368635,213,0.044433594,-1.000061,0.09564209
1601381368638,214,-0.029541016,-1.0430298,0.09173584
1601381368640,215,0.08129883,-1.0349731,0.101501465
1601381368642,216,0.044433594,-1.000061,0.09564209
1601381368644,217,-0.016357422,-0.9639282,0.093933105
1601381368649,218,0.08129883,-1.0349731,0.101501465
1601381368650,219,0.05859375,-1.0715942,0.09320068
1601381368651,220,-0.016357422,-0.9639282,0.093933105
1601381368651,221,0.05126953,-1.0315552,0.13006592
1601381368653,222,0.05859375,-1.0715942,0.09320068
1601381368656,223,0.06323242,-1.0078735,0.16131592
1601381368659,224,0.05126953,-1.0315552,0.13006592
1601381368660,225,0.078125,-1.0437622,0.17913818
1601381368662,226,0.06323242,-1.0078735,0.16131592
1601381368664,227,0.07836914,-1.0007935,0.20697021
1601381368667,228,0.078125,-1.0437622,0.17913818
1601381368669,229,0.072265625,-0.97540283,0.14837646
1601381368671,230,0.07836914,-1.0007935,0.20697021
1601381368672,231,0.060546875,-1.0459595,0.1618042
1601381368675,232,0.072265625,-0.97540283,0.14837646
1601381368676,233,0.041015625,-1.0354614,0.14276123
1601381368679,234,0.060546875,-1.0459595,0.1618042
1601381368683,235,0.040039062,-0.98687744,0.14984131
1601381368683,236,0.041015625,-1.0354614,0.14276123
1601381368687,237,0.0390625,-1.0322876,0.1359253
1601381368687,238,0.040039062,-0.98687744,0.14984131
1601381368688,239,0.06738281,-1.03302,0.11785889
1601381368689,240,0.0390625,-1.0322876,0.1359253
1601381368690,241,0.049804688,-1.0078735,0.1317749
1601381368692,242,0.06738281,-1.03302,0.11785889
1601381368693,243,0.08154297,-1.0332642,0.12786865
1601381368694,244,0.049804688,-1.0078735,0.1317749
1601381368696,245,0.07861328,-1.0213013,0.124694824
1601381368698,246,0.08154297,-1.0332642,0.12786865
1601381368704,247,0.07861328,-1.0213013,0.124694824
1601381368705,248,0.061767578,-1.0093384,0.11785889
1601381368706,249,0.061767578,-1.0093384,0.11785889
1601381368706,250,0.064697266,-1.0254517,0.11981201
1601381368706,251,0.06542969,-1.0213013,0.120788574
1601381368713,252,0.06347656,-1.0205688,0.12445068
1601381368716,253,0.064697266,-1.0254517,0.11981201
1601381368720,254,0.06542969,-1.0213013,0.120788574
1601381368723,255,0.06347656,-1.0205688,0.12445068
1601381371099,256,0.064941406,-1.0244751,0.13250732
1601381371100,257,0.064941406,-1.0244751,0.13250732
1601381371101,258,0.07714844,-1.0200806,0.13739014
1601381371102,259,0.07714844,-1.0200806,0.13739014
1601381371105,260,0.07055664,-1.0286255,0.13861084
1601381371106,261,0.07055664,-1.0286255,0.13861084
1601381371108,262,0.0690918,-1.0142212,0.13006592
1601381371109,263,0.0690918,-1.0142212,0.13006592
1601381371111,264,0.0690918,-1.0122681,0.12957764
1601381371114,265,0.0690918,-1.0122681,0.12957764
1601381371116,266,0.072509766,-1.0227661,0.13812256
1601381371119,267,0.072509766,-1.0227661,0.13812256
1601381371120,268,0.068115234,-1.0161743,0.1359253
1601381371128,269,0.068115234,-1.0161743,0.1359253
1601381371129,270,0.0690918,-1.0210571,0.137146
1601381371129,271,0.0690918,-1.0210571,0.137146
1601381371129,272,0.071777344,-1.0169067,0.13494873
1601381371131,273,0.071777344,-1.0169067,0.13494873
1601381371135,274,0.07299805,-1.0195923,0.13421631
1601381371136,275,0.07299805,-1.0195923,0.13421631
1601381371142,276,0.068847656,-1.0183716,0.12640381
1601381371142,277,0.068847656,-1.0183716,0.12640381
1601381371144,278,0.06665039,-1.017395,0.13250732
1601381371147,279,0.06665039,-1.017395,0.13250732
1601381371148,280,0.06689453,-1.0161743,0.13446045
1601381371151,281,0.07299805,-1.0322876,0.13983154
1601381371152,282,0.06689453,-1.0161743,0.13446045
1601381371155,283,0.06689453,-1.0352173,0.12860107
1601381371155,284,0.07299805,-1.0322876,0.13983154
1601381371157,285,0.084472656,-1.0095825,0.15032959
1601381371159,286,0.08520508,-0.9902954,0.16473389
1601381371161,287,0.06689453,-1.0352173,0.12860107
1601381371164,288,0.0871582,-1.0154419,0.1774292
1601381371165,289,0.08178711,-1.0127563,0.16082764
1601381371167,290,0.076416016,-1.0117798,0.1515503
1601381371169,291,0.07446289,-1.0154419,0.14837646
1601381371172,292,0.084472656,-1.0095825,0.15032959
1601381371173,293,0.0703125,-1.0144653,0.14471436
1601381371175,294,0.08520508,-0.9902954,0.16473389
1601381371177,295,0.06762695,-1.0093384,0.14349365
1601381371182,296,0.0871582,-1.0154419,0.1774292
1601381371183,297,0.07397461,-1.0159302,0.14886475
1601381371183,298,0.08178711,-1.0127563,0.16082764
1601381371183,299,0.07348633,-1.0281372,0.13885498
1601381371187,300,0.076416016,-1.0117798,0.1515503
1601381371187,301,0.044189453,-1.0320435,0.12713623
1601381371190,302,0.07446289,-1.0154419,0.14837646
1601381371191,303,0.043945312,-1.0249634,0.11663818
1601381371194,304,0.0703125,-1.0144653,0.14471436
1601381371195,305,0.04638672,-1.0203247,0.120788574
1601381371197,306,0.053710938,-1.017395,0.12713623
1601381371201,307,0.06762695,-1.0093384,0.14349365
1601381371202,308,0.06591797,-1.0166626,0.1359253
1601381371204,309,0.068359375,-1.0227661,0.13934326
1601381371206,310,0.07397461,-1.0159302,0.14886475
1601381371209,311,0.06689453,-1.0183716,0.12835693
1601381371213,312,0.07348633,-1.0281372,0.13885498
1601381371215,313,0.044189453,-1.0320435,0.12713623
1601381371219,314,0.043945312,-1.0249634,0.11663818
1601381371221,315,0.04638672,-1.0203247,0.120788574
1601381371223,316,0.053710938,-1.017395,0.12713623
1601381371225,317,0.06591797,-1.0166626,0.1359253
1601381371227,318,0.068359375,-1.0227661,0.13934326
1601381371230,319,0.06689453,-1.0183716,0.12835693
1601381373795,320,0.06323242,-1.0252075,0.1293335
1601381373795,321,0.07543945,-1.0159302,0.12542725
1601381373798,322,0.06323242,-1.0252075,0.1293335
1601381373800,323,0.0703125,-1.024231,0.12689209
1601381373802,324,0.07543945,-1.0159302,0.12542725
1601381373809,325,0.071777344,-1.0186157,0.13323975
1601381373810,326,0.0703125,-1.024231,0.12689209
1601381373811,327,0.06982422,-1.0188599,0.14154053
1601381373811,328,0.071777344,-1.0186157,0.13323975
1601381373812,329,0.071777344,-1.0227661,0.14251709
1601381373813,330,0.06982422,-1.0188599,0.14154053
1601381373817,331,0.06982422,-1.0142212,0.14300537
1601381373817,332,0.071777344,-1.0227661,0.14251709
1601381373820,333,0.06982422,-1.0142212,0.14300537
1601381373821,334,0.0703125,-1.0288696,0.13616943
1601381373824,335,0.068603516,-1.0159302,0.13104248
1601381373831,336,0.072509766,-1.0076294,0.137146
1601381373831,337,0.0703125,-1.0288696,0.13616943
1601381373832,338,0.084228516,-1.0186157,0.14764404
1601381373833,339,0.068603516,-1.0159302,0.13104248
1601381373841,340,0.084472656,-1.0144653,0.15692139
1601381373841,341,0.072509766,-1.0076294,0.137146
1601381373842,342,0.084228516,-1.0186157,0.14764404
1601381373843,343,0.08203125,-1.022522,0.14935303
1601381373848,344,0.084472656,-1.0144653,0.15692139
1601381373848,345,0.076416016,-1.010315,0.15570068
1601381373850,346,0.08203125,-1.022522,0.14935303
1601381373852,347,0.076416016,-1.010315,0.15570068
1601381373855,348,0.07324219,-1.006897,0.14251709
1601381373857,349,0.072021484,-1.0266724,0.1408081
1601381373859,350,0.07910156,-1.0186157,0.13665771
1601381373861,351,0.07324219,-1.006897,0.14251709
1601381373867,352,0.072021484,-1.0266724,0.1408081
1601381373868,353,0.08129883,-1.0178833,0.13861084
1601381373868,354,0.07910156,-1.0186157,0.13665771
1601381373869,355,0.07788086,-1.0186157,0.14105225
1601381373871,356,0.08129883,-1.0178833,0.13861084
1601381373873,357,0.07788086,-1.0186157,0.14105225
1601381373876,358,0.079589844,-1.0188599,0.14056396
1601381373877,359,0.079589844,-1.0188599,0.14056396
1601381373879,360,0.0769043,-1.0186157,0.13861084
1601381373883,361,0.0769043,-1.0186157,0.13861084
1601381373883,362,0.076171875,-1.0110474,0.14251709
1601381373886,363,0.076171875,-1.0110474,0.14251709
1601381373890,364,0.07397461,-1.0247192,0.14300537
1601381373891,365,0.07397461,-1.0247192,0.14300537
1601381373893,366,0.07104492,-1.0198364,0.13397217
1601381373894,367,0.07104492,-1.0198364,0.13397217
1601381373896,368,0.06762695,-1.0205688,0.12786865
1601381373899,369,0.06762695,-1.0205688,0.12786865
1601381373901,370,0.06689453,-1.0193481,0.1239624
1601381373905,371,0.07299805,-1.0232544,0.13250732
1601381373906,372,0.06689453,-1.0193481,0.1239624
1601381373909,373,0.06713867,-1.0222778,0.1281128
1601381373909,374,0.07299805,-1.0232544,0.13250732
1601381373912,375,0.072753906,-1.0249634,0.12884521
1601381373915,376,0.06713867,-1.0222778,0.1281128
1601381373920,377,0.072753906,-1.0249634,0.12884521
1601381373921,378,0.068115234,-1.0230103,0.1281128
1601381373921,379,0.068115234,-1.0230103,0.1281128
1601381373923,380,0.06616211,-1.0171509,0.121276855
1601381373924,381,0.06616211,-1.0171509,0.121276855
1601381373926,382,0.07348633,-1.0169067,0.124694824
1601381373929,383,0.07348633,-1.0169067,0.124694824
1601381376293,384,0.07080078,-1.0198364,0.11932373
1601381376299,385,0.07080078,-1.0198364,0.11932373
1601381376299,386,0.07104492,-1.0195923,0.12176514
1601381376300,387,0.07104492,-1.0195923,0.12176514
1601381376301,388,0.063964844,-1.022522,0.11566162
1601381376303,389,0.063964844,-1.022522,0.11566162
1601381376307,390,0.068603516,-1.0230103,0.1161499
1601381376307,391,0.068603516,-1.0230103,0.1161499
1601381376311,392,0.07470703,-1.0237427,0.11663818
1601381376312,393,0.07470703,-1.0237427,0.11663818
1601381376315,394,0.080078125,-1.0203247,0.11102295
1601381376317,395,0.07543945,-1.0269165,0.11077881
1601381376326,396,0.07543945,-1.0239868,0.1083374
1601381376327,397,0.080078125,-1.0203247,0.11102295
1601381376327,398,0.076660156,-1.0222778,0.10394287
1601381376327,399,0.07543945,-1.0269165,0.11077881
1601381376329,400,0.07543945,-1.0239868,0.1083374
1601381376330,401,0.07788086,-1.0261841,0.10858154
1601381376334,402,0.076660156,-1.0222778,0.10394287
1601381376334,403,0.08227539,-1.0230103,0.11029053
1601381376345,404,0.08129883,-1.02594,0.10760498
1601381376345,405,0.07788086,-1.0261841,0.10858154
1601381376345,406,0.07324219,-1.017395,0.10809326
1601381376346,407,0.08227539,-1.0230103,0.11029053
1601381376346,408,0.08300781,-1.0200806,0.11444092
1601381376347,409,0.08129883,-1.02594,0.10760498
1601381376349,410,0.07324219,-1.017395,0.10809326
1601381376352,411,0.0847168,-1.0195923,0.117614746
1601381376354,412,0.08300781,-1.0200806,0.11444092
1601381376356,413,0.0859375,-1.0205688,0.12005615
1601381376358,414,0.0847168,-1.0195923,0.117614746
1601381376363,415,0.08251953,-1.0213013,0.11639404
1601381376364,416,0.0859375,-1.0205688,0.12005615
1601381376365,417,0.08178711,-1.0249634,0.113464355
1601381376382,418,0.08251953,-1.0213013,0.11639404
1601381376383,419,0.08300781,-1.0410767,0.11859131
1601381376385,420,0.08178711,-1.0249634,0.113464355
1601381376385,421,0.07470703,-1.0142212,0.12030029
1601381376386,422,0.08300781,-1.0410767,0.11859131
1601381376387,423,0.09082031,-1.005188,0.13739014
1601381376388,424,0.07470703,-1.0142212,0.12030029
1601381376389,425,0.080078125,-1.0105591,0.15985107
1601381376389,426,0.09082031,-1.005188,0.13739014
1601381376390,427,0.08911133,-1.0095825,0.14691162
1601381376391,428,0.080078125,-1.0105591,0.15985107
1601381376392,429,0.07836914,-1.029602,0.14251709
1601381376392,430,0.064941406,-1.0110474,0.13641357
1601381376395,431,0.064697266,-1.0093384,0.13983154
1601381376397,432,0.08911133,-1.0095825,0.14691162
1601381376399,433,0.06738281,-1.02594,0.15447998
1601381376405,434,0.07836914,-1.029602,0.14251709
1601381376406,435,0.068359375,-1.0239868,0.14788818
1601381376407,436,0.064941406,-1.0110474,0.13641357
1601381376408,437,0.05834961,-1.019104,0.1461792
1601381376409,438,0.064697266,-1.0093384,0.13983154
1601381376411,439,0.05102539,-1.0181274,0.14105225
1601381376413,440,0.05859375,-1.0252075,0.14178467
1601381376416,441,0.056884766,-1.0169067,0.1317749
1601381376416,442,0.06738281,-1.02594,0.15447998
1601381376420,443,0.068359375,-1.0239868,0.14788818
1601381376423,444,0.05834961,-1.019104,0.1461792
1601381376425,445,0.05102539,-1.0181274,0.14105225
1601381376427,446,0.05859375,-1.0252075,0.14178467
1601381376431,447,0.056884766,-1.0169067,0.1317749
1601381378792,448,0.05908203,-1.0115356,0.12445068
1601381378800,449,0.05908203,-1.0115356,0.12445068
1601381378801,450,0.068603516,-1.0144653,0.13226318
1601381378803,451,0.068603516,-1.0144653,0.13226318
1601381378803,452,0.08618164,-1.0266724,0.12567139
1601381378805,453,0.08618164,-1.0266724,0.12567139
1601381378818,454,0.060058594,-1.0049438,0.12542725
1601381378819,455,0.060058594,-1.0049438,0.12542725
1601381378819,456,0.049316406,-1.0271606,0.13275146
1601381378823,457,0.064208984,-1.0159302,0.13153076
1601381378823,458,0.052490234,-1.0244751,0.13226318
1601381378827,459,0.049316406,-1.0271606,0.13275146
1601381378833,460,0.048339844,-1.024231,0.14056396
1601381378835,461,0.056640625,-1.013977,0.13665771
1601381378835,462,0.064208984,-1.0159302,0.13153076
1601381378837,463,0.053222656,-1.0178833,0.12982178
1601381378837,464,0.052490234,-1.0244751,0.13226318
1601381378838,465,0.056884766,-1.0335083,0.12957764
1601381378839,466,0.048339844,-1.024231,0.14056396
1601381378842,467,0.056640625,-1.013977,0.13665771
1601381378843,468,0.06713867,-1.0020142,0.12371826
1601381378845,469,0.053222656,-1.0178833,0.12982178
1601381378847,470,0.056884766,-1.0335083,0.12957764
1601381378850,471,0.06713867,-1.0020142,0.12371826
1601381378852,472,0.057617188,-1.039856,0.13201904
1601381378854,473,0.057617188,-1.039856,0.13201904
1601381378858,474,0.072021484,-1.0083618,0.12542725
1601381378859,475,0.072021484,-1.0083618,0.12542725
1601381378861,476,0.06542969,-1.0169067,0.11883545
1601381378863,477,0.0690918,-1.029602,0.117614746
1601381378865,478,0.0715332,-1.020813,0.120788574
1601381378868,479,0.06542969,-1.0169067,0.11883545
1601381378870,480,0.0690918,-1.029602,0.117614746
1601381378872,481,0.0715332,-1.020813,0.120788574
1601381378874,482,0.06762695,-1.0110474,0.1239624
1601381378876,483,0.064697266,-1.0120239,0.12664795
1601381378879,484,0.06298828,-1.0298462,0.13006592
1601381378883,485,0.076660156,-0.9890747,0.12567139
1601381378883,486,0.06762695,-1.0110474,0.1239624
1601381378889,487,0.018066406,-1.0794067,0.14544678
1601381378890,488,0.064697266,-1.0120239,0.12664795
1601381378890,489,0.048583984,-1.0073853,0.1486206
1601381378891,490,0.06298828,-1.0298462,0.13006592
1601381378894,491,0.042236328,-1.0344849,0.14178467
1601381378898,492,0.050048828,-1.0222778,0.1437378
1601381378898,493,0.076660156,-0.9890747,0.12567139
1601381378901,494,0.068847656,-1.0081177,0.14227295
1601381378902,495,0.018066406,-1.0794067,0.14544678
1601381378904,496,0.06933594,-1.0159302,0.13861084
1601381378907,497,0.048583984,-1.0073853,0.1486206
1601381378912,498,0.042236328,-1.0344849,0.14178467
1601381378912,499,0.06640625,-1.0234985,0.1461792
1601381378914,500,0.050048828,-1.0222778,0.1437378
1601381378915,501,0.06933594,-1.0066528,0.14154053
1601381378917,502,0.068847656,-1.0081177,0.14227295
1601381378918,503,0.09106445,-1.0078735,0.14227295
1601381378922,504,0.0871582,-1.0293579,0.13909912
1601381378923,505,0.06933594,-1.0159302,0.13861084
1601381378926,506,0.048583984,-1.0249634,0.13446045
1601381378927,507,0.06640625,-1.0234985,0.1461792
1601381378930,508,0.06933594,-1.0066528,0.14154053
1601381378933,509,0.09106445,-1.0078735,0.14227295
1601381378936,510,0.0871582,-1.0293579,0.13909912
1601381378938,511,0.048583984,-1.0249634,0.13446045
1601381381394,512,0.047607422,-1.015686,0.12786865
1601381381396,513,0.047607422,-1.015686,0.12786865
1601381381404,514,0.063964844,-1.0093384,0.113220215
1601381381406,515,0.068359375,-1.0332642,0.121032715
1601381381406,516,0.063964844,-1.0093384,0.113220215
1601381381407,517,0.08691406,-1.019104,0.10736084
1601381381408,518,0.068359375,-1.0332642,0.121032715
1601381381410,519,0.06713867,-1.0237427,0.10614014
1601381381412,520,0.068359375,-1.0286255,0.10662842
1601381381415,521,0.08691406,-1.019104,0.10736084
1601381381416,522,0.056396484,-1.0383911,0.11102295
1601381381418,523,0.06713867,-1.0237427,0.10614014
1601381381420,524,0.068359375,-1.0286255,0.10662842
1601381381423,525,0.07006836,-1.0210571,0.10247803
1601381381434,526,0.056396484,-1.0383911,0.11102295
1601381381434,527,0.068603516,-1.0222778,0.097351074
1601381381434,528,0.07006836,-1.0210571,0.10247803
1601381381435,529,0.06665039,-1.0234985,0.10028076
1601381381437,530,0.068603516,-1.0222778,0.097351074
1601381381437,531,0.064208984,-1.0203247,0.10003662
1601381381438,532,0.06665039,-1.0234985,0.10028076
1601381381439,533,0.06689453,-1.0254517,0.101745605
1601381381440,534,0.064208984,-1.0203247,0.10003662
1601381381442,535,0.060791016,-1.0252075,0.09857178
1601381381445,536,0.060302734,-1.0193481,0.10003662
1601381381447,537,0.061767578,-1.0256958,0.10467529
1601381381448,538,0.063964844,-1.0220337,0.09613037
1601381381451,539,0.061767578,-1.02594,0.0927124
1601381381453,540,0.06689453,-1.0254517,0.101745605
1601381381459,541,0.072753906,-1.0315552,0.10638428
1601381381459,542,0.060791016,-1.0252075,0.09857178
1601381381460,543,0.060791016,-1.0169067,0.09832764
1601381381461,544,0.060302734,-1.0193481,0.10003662
1601381381467,545,0.06542969,-1.022522,0.10345459
1601381381468,546,0.061767578,-1.0256958,0.10467529
1601381381469,547,0.06738281,-1.0305786,0.10296631
1601381381470,548,0.063964844,-1.0220337,0.09613037
1601381381473,549,0.068115234,-1.0237427,0.10223389
1601381381474,550,0.061767578,-1.02594,0.0927124
1601381381475,551,0.068115234,-1.0220337,0.10418701
1601381381481,552,0.072753906,-1.0315552,0.10638428
1601381381482,553,0.072021484,-1.02594,0.10784912
1601381381483,554,0.060791016,-1.0169067,0.09832764
1601381381484,555,0.06616211,-1.0359497,0.101989746
1601381381487,556,0.06542969,-1.022522,0.10345459
1601381381488,557,0.059814453,-1.0352173,0.117614746
1601381381496,558,0.06738281,-1.0305786,0.10296631
1601381381497,559,0.07836914,-1.0015259,0.13568115
1601381381498,560,0.068115234,-1.0237427,0.10223389
1601381381501,561,0.09472656,-1.0027466,0.14031982
1601381381501,562,0.068115234,-1.0220337,0.10418701
1601381381505,563,0.072021484,-1.02594,0.10784912
1601381381505,564,0.076171875,-1.0303345,0.137146
1601381381507,565,0.06616211,-1.0359497,0.101989746
1601381381510,566,0.059814453,-1.0352173,0.117614746
1601381381513,567,0.056396484,-1.0132446,0.13616943
1601381381514,568,0.07836914,-1.0015259,0.13568115
1601381381516,569,0.024658203,-1.0151978,0.12542725
1601381381519,570,0.09472656,-1.0027466,0.14031982
1601381381520,571,0.088134766,-1.0083618,0.14056396
1601381381522,572,0.076171875,-1.0303345,0.137146
1601381381526,573,0.056396484,-1.0132446,0.13616943
1601381381529,574,0.024658203,-1.0151978,0.12542725
1601381381531,575,0.088134766,-1.0083618,0.14056396
1601381383993,576,0.053955078,-1.0359497,0.12176514
1601381383994,577,0.053955078,-1.0359497,0.12176514
1601381384006,578,0.0087890625,-1.0027466,0.13983154
1601381384007,579,0.0087890625,-1.0027466,0.13983154
1601381384008,580,0.026367188,-1.0110474,0.1642456
1601381384009,581,0.08203125,-1.0176392,0.13201904
1601381384010,582,0.026367188,-1.0110474,0.1642456
1601381384010,583,0.051757812,-1.0217896,0.15057373
1601381384013,584,0.08203125,-1.0176392,0.13201904
1601381384015,585,0.051757812,-1.0217896,0.15057373
1601381384022,586,0.056640625,-1.0261841,0.15545654
1601381384022,587,0.034423828,-1.0144653,0.13690186
1601381384027,588,0.056640625,-1.0261841,0.15545654
1601381384028,589,0.04345703,-1.029602,0.12640381
1601381384028,590,0.034423828,-1.0144653,0.13690186
1601381384029,591,0.045898438,-1.0171509,0.13201904
1601381384034,592,0.04345703,-1.029602,0.12640381
1601381384035,593,0.045654297,-1.0239868,0.14324951
1601381384036,594,0.045898438,-1.0171509,0.13201904
1601381384037,595,0.03930664,-1.0249634,0.137146
1601381384044,596,0.045654297,-1.0239868,0.14324951
1601381384044,597,0.036132812,-1.0215454,0.1395874
1601381384045,598,0.03930664,-1.0249634,0.137146
1601381384049,599,0.03857422,-1.015686,0.13323975
1601381384050,600,0.036132812,-1.0215454,0.1395874
1601381384052,601,0.04248047,-1.0193481,0.13934326
1601381384054,602,0.042236328,-1.022522,0.14324951
1601381384056,603,0.032226562,-1.0234985,0.14935303
1601381384059,604,0.03857422,-1.015686,0.13323975
1601381384061,605,0.052001953,-1.019104,0.15692139
1601381384062,606,0.04248047,-1.0193481,0.13934326
1601381384064,607,0.035888672,-1.0181274,0.14788818
1601381384072,608,0.042236328,-1.022522,0.14324951
1601381384073,609,0.034423828,-1.0081177,0.14691162
1601381384074,610,0.032226562,-1.0234985,0.14935303
1601381384074,611,0.052734375,-1.017395,0.15057373
1601381384076,612,0.052001953,-1.019104,0.15692139
1601381384081,613,0.03881836,-1.0134888,0.15179443
1601381384082,614,0.035888672,-1.0181274,0.14788818
1601381384084,615,0.034423828,-1.0081177,0.14691162
1601381384087,616,0.035888672,-1.0205688,0.15350342
1601381384090,617,0.044189453,-1.0178833,0.152771
1601381384092,618,0.037841797,-1.022522,0.15863037
1601381384100,619,0.052734375,-1.017395,0.15057373
1601381384100,620,0.018066406,-1.0032349,0.14178467
1601381384101,621,0.057617188,-1.0298462,0.13421631
1601381384102,622,0.03881836,-1.0134888,0.15179443
1601381384105,623,0.02734375,-1.0203247,0.12445068
1601381384107,624,0.03100586,-1.0181274,0.12884521
1601381384110,625,0.035888672,-1.0205688,0.15350342
1601381384111,626,0.052978516,-1.0288696,0.1383667
1601381384114,627,0.044189453,-1.0178833,0.152771
1601381384116,628,0.037841797,-1.022522,0.15863037
1601381384118,629,0.06225586,-1.0239868,0.13519287
1601381384120,630,0.018066406,-1.0032349,0.14178467
1601381384123,631,0.057617188,-1.0298462,0.13421631
1601381384125,632,0.02734375,-1.0203247,0.12445068
1601381384130,633,0.060302734,-1.0144653,0.1383667
1601381384130,634,0.03100586,-1.0181274,0.12884521
1601381384131,635,0.055664062,-1.0215454,0.13470459
1601381384133,636,0.052978516,-1.0288696,0.1383667
1601381384138,637,0.06225586,-1.0239868,0.13519287
1601381384139,638,0.060302734,-1.0144653,0.1383667
1601381384141,639,0.055664062,-1.0215454,0.13470459
1601381386399,640,0.05419922,-1.0193481,0.1329956
1601381386401,641,0.05419922,-1.0193481,0.1329956
1601381386404,642,0.059326172,-1.0269165,0.12982178
1601381386405,643,0.059326172,-1.0269165,0.12982178
1601381386408,644,0.052734375,-1.0220337,0.12322998
1601381386409,645,0.052734375,-1.0220337,0.12322998
1601381386412,646,0.072021484,-1.0271606,0.1239624
1601381386412,647,0.072021484,-1.0271606,0.1239624
1601381386415,648,0.07080078,-1.0142212,0.12738037
1601381386418,649,0.07080078,-1.0142212,0.12738037
1601381386418,650,0.061767578,-1.0183716,0.13128662
1601381386427,651,0.061767578,-1.0183716,0.13128662
1601381386427,652,0.05859375,-1.0188599,0.12567139
1601381386429,653,0.05859375,-1.0188599,0.12567139
1601381386429,654,0.064453125,-1.0247192,0.13470459
1601381386431,655,0.064453125,-1.0247192,0.13470459
1601381386431,656,0.08203125,-1.036438,0.13494873
1601381386433,657,0.08203125,-1.036438,0.13494873
1601381386440,658,0.052734375,-1.0144653,0.13031006
1601381386442,659,0.052734375,-1.0144653,0.13031006
1601381386442,660,0.05908203,-1.0210571,0.13006592
1601381386442,661,0.05908203,-1.0210571,0.13006592
1601381386443,662,0.060791016,-1.0217896,0.13421631
1601381386446,663,0.060791016,-1.0217896,0.13421631
1601381386448,664,0.05126953,-1.0237427,0.12957764
1601381386450,665,0.075683594,-1.0205688,0.12200928
1601381386453,666,0.05126953,-1.0237427,0.12957764
1601381386454,667,0.061523438,-1.0200806,0.12005615
1601381386456,668,0.075683594,-1.0205688,0.12200928
1601381386458,669,0.061523438,-1.0200806,0.12005615
1601381386460,670,0.071777344,-1.0444946,0.10882568
1601381386462,671,0.071777344,-1.0444946,0.10882568
1601381386464,672,0.049560547,-1.0215454,0.12054443
1601381386467,673,0.049560547,-1.0215454,0.12054443
1601381386468,674,0.05810547,-1.0183716,0.12225342
1601381386476,675,0.059814453,-1.0200806,0.12298584
1601381386477,676,0.05810547,-1.0183716,0.12225342
1601381386478,677,0.061279297,-1.0237427,0.12664795
1601381386479,678,0.059814453,-1.0200806,0.12298584
1601381386479,679,0.055664062,-1.0200806,0.12200928
1601381386480,680,0.061279297,-1.0237427,0.12664795
1601381386482,681,0.045898438,-1.0110474,0.11639404
1601381386486,682,0.055664062,-1.0200806,0.12200928
1601381386488,683,0.045898438,-1.0110474,0.11639404
1601381386493,684,0.075683594,-1.0213013,0.12030029
1601381386494,685,0.075683594,-1.0213013,0.12030029
1601381386495,686,0.061279297,-1.0200806,0.12591553
1601381386495,687,0.061279297,-1.0200806,0.12591553
1601381386498,688,0.052734375,-1.0200806,0.116882324
1601381386499,689,0.05419922,-1.0288696,0.12054443
1601381386502,690,0.052734375,-1.0200806,0.116882324
1601381386504,691,0.05419922,-1.0288696,0.12054443
1601381386506,692,0.051513672,-1.0227661,0.12005615
1601381386508,693,0.055419922,-1.0217896,0.11883545
1601381386510,694,0.051513672,-1.0227661,0.12005615
1601381386512,695,0.061523438,-1.020813,0.11810303
1601381386514,696,0.059326172,-1.0200806,0.11859131
1601381386517,697,0.06298828,-1.024231,0.11883545
1601381386519,698,0.055419922,-1.0217896,0.11883545
1601381386520,699,0.061523438,-1.0247192,0.12640381
1601381386522,700,0.061523438,-1.020813,0.11810303
1601381386526,701,0.059326172,-1.0200806,0.11859131
1601381386531,702,0.06298828,-1.024231,0.11883545
1601381386531,703,0.061523438,-1.0247192,0.12640381
1601381389212,704,0.055664062,-1.0264282,0.12200928
1601381389214,705,0.055664062,-1.0264282,0.12200928
1601381389215,706,0.063964844,-1.017395,0.11810303
1601381389216,707,0.063964844,-1.017395,0.11810303
1601381389220,708,0.057128906,-1.0266724,0.11859131
1601381389221,709,0.061523438,-1.0222778,0.12030029
1601381389224,710,0.057128906,-1.0266724,0.11859131
1601381389228,711,0.060546875,-1.0244751,0.121032715
1601381389232,712,0.061523438,-1.0222778,0.12030029
1601381389234,713,0.053466797,-1.0232544,0.12640381
1601381389235,714,0.060546875,-1.0244751,0.121032715
1601381389243,715,0.053466797,-1.0232544,0.12640381
1601381389245,716,0.05419922,-1.0234985,0.121520996
1601381389247,717,0.05419922,-1.0234985,0.121520996
1601381389248,718,0.056152344,-1.0217896,0.12054443
1601381389249,719,0.056152344,-1.0217896,0.12054443
1601381389249,720,0.057861328,-1.0205688,0.12322998
1601381389250,721,0.057861328,-1.0205688,0.12322998
1601381389256,722,0.06347656,-1.020813,0.12200928
1601381389256,723,0.06640625,-1.0266724,0.121276855
1601381389257,724,0.06347656,-1.020813,0.12200928
1601381389259,725,0.063964844,-1.0213013,0.11785889
1601381389259,726,0.06640625,-1.0266724,0.121276855
1601381389266,727,0.05883789,-1.0108032,0.12713623
1601381389266,728,0.063964844,-1.0213013,0.11785889
1601381389266,729,0.064697266,-1.0320435,0.12030029
1601381389270,730,0.05883789,-1.0108032,0.12713623
1601381389271,731,0.06689453,-1.022522,0.12640381
1601381389274,732,0.06518555,-1.0215454,0.12786865
1601381389276,733,0.060546875,-1.0215454,0.124938965
1601381389278,734,0.06665039,-1.0256958,0.12786865
1601381389280,735,0.06689453,-1.0198364,0.12615967
1601381389284,736,0.05908203,-1.0252075,0.13519287
1601381389285,737,0.064697266,-1.0320435,0.12030029
1601381389290,738,0.059570312,-1.0205688,0.1317749
1601381389290,739,0.06689453,-1.022522,0.12640381
1601381389292,740,0.0625,-1.0181274,0.1281128
1601381389293,741,0.06518555,-1.0215454,0.12786865
1601381389294,742,0.057617188,-1.0178833,0.11248779
1601381389294,743,0.060546875,-1.0215454,0.124938965
1601381389298,744,0.059570312,-1.0154419,0.1251831
1601381389299,745,0.06665039,-1.0256958,0.12786865
1601381389301,746,0.07470703,-1.0249634,0.13006592
1601381389301,747,0.06689453,-1.0198364,0.12615967
1601381389305,748,0.056640625,-1.0234985,0.12982178
1601381389307,749,0.05908203,-1.0252075,0.13519287
1601381389307,750,0.068603516,-1.0154419,0.11907959
1601381389307,751,0.059570312,-1.0205688,0.1317749
1601381389308,752,0.0625,-1.02594,0.11810303
1601381389313,753,0.04321289,-1.0215454,0.12689209
1601381389313,754,0.04638672,-1.0261841,0.1149292
1601381389313,755,0.0625,-1.0181274,0.1281128
1601381389314,756,0.046875,-1.019104,0.11639404
1601381389317,757,0.057617188,-1.0178833,0.11248779
1601381389317,758,0.05126953,-1.02594,0.1161499
1601381389321,759,0.059570312,-1.0154419,0.1251831
1601381389322,760,0.07470703,-1.0249634,0.13006592
1601381389324,761,0.056640625,-1.0234985,0.12982178
1601381389327,762,0.068603516,-1.0154419,0.11907959
1601381389327,763,0.0625,-1.02594,0.11810303
1601381389328,764,0.04321289,-1.0215454,0.12689209
1601381389330,765,0.04638672,-1.0261841,0.1149292
1601381389332,766,0.046875,-1.019104,0.11639404
1601381389333,767,0.05126953,-1.02594,0.1161499
1601381391796,768,0.046142578,-1.017395,0.11907959
1601381391801,769,0.046142578,-1.017395,0.11907959
1601381391802,770,0.04345703,-1.0256958,0.12347412
1601381391805,771,0.03466797,-1.02594,0.11590576
1601381391808,772,0.04345703,-1.0256958,0.12347412
1601381391810,773,0.059814453,-1.0181274,0.109558105
1601381391812,774,0.03466797,-1.02594,0.11590576
1601381391814,775,0.059814453,-1.0181274,0.109558105
1601381391816,776,0.0715332,-1.0298462,0.11126709
1601381391819,777,0.06323242,-1.0276489,0.11175537
1601381391820,778,0.0715332,-1.0298462,0.11126709
1601381391822,779,0.057861328,-1.0215454,0.10882568
1601381391824,780,0.06323242,-1.0276489,0.11175537
1601381391825,781,0.053955078,-1.022522,0.10858154
1601381391827,782,0.057861328,-1.0215454,0.10882568
1601381391829,783,0.053955078,-1.022522,0.10858154
1601381391832,784,0.06323242,-1.0227661,0.117614746
1601381391834,785,0.06323242,-1.0227661,0.117614746
1601381391836,786,0.06738281,-1.0249634,0.121276855
1601381391838,787,0.06738281,-1.0249634,0.121276855
1601381391841,788,0.06298828,-1.022522,0.12615967
1601381391843,789,0.053710938,-1.022522,0.11663818
1601381391850,790,0.06298828,-1.022522,0.12615967
1601381391850,791,0.057128906,-1.0244751,0.120788574
1601381391851,792,0.053710938,-1.022522,0.11663818
1601381391852,793,0.05419922,-1.0276489,0.12249756
1601381391852,794,0.057128906,-1.0244751,0.120788574
1601381391854,795,0.057128906,-1.020813,0.117126465
1601381391855,796,0.05419922,-1.0276489,0.12249756
1601381391858,797,0.059814453,-1.0159302,0.11541748
1601381391860,798,0.057128906,-1.020813,0.117126465
1601381391862,799,0.06347656,-1.0261841,0.1251831
1601381391865,800,0.064208984,-1.0230103,0.11834717
1601381391866,801,0.059814453,-1.0159302,0.11541748
1601381391872,802,0.06274414,-1.0261841,0.12322998
1601381391872,803,0.06347656,-1.0261841,0.1251831
1601381391873,804,0.060546875,-1.0230103,0.120788574
1601381391873,805,0.064208984,-1.0230103,0.11834717
1601381391876,806,0.060546875,-1.0256958,0.12030029
1601381391878,807,0.057861328,-1.0264282,0.121276855
1601381391882,808,0.06274414,-1.0261841,0.12322998
1601381391882,809,0.057861328,-1.0274048,0.11810303
1601381391886,810,0.060546875,-1.0230103,0.120788574
1601381391893,811,0.068603516,-1.0144653,0.10882568
1601381391894,812,0.060546875,-1.0256958,0.12030029
1601381391896,813,0.030029297,-1.034729,0.12005615
1601381391897,814,0.057861328,-1.0264282,0.121276855
1601381391898,815,0.042236328,-1.0379028,0.1149292
1601381391901,816,0.057861328,-1.0274048,0.11810303
1601381391901,817,0.055664062,-1.0161743,0.12445068
1601381391908,818,0.068603516,-1.0144653,0.10882568
1601381391908,819,0.03466797,-1.0205688,0.121032715
1601381391910,820,0.030029297,-1.034729,0.12005615
1601381391910,821,0.03515625,-1.0210571,0.11541748
1601381391915,822,0.042236328,-1.0379028,0.1149292
1601381391915,823,0.047851562,-1.0147095,0.13934326
1601381391922,824,0.04248047,-1.0198364,0.1239624
1601381391923,825,0.055664062,-1.0161743,0.12445068
1601381391924,826,0.040527344,-1.020813,0.11981201
1601381391924,827,0.03466797,-1.0205688,0.121032715
1601381391926,828,0.03515625,-1.0210571,0.11541748
1601381391928,829,0.047851562,-1.0147095,0.13934326
1601381391931,830,0.04248047,-1.0198364,0.1239624
1601381391934,831,0.040527344,-1.020813,0.11981201
