# Sensor position: Wrist
# Sensor side: Left
# Activity type: Descending stairs
# Activity code: 13
# Subject id: s1746788
timestamp,seq,accel_x,accel_y,accel_z
1601393912475,0,-0.82250977,0.371521,0.19329834
1601393912476,1,-0.7216797,0.30633545,0.18719482
1601393912476,2,-0.82250977,0.371521,0.19329834
1601393912481,3,-0.7216797,0.30633545,0.18719482
1601393912490,4,-0.8078613,0.2506714,0.19256592
1601393912491,5,-0.82250977,0.371521,0.19329834
1601393912491,6,-0.82250977,0.371521,0.19329834
1601393912492,7,-0.8078613,0.2506714,0.19256592
1601393912496,8,-0.7216797,0.30633545,0.18719482
1601393912502,9,-0.7216797,0.30633545,0.18719482
1601393912503,10,-1.3806152,0.2411499,0.12591553
1601393912503,11,-0.8078613,0.2506714,0.19256592
1601393912504,12,-0.8078613,0.2506714,0.19256592
1601393912505,13,-1.592041,0.37469482,0.14276123
1601393912507,14,-1.3806152,0.2411499,0.12591553
1601393912511,15,-1.3806152,0.2411499,0.12591553
1601393912511,16,-1.3806152,0.2411499,0.12591553
1601393912511,17,-1.0288086,0.324646,0.10662842
1601393912512,18,-1.592041,0.37469482,0.14276123
1601393912516,19,-1.592041,0.37469482,0.14276123
1601393912516,20,-1.592041,0.37469482,0.14276123
1601393912516,21,-0.8618164,0.31195068,0.24554443
1601393912517,22,-1.0288086,0.324646,0.10662842
1601393912517,23,-1.0288086,0.324646,0.10662842
1601393912520,24,-1.0039062,0.23724365,0.35125732
1601393912520,25,-0.8618164,0.31195068,0.24554443
1601393912521,26,-1.0288086,0.324646,0.10662842
1601393912521,27,-0.8618164,0.31195068,0.24554443
1601393912526,28,-0.8300781,0.16571045,0.38885498
1601393912526,29,-1.0039062,0.23724365,0.35125732
1601393912526,30,-0.8618164,0.31195068,0.24554443
1601393912527,31,-1.0039062,0.23724365,0.35125732
1601393912527,32,-0.8300781,0.16571045,0.38885498
1601393912527,33,-0.6611328,0.17474365,0.30267334
1601393912531,34,-1.0039062,0.23724365,0.35125732
1601393912531,35,-0.8300781,0.16571045,0.38885498
1601393912531,36,-0.6611328,0.17474365,0.30267334
1601393912531,37,-0.6828613,0.19647217,0.2518921
1601393912539,38,-0.8300781,0.16571045,0.38885498
1601393912540,39,-0.6611328,0.17474365,0.30267334
1601393912540,40,-0.6828613,0.19647217,0.2518921
1601393912541,41,-0.7194824,0.21844482,0.23114014
1601393912541,42,-0.6611328,0.17474365,0.30267334
1601393912541,43,-0.6828613,0.19647217,0.2518921
1601393912541,44,-0.7194824,0.21844482,0.23114014
1601393912541,45,-0.7194824,0.21844482,0.23114014
1601393912541,46,-0.6828613,0.19647217,0.2518921
1601393912542,47,-0.81762695,0.2675171,0.2584839
1601393912543,48,-0.81762695,0.2675171,0.2584839
1601393912546,49,-0.7194824,0.21844482,0.23114014
1601393912546,50,-0.99121094,0.28338623,0.36468506
1601393912547,51,-0.81762695,0.2675171,0.2584839
1601393912547,52,-0.81762695,0.2675171,0.2584839
1601393912552,53,-0.99121094,0.28338623,0.36468506
1601393912552,54,-0.9436035,0.22210693,0.30926514
1601393912552,55,-0.99121094,0.28338623,0.36468506
1601393912553,56,-0.99121094,0.28338623,0.36468506
1601393912553,57,-0.9436035,0.22210693,0.30926514
1601393912553,58,-0.9436035,0.22210693,0.30926514
1601393912553,59,-1.1015625,0.29656982,0.30560303
1601393912560,60,-0.9436035,0.22210693,0.30926514
1601393912561,61,-1.1015625,0.29656982,0.30560303
1601393912561,62,-1.1015625,0.29656982,0.30560303
1601393912561,63,-0.94506836,0.32366943,0.27508545
1601393912561,64,-1.1015625,0.29656982,0.30560303
1601393912562,65,-0.94506836,0.32366943,0.27508545
1601393912562,66,-0.94506836,0.32366943,0.27508545
1601393912562,67,-0.99243164,0.29437256,0.2477417
1601393912566,68,-0.99243164,0.29437256,0.2477417
1601393912566,69,-0.94506836,0.32366943,0.27508545
1601393912568,70,-0.99243164,0.29437256,0.2477417
1601393912568,71,-0.97558594,0.28289795,0.2411499
1601393912568,72,-0.97558594,0.28289795,0.2411499
1601393912568,73,-0.99243164,0.29437256,0.2477417
1601393912571,74,-0.97558594,0.28289795,0.2411499
1601393912571,75,-0.9765625,0.25604248,0.22064209
1601393912571,76,-0.9765625,0.25604248,0.22064209
1601393912571,77,-0.97558594,0.28289795,0.2411499
1601393912575,78,-0.9765625,0.25604248,0.22064209
1601393912576,79,-0.91064453,0.2477417,0.20477295
1601393912576,80,-0.91064453,0.2477417,0.20477295
1601393912576,81,-0.9765625,0.25604248,0.22064209
1601393912577,82,-0.91064453,0.2477417,0.20477295
1601393912583,83,-0.888916,0.277771,0.19085693
1601393912584,84,-0.91064453,0.2477417,0.20477295
1601393912584,85,-0.9367676,0.2802124,0.17449951
1601393912584,86,-0.888916,0.277771,0.19085693
1601393912584,87,-0.888916,0.277771,0.19085693
1601393912584,88,-0.9511719,0.28533936,0.16619873
1601393912584,89,-0.9367676,0.2802124,0.17449951
1601393912585,90,-0.9550781,0.30804443,0.1774292
1601393912585,91,-0.9367676,0.2802124,0.17449951
1601393912585,92,-0.9511719,0.28533936,0.16619873
1601393912587,93,-0.9169922,0.322937,0.18695068
1601393912588,94,-0.9511719,0.28533936,0.16619873
1601393912591,95,-0.888916,0.277771,0.19085693
1601393912592,96,-0.9550781,0.30804443,0.1774292
1601393912593,97,-0.9169922,0.322937,0.18695068
1601393912594,98,-0.9550781,0.30804443,0.1774292
1601393912598,99,-0.9169922,0.322937,0.18695068
1601393912598,100,-0.888916,0.32562256,0.18060303
1601393912600,101,-1.012207,0.354187,0.16986084
1601393912606,102,-0.9367676,0.2802124,0.17449951
1601393912606,103,-0.888916,0.32562256,0.18060303
1601393912606,104,-0.888916,0.32562256,0.18060303
1601393912607,105,-1.1325684,0.35198975,0.15447998
1601393912609,106,-0.9511719,0.28533936,0.16619873
1601393912611,107,-1.012207,0.354187,0.16986084
1601393912615,108,-1.1325684,0.35198975,0.15447998
1601393912616,109,-0.9550781,0.30804443,0.1774292
1601393912617,110,-1.0202637,0.34417725,0.1408081
1601393912618,111,-1.0202637,0.34417725,0.1408081
1601393912620,112,-1.012207,0.354187,0.16986084
1601393912623,113,-0.986084,0.31072998,0.15228271
1601393912623,114,-0.986084,0.31072998,0.15228271
1601393912630,115,-1.1325684,0.35198975,0.15447998
1601393912630,116,-0.9169922,0.322937,0.18695068
1601393912631,117,-1.171875,0.2982788,0.15765381
1601393912631,118,-1.171875,0.2982788,0.15765381
1601393912634,119,-0.888916,0.32562256,0.18060303
1601393912635,120,-1.0202637,0.34417725,0.1408081
1601393912638,121,-0.986084,0.31072998,0.15228271
1601393912641,122,-1.012207,0.354187,0.16986084
1601393912642,123,-1.171875,0.2982788,0.15765381
1601393912644,124,-1.1325684,0.35198975,0.15447998
1601393912646,125,-1.0202637,0.34417725,0.1408081
1601393912648,126,-0.986084,0.31072998,0.15228271
1601393912653,127,-1.171875,0.2982788,0.15765381
1601393914965,128,-0.95092773,0.26287842,0.19110107
1601393914978,129,-0.95092773,0.26287842,0.19110107
1601393914978,130,-0.95092773,0.26287842,0.19110107
1601393914979,131,-0.8977051,0.28778076,0.22943115
1601393914980,132,-0.95092773,0.26287842,0.19110107
1601393914981,133,-0.77001953,0.17913818,0.2255249
1601393914982,134,-0.8977051,0.28778076,0.22943115
1601393914982,135,-0.8977051,0.28778076,0.22943115
1601393914985,136,-0.8039551,0.2453003,0.2670288
1601393914987,137,-0.82421875,0.27459717,0.30340576
1601393914989,138,-0.8977051,0.28778076,0.22943115
1601393914994,139,-0.77001953,0.17913818,0.2255249
1601393915000,140,-0.77001953,0.17913818,0.2255249
1601393915000,141,-0.77001953,0.17913818,0.2255249
1601393915002,142,-0.80737305,0.28485107,0.3300171
1601393915002,143,-0.8039551,0.2453003,0.2670288
1601393915003,144,-0.8039551,0.2453003,0.2670288
1601393915005,145,-0.7770996,0.2838745,0.35980225
1601393915009,146,-0.82421875,0.27459717,0.30340576
1601393915012,147,-0.8039551,0.2453003,0.2670288
1601393915014,148,-0.82421875,0.27459717,0.30340576
1601393915024,149,-0.80737305,0.28485107,0.3300171
1601393915028,150,-0.82421875,0.27459717,0.30340576
1601393915028,151,-0.80737305,0.28485107,0.3300171
1601393915031,152,-0.7348633,0.25579834,0.3168335
1601393915031,153,-0.7426758,0.24700928,0.2741089
1601393915031,154,-0.7770996,0.2838745,0.35980225
1601393915035,155,-0.80737305,0.28485107,0.3300171
1601393915038,156,-0.7770996,0.2838745,0.35980225
1601393915039,157,-0.7770996,0.2838745,0.35980225
1601393915040,158,-0.7348633,0.25579834,0.3168335
1601393915041,159,-0.81347656,0.24212646,0.23895264
1601393915048,160,-0.7348633,0.25579834,0.3168335
1601393915048,161,-0.7348633,0.25579834,0.3168335
1601393915049,162,-0.7426758,0.24700928,0.2741089
1601393915051,163,-1.2175293,0.33709717,0.25628662
1601393915076,164,-0.7426758,0.24700928,0.2741089
1601393915076,165,-0.81347656,0.24212646,0.23895264
1601393915077,166,-0.7426758,0.24700928,0.2741089
1601393915077,167,-1.7333984,0.34539795,0.2189331
1601393915077,168,-0.81347656,0.24212646,0.23895264
1601393915077,169,-0.81347656,0.24212646,0.23895264
1601393915078,170,-1.2175293,0.33709717,0.25628662
1601393915078,171,-1.7333984,0.34539795,0.2189331
1601393915078,172,-1.2175293,0.33709717,0.25628662
1601393915079,173,-1.3996582,0.2880249,0.097595215
1601393915079,174,-1.3996582,0.2880249,0.097595215
1601393915079,175,-1.2175293,0.33709717,0.25628662
1601393915080,176,-0.8808594,0.34100342,0.06976318
1601393915080,177,-1.7333984,0.34539795,0.2189331
1601393915080,178,-1.7333984,0.34539795,0.2189331
1601393915081,179,-0.69970703,0.26312256,0.07196045
1601393915081,180,-0.6921387,0.25335693,0.09588623
1601393915081,181,-0.7104492,0.2597046,0.13616943
1601393915089,182,-1.3996582,0.2880249,0.097595215
1601393915089,183,-1.3996582,0.2880249,0.097595215
1601393915090,184,-0.8808594,0.34100342,0.06976318
1601393915091,185,-0.8808594,0.34100342,0.06976318
1601393915091,186,-0.8808594,0.34100342,0.06976318
1601393915092,187,-0.77563477,0.25115967,0.12884521
1601393915093,188,-0.69970703,0.26312256,0.07196045
1601393915095,189,-0.69970703,0.26312256,0.07196045
1601393915097,190,-0.88842773,0.33221436,0.23919678
1601393915100,191,-0.69970703,0.26312256,0.07196045
1601393915102,192,-0.6921387,0.25335693,0.09588623
1601393915103,193,-0.6921387,0.25335693,0.09588623
1601393915106,194,-1.1252441,0.29632568,0.31732178
1601393915108,195,-0.6921387,0.25335693,0.09588623
1601393915110,196,-1.4072266,0.33050537,0.50653076
1601393915115,197,-0.7104492,0.2597046,0.13616943
1601393915115,198,-0.7104492,0.2597046,0.13616943
1601393915116,199,-0.77563477,0.25115967,0.12884521
1601393915118,200,-0.88842773,0.33221436,0.23919678
1601393915122,201,-0.77563477,0.25115967,0.12884521
1601393915122,202,-0.7104492,0.2597046,0.13616943
1601393915130,203,-1.1252441,0.29632568,0.31732178
1601393915130,204,-0.88842773,0.33221436,0.23919678
1601393915130,205,-0.77563477,0.25115967,0.12884521
1601393915131,206,-1.1252441,0.29632568,0.31732178
1601393915131,207,-0.88842773,0.33221436,0.23919678
1601393915131,208,-1.4072266,0.33050537,0.50653076
1601393915131,209,-1.1293945,0.2098999,0.3534546
1601393915142,210,-1.4072266,0.33050537,0.50653076
1601393915142,211,-1.1252441,0.29632568,0.31732178
1601393915143,212,-1.1293945,0.2098999,0.3534546
1601393915143,213,-0.7351074,0.26800537,0.22869873
1601393915144,214,-0.7351074,0.26800537,0.22869873
1601393915144,215,-1.1293945,0.2098999,0.3534546
1601393915144,216,-1.4072266,0.33050537,0.50653076
1601393915148,217,-0.44360352,0.35247803,0.15057373
1601393915165,218,-0.44360352,0.35247803,0.15057373
1601393915167,219,-0.52905273,0.38787842,0.15570068
1601393915169,220,-1.1293945,0.2098999,0.3534546
1601393915170,221,-0.7351074,0.26800537,0.22869873
1601393915172,222,-0.7351074,0.26800537,0.22869873
1601393915174,223,-0.44360352,0.35247803,0.15057373
1601393915177,224,-0.91845703,0.43011475,0.22747803
1601393915177,225,-0.44360352,0.35247803,0.15057373
1601393915178,226,-0.52905273,0.38787842,0.15570068
1601393915178,227,-0.52905273,0.38787842,0.15570068
1601393915190,228,-1.8173828,0.44769287,0.28411865
1601393915191,229,-0.52905273,0.38787842,0.15570068
1601393915192,230,-1.6767578,0.3156128,0.16204834
1601393915193,231,-0.91845703,0.43011475,0.22747803
1601393915194,232,-0.8930664,0.35638428,0.1281128
1601393915195,233,-1.8173828,0.44769287,0.28411865
1601393915196,234,-0.91845703,0.43011475,0.22747803
1601393915197,235,-1.6767578,0.3156128,0.16204834
1601393915198,236,-1.8173828,0.44769287,0.28411865
1601393915199,237,-0.8930664,0.35638428,0.1281128
1601393915202,238,-0.91845703,0.43011475,0.22747803
1601393915205,239,-1.6767578,0.3156128,0.16204834
1601393915206,240,-0.42895508,0.27166748,0.09515381
1601393915208,241,-1.8173828,0.44769287,0.28411865
1601393915212,242,-0.8930664,0.35638428,0.1281128
1601393915212,243,-0.43188477,0.20697021,0.03387451
1601393915224,244,-1.6767578,0.3156128,0.16204834
1601393915225,245,-0.42895508,0.27166748,0.09515381
1601393915226,246,-0.42895508,0.27166748,0.09515381
1601393915227,247,-0.74438477,0.307312,0.11224365
1601393915228,248,-0.43188477,0.20697021,0.03387451
1601393915229,249,-0.8930664,0.35638428,0.1281128
1601393915231,250,-0.74438477,0.307312,0.11224365
1601393915232,251,-0.43188477,0.20697021,0.03387451
1601393915233,252,-0.42895508,0.27166748,0.09515381
1601393915237,253,-0.43188477,0.20697021,0.03387451
1601393915240,254,-0.74438477,0.307312,0.11224365
1601393915244,255,-0.74438477,0.307312,0.11224365
1601393917562,256,-1.1052246,0.402771,0.27020264
1601393917575,257,-1.1052246,0.402771,0.27020264
1601393917576,258,-1.1052246,0.402771,0.27020264
1601393917576,259,-1.4709473,0.5956421,0.45355225
1601393917577,260,-1.1052246,0.402771,0.27020264
1601393917577,261,-1.4709473,0.5956421,0.45355225
1601393917578,262,-1.4709473,0.5956421,0.45355225
1601393917579,263,-1.0749512,0.71209717,0.5626831
1601393917580,264,-1.4709473,0.5956421,0.45355225
1601393917581,265,-1.0749512,0.71209717,0.5626831
1601393917582,266,-0.61083984,0.36712646,0.3456421
1601393917583,267,-1.0749512,0.71209717,0.5626831
1601393917589,268,-0.61083984,0.36712646,0.3456421
1601393917589,269,-0.29345703,0.43328857,0.20892334
1601393917591,270,-1.0749512,0.71209717,0.5626831
1601393917592,271,-0.61083984,0.36712646,0.3456421
1601393917593,272,-0.55737305,0.26776123,0.20013428
1601393917595,273,-0.61083984,0.36712646,0.3456421
1601393917600,274,-0.29345703,0.43328857,0.20892334
1601393917603,275,-0.55737305,0.26776123,0.20013428
1601393917603,276,-0.29345703,0.43328857,0.20892334
1601393917604,277,-1.4453125,0.4105835,0.2423706
1601393917604,278,-0.29345703,0.43328857,0.20892334
1601393917605,279,-0.55737305,0.26776123,0.20013428
1601393917607,280,-1.4453125,0.4105835,0.2423706
1601393917609,281,-0.55737305,0.26776123,0.20013428
1601393917611,282,-1.4453125,0.4105835,0.2423706
1601393917616,283,-1.4453125,0.4105835,0.2423706
1601393917616,284,-1.8261719,0.3859253,0.15594482
1601393917617,285,-1.8261719,0.3859253,0.15594482
1601393917617,286,-1.8261719,0.3859253,0.15594482
1601393917625,287,-1.8261719,0.3859253,0.15594482
1601393917626,288,-1.1008301,0.33831787,0.13031006
1601393917627,289,-1.1008301,0.33831787,0.13031006
1601393917627,290,-0.5024414,0.33831787,0.14837646
1601393917628,291,-1.1008301,0.33831787,0.13031006
1601393917631,292,-1.1008301,0.33831787,0.13031006
1601393917632,293,-0.5024414,0.33831787,0.14837646
1601393917635,294,-0.5024414,0.33831787,0.14837646
1601393917636,295,-0.5024414,0.33831787,0.14837646
1601393917637,296,-0.40698242,0.3024292,0.15057373
1601393917638,297,-0.40698242,0.3024292,0.15057373
1601393917640,298,-0.40698242,0.3024292,0.15057373
1601393917642,299,-0.5925293,0.3444214,0.21990967
1601393917644,300,-0.40698242,0.3024292,0.15057373
1601393917648,301,-0.5925293,0.3444214,0.21990967
1601393917650,302,-0.5925293,0.3444214,0.21990967
1601393917653,303,-1.2666016,0.53411865,0.35443115
1601393917659,304,-0.5925293,0.3444214,0.21990967
1601393917659,305,-1.2666016,0.53411865,0.35443115
1601393917660,306,-1.2666016,0.53411865,0.35443115
1601393917661,307,-1.4169922,0.6630249,0.6618042
1601393917662,308,-1.2666016,0.53411865,0.35443115
1601393917664,309,-1.4169922,0.6630249,0.6618042
1601393917666,310,-1.0993652,0.51239014,0.49749756
1601393917670,311,-0.47485352,0.31585693,0.28753662
1601393917671,312,-1.4169922,0.6630249,0.6618042
1601393917676,313,-1.0993652,0.51239014,0.49749756
1601393917676,314,-1.4169922,0.6630249,0.6618042
1601393917677,315,-0.34594727,0.2723999,0.2230835
1601393917678,316,-1.0993652,0.51239014,0.49749756
1601393917683,317,-0.47485352,0.31585693,0.28753662
1601393917684,318,-0.59375,0.25726318,0.20794678
1601393917686,319,-1.0993652,0.51239014,0.49749756
1601393917686,320,-0.34594727,0.2723999,0.2230835
1601393917688,321,-0.47485352,0.31585693,0.28753662
1601393917692,322,-0.47485352,0.31585693,0.28753662
1601393917694,323,-0.59375,0.25726318,0.20794678
1601393917694,324,-1.2436523,0.46575928,0.26263428
1601393917695,325,-0.34594727,0.2723999,0.2230835
1601393917697,326,-1.2436523,0.46575928,0.26263428
1601393917701,327,-0.34594727,0.2723999,0.2230835
1601393917702,328,-0.59375,0.25726318,0.20794678
1601393917703,329,-1.6879883,0.48406982,0.25604248
1601393917703,330,-0.59375,0.25726318,0.20794678
1601393917708,331,-1.6879883,0.48406982,0.25604248
1601393917709,332,-1.2436523,0.46575928,0.26263428
1601393917709,333,-1.1069336,0.38031006,0.17547607
1601393917711,334,-1.1069336,0.38031006,0.17547607
1601393917712,335,-0.7277832,0.5265503,0.2387085
1601393917713,336,-1.6879883,0.48406982,0.25604248
1601393917720,337,-0.7277832,0.5265503,0.2387085
1601393917721,338,-0.6098633,0.29534912,0.29193115
1601393917722,339,-1.2436523,0.46575928,0.26263428
1601393917723,340,-0.6098633,0.29534912,0.29193115
1601393917724,341,-1.1069336,0.38031006,0.17547607
1601393917724,342,-0.6953125,0.10467529,0.17938232
1601393917725,343,-0.7277832,0.5265503,0.2387085
1601393917727,344,-0.6953125,0.10467529,0.17938232
1601393917736,345,-0.87060547,0.42913818,0.23040771
1601393917737,346,-0.6098633,0.29534912,0.29193115
1601393917737,347,-1.6879883,0.48406982,0.25604248
1601393917738,348,-1.4306641,0.64178467,0.4725952
1601393917739,349,-0.6953125,0.10467529,0.17938232
1601393917740,350,-1.1069336,0.38031006,0.17547607
1601393917740,351,-0.87060547,0.42913818,0.23040771
1601393917741,352,-1.2956543,0.39666748,0.5206909
1601393917743,353,-0.87060547,0.42913818,0.23040771
1601393917749,354,-1.4306641,0.64178467,0.4725952
1601393917749,355,-0.91186523,0.21942139,0.29632568
1601393917751,356,-0.7277832,0.5265503,0.2387085
1601393917752,357,-0.49951172,0.28778076,0.23822021
1601393917752,358,-1.2956543,0.39666748,0.5206909
1601393917755,359,-0.6098633,0.29534912,0.29193115
1601393917763,360,-0.4951172,0.39788818,0.17474365
1601393917764,361,-0.91186523,0.21942139,0.29632568
1601393917768,362,-0.6953125,0.10467529,0.17938232
1601393917770,363,-1.4306641,0.64178467,0.4725952
1601393917770,364,-0.87060547,0.42913818,0.23040771
1601393917771,365,-0.923584,0.7140503,0.2880249
1601393917772,366,-0.49951172,0.28778076,0.23822021
1601393917772,367,-1.4306641,0.64178467,0.4725952
1601393917773,368,-1.4626465,0.75115967,0.48236084
1601393917776,369,-0.4951172,0.39788818,0.17474365
1601393917776,370,-1.2956543,0.39666748,0.5206909
1601393917784,371,-1.2956543,0.39666748,0.5206909
1601393917784,372,-0.923584,0.7140503,0.2880249
1601393917785,373,-0.91186523,0.21942139,0.29632568
1601393917785,374,-0.91186523,0.21942139,0.29632568
1601393917786,375,-1.4626465,0.75115967,0.48236084
1601393917786,376,-0.49951172,0.28778076,0.23822021
1601393917789,377,-0.49951172,0.28778076,0.23822021
1601393917789,378,-0.4951172,0.39788818,0.17474365
1601393917792,379,-0.4951172,0.39788818,0.17474365
1601393917793,380,-0.923584,0.7140503,0.2880249
1601393917796,381,-0.923584,0.7140503,0.2880249
1601393917797,382,-1.4626465,0.75115967,0.48236084
1601393917799,383,-1.4626465,0.75115967,0.48236084
1601393920172,384,-1.2421875,0.37225342,0.45306396
1601393920173,385,-0.70751953,0.3685913,0.32318115
1601393920173,386,-1.2421875,0.37225342,0.45306396
1601393920175,387,-0.61157227,0.19329834,0.19012451
1601393920177,388,-1.2421875,0.37225342,0.45306396
1601393920187,389,-1.2421875,0.37225342,0.45306396
1601393920187,390,-0.86938477,0.23846436,0.09515381
1601393920188,391,-0.70751953,0.3685913,0.32318115
1601393920189,392,-0.70751953,0.3685913,0.32318115
1601393920189,393,-0.70751953,0.3685913,0.32318115
1601393920190,394,-0.61157227,0.19329834,0.19012451
1601393920191,395,-1.3713379,0.46844482,-0.019592285
1601393920194,396,-0.61157227,0.19329834,0.19012451
1601393920196,397,-1.138916,0.56073,0.1708374
1601393920198,398,-1.0070801,0.4118042,0.13739014
1601393920207,399,-0.61157227,0.19329834,0.19012451
1601393920208,400,-0.97802734,0.31610107,0.19671631
1601393920208,401,-0.86938477,0.23846436,0.09515381
1601393920209,402,-0.86938477,0.23846436,0.09515381
1601393920210,403,-0.86938477,0.23846436,0.09515381
1601393920211,404,-0.84472656,0.39154053,0.3468628
1601393920212,405,-1.3713379,0.46844482,-0.019592285
1601393920219,406,-1.3713379,0.46844482,-0.019592285
1601393920219,407,-1.3713379,0.46844482,-0.019592285
1601393920221,408,-0.72094727,0.30682373,0.39007568
1601393920221,409,-1.138916,0.56073,0.1708374
1601393920222,410,-1.138916,0.56073,0.1708374
1601393920224,411,-1.138916,0.56073,0.1708374
1601393920227,412,-1.0070801,0.4118042,0.13739014
1601393920232,413,-0.5876465,0.27459717,0.3817749
1601393920232,414,-1.0070801,0.4118042,0.13739014
1601393920233,415,-1.0070801,0.4118042,0.13739014
1601393920235,416,-0.97802734,0.31610107,0.19671631
1601393920240,417,-0.97802734,0.31610107,0.19671631
1601393920241,418,-0.576416,0.24407959,0.28363037
1601393920243,419,-0.97802734,0.31610107,0.19671631
1601393920244,420,-0.84472656,0.39154053,0.3468628
1601393920244,421,-0.84472656,0.39154053,0.3468628
1601393920250,422,-0.9812012,0.2772827,0.2111206
1601393920251,423,-0.84472656,0.39154053,0.3468628
1601393920252,424,-0.72094727,0.30682373,0.39007568
1601393920253,425,-0.72094727,0.30682373,0.39007568
1601393920255,426,-1.7373047,0.3842163,0.13079834
1601393920273,427,-0.5876465,0.27459717,0.3817749
1601393920274,428,-0.72094727,0.30682373,0.39007568
1601393920275,429,-0.5876465,0.27459717,0.3817749
1601393920276,430,-0.5876465,0.27459717,0.3817749
1601393920277,431,-0.576416,0.24407959,0.28363037
1601393920277,432,-0.576416,0.24407959,0.28363037
1601393920279,433,-2.0,0.21380615,0.028747559
1601393920280,434,-0.576416,0.24407959,0.28363037
1601393920280,435,-0.8967285,0.08905029,0.0018920898
1601393920280,436,-0.9812012,0.2772827,0.2111206
1601393920281,437,-0.34155273,0.086364746,-0.04888916
1601393920282,438,-0.9812012,0.2772827,0.2111206
1601393920283,439,-0.9812012,0.2772827,0.2111206
1601393920284,440,-1.7373047,0.3842163,0.13079834
1601393920285,441,-1.7373047,0.3842163,0.13079834
1601393920286,442,-0.43725586,0.15789795,-0.031555176
1601393920287,443,-1.7373047,0.3842163,0.13079834
1601393920289,444,-2.0,0.21380615,0.028747559
1601393920293,445,-0.74121094,0.2658081,0.007019043
1601393920294,446,-2.0,0.21380615,0.028747559
1601393920298,447,-2.0,0.21380615,0.028747559
1601393920299,448,-0.8967285,0.08905029,0.0018920898
1601393920299,449,-1.2111816,0.41937256,0.21746826
1601393920309,450,-0.8967285,0.08905029,0.0018920898
1601393920310,451,-0.34155273,0.086364746,-0.04888916
1601393920310,452,-0.8967285,0.08905029,0.0018920898
1601393920310,453,-1.6276855,0.45843506,0.48065186
1601393920311,454,-0.43725586,0.15789795,-0.031555176
1601393920316,455,-0.34155273,0.086364746,-0.04888916
1601393920316,456,-0.74121094,0.2658081,0.007019043
1601393920316,457,-0.34155273,0.086364746,-0.04888916
1601393920316,458,-1.2543945,0.31536865,0.57244873
1601393920318,459,-0.43725586,0.15789795,-0.031555176
1601393920318,460,-1.2111816,0.41937256,0.21746826
1601393920324,461,-1.0166016,0.50286865,0.555603
1601393920325,462,-0.74121094,0.2658081,0.007019043
1601393920325,463,-0.43725586,0.15789795,-0.031555176
1601393920325,464,-1.6276855,0.45843506,0.48065186
1601393920325,465,-0.90966797,0.7128296,0.5621948
1601393920326,466,-0.74121094,0.2658081,0.007019043
1601393920329,467,-0.86743164,0.7081909,0.36346436
1601393920352,468,-0.7077637,0.69818115,0.28851318
1601393920352,469,-1.2543945,0.31536865,0.57244873
1601393920353,470,-1.2111816,0.41937256,0.21746826
1601393920353,471,-1.2111816,0.41937256,0.21746826
1601393920353,472,-1.6276855,0.45843506,0.48065186
1601393920353,473,-0.23461914,1.2382202,0.070007324
1601393920354,474,-1.0166016,0.50286865,0.555603
1601393920354,475,-1.2543945,0.31536865,0.57244873
1601393920355,476,-1.6276855,0.45843506,0.48065186
1601393920355,477,0.55566406,1.102478,-0.010314941
1601393920355,478,-1.2543945,0.31536865,0.57244873
1601393920356,479,-0.90966797,0.7128296,0.5621948
1601393920356,480,-1.0166016,0.50286865,0.555603
1601393920356,481,-0.86743164,0.7081909,0.36346436
1601393920356,482,0.63916016,0.6786499,0.12225342
1601393920357,483,-0.7077637,0.69818115,0.28851318
1601393920357,484,-0.90966797,0.7128296,0.5621948
1601393920357,485,-0.23461914,1.2382202,0.070007324
1601393920358,486,-0.86743164,0.7081909,0.36346436
1601393920358,487,0.55566406,1.102478,-0.010314941
1601393920359,488,-1.0166016,0.50286865,0.555603
1601393920359,489,0.4177246,0.20819092,0.2140503
1601393920359,490,-0.7077637,0.69818115,0.28851318
1601393920370,491,0.63916016,0.6786499,0.12225342
1601393920370,492,-0.23461914,1.2382202,0.070007324
1601393920370,493,-0.90966797,0.7128296,0.5621948
1601393920371,494,0.32348633,-0.055480957,0.1083374
1601393920371,495,0.55566406,1.102478,-0.010314941
1601393920371,496,0.3564453,0.046081543,0.16522217
1601393920371,497,0.63916016,0.6786499,0.12225342
1601393920372,498,-0.86743164,0.7081909,0.36346436
1601393920380,499,0.4177246,0.20819092,0.2140503
1601393920380,500,0.4177246,0.20819092,0.2140503
1601393920380,501,-0.7077637,0.69818115,0.28851318
1601393920381,502,0.32348633,-0.055480957,0.1083374
1601393920381,503,0.32348633,-0.055480957,0.1083374
1601393920382,504,-0.23461914,1.2382202,0.070007324
1601393920382,505,0.3564453,0.046081543,0.16522217
1601393920382,506,0.3564453,0.046081543,0.16522217
1601393920384,507,0.55566406,1.102478,-0.010314941
1601393920386,508,0.63916016,0.6786499,0.12225342
1601393920387,509,0.4177246,0.20819092,0.2140503
1601393920389,510,0.32348633,-0.055480957,0.1083374
1601393920392,511,0.3564453,0.046081543,0.16522217
1601393922776,512,0.5498047,0.089782715,0.36639404
1601393922786,513,0.5498047,0.089782715,0.36639404
1601393922786,514,0.5498047,0.089782715,0.36639404
1601393922819,515,0.5498047,0.089782715,0.36639404
1601393922819,516,0.88134766,0.11004639,0.44525146
1601393922819,517,0.88134766,0.11004639,0.44525146
1601393922819,518,0.88134766,0.11004639,0.44525146
1601393922823,519,0.9211426,0.2682495,0.49578857
1601393922846,520,0.88134766,0.11004639,0.44525146
1601393922848,521,0.9211426,0.2682495,0.49578857
1601393922848,522,0.9211426,0.2682495,0.49578857
1601393922849,523,0.9211426,0.2682495,0.49578857
1601393922850,524,0.73461914,0.24456787,0.37713623
1601393922851,525,0.73461914,0.24456787,0.37713623
1601393922854,526,0.73461914,0.24456787,0.37713623
1601393922855,527,0.73461914,0.24456787,0.37713623
1601393922855,528,0.28857422,0.277771,0.47113037
1601393922855,529,0.28857422,0.277771,0.47113037
1601393922857,530,0.060791016,0.28729248,0.15106201
1601393922866,531,0.28857422,0.277771,0.47113037
1601393922874,532,0.060791016,0.28729248,0.15106201
1601393922874,533,0.060791016,0.28729248,0.15106201
1601393922874,534,0.28857422,0.277771,0.47113037
1601393922875,535,-0.33496094,0.41253662,0.39471436
1601393922883,536,-0.33496094,0.41253662,0.39471436
1601393922883,537,-0.33496094,0.41253662,0.39471436
1601393922883,538,0.060791016,0.28729248,0.15106201
1601393922883,539,-0.33496094,0.41253662,0.39471436
1601393922896,540,-0.5361328,0.7062378,0.46380615
1601393922898,541,-0.5361328,0.7062378,0.46380615
1601393922898,542,-0.5361328,0.7062378,0.46380615
1601393922899,543,-1.378418,0.8822632,0.51971436
1601393922900,544,-0.5361328,0.7062378,0.46380615
1601393922912,545,-1.378418,0.8822632,0.51971436
1601393922912,546,-1.378418,0.8822632,0.51971436
1601393922913,547,-2.0,1.0150757,0.38494873
1601393922913,548,-1.378418,0.8822632,0.51971436
1601393922914,549,-1.6037598,0.72161865,0.25946045
1601393922915,550,-2.0,1.0150757,0.38494873
1601393922916,551,-2.0,1.0150757,0.38494873
1601393922921,552,-2.0,1.0150757,0.38494873
1601393922921,553,-0.8703613,0.49871826,0.20819092
1601393922922,554,-1.6037598,0.72161865,0.25946045
1601393922923,555,-1.6037598,0.72161865,0.25946045
1601393922924,556,-1.6037598,0.72161865,0.25946045
1601393922932,557,-0.52856445,0.39544678,0.24578857
1601393922932,558,-0.8703613,0.49871826,0.20819092
1601393922932,559,-0.8703613,0.49871826,0.20819092
1601393922933,560,-0.8703613,0.49871826,0.20819092
1601393922933,561,-0.52856445,0.39544678,0.24578857
1601393922933,562,-0.5444336,0.14666748,0.20599365
1601393922933,563,-0.5444336,0.14666748,0.20599365
1601393922933,564,-0.52856445,0.39544678,0.24578857
1601393922934,565,-0.52856445,0.39544678,0.24578857
1601393922936,566,-0.859375,0.3168335,0.24969482
1601393922944,567,-0.5444336,0.14666748,0.20599365
1601393922945,568,-1.2214355,0.55682373,0.32611084
1601393922945,569,-0.859375,0.3168335,0.24969482
1601393922950,570,-0.5444336,0.14666748,0.20599365
1601393922950,571,-0.859375,0.3168335,0.24969482
1601393922950,572,-1.3474121,0.49310303,0.5145874
1601393922952,573,-0.859375,0.3168335,0.24969482
1601393922959,574,-0.9255371,0.3463745,0.25701904
1601393922959,575,-1.2214355,0.55682373,0.32611084
1601393922961,576,-1.3474121,0.49310303,0.5145874
1601393922963,577,-1.2214355,0.55682373,0.32611084
1601393922963,578,-1.2214355,0.55682373,0.32611084
1601393922964,579,-1.3474121,0.49310303,0.5145874
1601393922964,580,-0.9255371,0.3463745,0.25701904
1601393922964,581,-0.57958984,0.26727295,0.19476318
1601393922964,582,-1.3474121,0.49310303,0.5145874
1601393922964,583,-0.9255371,0.3463745,0.25701904
1601393922964,584,-0.57958984,0.26727295,0.19476318
1601393922967,585,-0.5378418,0.3456421,0.16473389
1601393922968,586,-0.9255371,0.3463745,0.25701904
1601393922968,587,-0.57958984,0.26727295,0.19476318
1601393922969,588,-0.73706055,0.32806396,0.19573975
1601393922977,589,-0.5378418,0.3456421,0.16473389
1601393922977,590,-0.57958984,0.26727295,0.19476318
1601393922978,591,-0.5378418,0.3456421,0.16473389
1601393922979,592,-0.5378418,0.3456421,0.16473389
1601393922985,593,-0.73706055,0.32806396,0.19573975
1601393922985,594,-0.73706055,0.32806396,0.19573975
1601393922985,595,-1.3361816,0.29193115,0.19598389
1601393922985,596,-0.73706055,0.32806396,0.19573975
1601393922985,597,-1.3361816,0.29193115,0.19598389
1601393922986,598,-1.737793,0.30950928,0.20770264
1601393922987,599,-1.3361816,0.29193115,0.19598389
1601393922987,600,-1.3361816,0.29193115,0.19598389
1601393922987,601,-1.737793,0.30950928,0.20770264
1601393922988,602,-1.2749023,0.2982788,0.20257568
1601393922993,603,-1.737793,0.30950928,0.20770264
1601393922993,604,-1.737793,0.30950928,0.20770264
1601393922994,605,-1.2749023,0.2982788,0.20257568
1601393922994,606,-0.7297363,0.2723999,0.25408936
1601393922994,607,-1.2749023,0.2982788,0.20257568
1601393922994,608,-0.7297363,0.2723999,0.25408936
1601393922994,609,-0.7297363,0.2723999,0.25408936
1601393922996,610,-1.2749023,0.2982788,0.20257568
1601393922997,611,-0.52319336,0.25701904,0.3024292
1601393922998,612,-0.52319336,0.25701904,0.3024292
1601393923003,613,-0.52319336,0.25701904,0.3024292
1601393923003,614,-0.6003418,0.20965576,0.22259521
1601393923003,615,-0.7297363,0.2723999,0.25408936
1601393923003,616,-0.6003418,0.20965576,0.22259521
1601393923003,617,-0.6003418,0.20965576,0.22259521
1601393923004,618,-0.88061523,0.3517456,0.27191162
1601393923004,619,-0.88061523,0.3517456,0.27191162
1601393923005,620,-0.52319336,0.25701904,0.3024292
1601393923006,621,-0.88061523,0.3517456,0.27191162
1601393923007,622,-0.95092773,0.46917725,0.32733154
1601393923008,623,-0.95092773,0.46917725,0.32733154
1601393923011,624,-0.95092773,0.46917725,0.32733154
1601393923011,625,-1.2658691,0.61517334,0.5194702
1601393923011,626,-0.6003418,0.20965576,0.22259521
1601393923013,627,-1.2658691,0.61517334,0.5194702
1601393923014,628,-1.2658691,0.61517334,0.5194702
1601393923015,629,-1.2092285,0.42596436,0.52679443
1601393923018,630,-0.88061523,0.3517456,0.27191162
1601393923018,631,-1.2092285,0.42596436,0.52679443
1601393923019,632,-1.2092285,0.42596436,0.52679443
1601393923019,633,-0.95092773,0.46917725,0.32733154
1601393923022,634,-0.89160156,0.21185303,0.34588623
1601393923023,635,-0.89160156,0.21185303,0.34588623
1601393923023,636,-1.2658691,0.61517334,0.5194702
1601393923023,637,-0.89160156,0.21185303,0.34588623
1601393923029,638,-1.2092285,0.42596436,0.52679443
1601393923030,639,-0.89160156,0.21185303,0.34588623
1601393925371,640,-0.63671875,0.31414795,0.35003662
1601393925373,641,-0.48632812,0.24359131,0.20526123
1601393925374,642,-0.63671875,0.31414795,0.35003662
1601393925375,643,-0.63671875,0.31414795,0.35003662
1601393925385,644,-0.48632812,0.24359131,0.20526123
1601393925385,645,-0.44921875,0.29193115,0.09197998
1601393925386,646,-0.63671875,0.31414795,0.35003662
1601393925387,647,-0.48632812,0.24359131,0.20526123
1601393925387,648,-0.44921875,0.29193115,0.09197998
1601393925388,649,-1.282959,0.7675171,0.018249512
1601393925389,650,-0.48632812,0.24359131,0.20526123
1601393925390,651,-0.44921875,0.29193115,0.09197998
1601393925392,652,-1.9174805,0.79364014,0.053649902
1601393925393,653,-1.4475098,0.42181396,0.020935059
1601393925396,654,-1.282959,0.7675171,0.018249512
1601393925398,655,-0.44921875,0.29193115,0.09197998
1601393925404,656,-1.282959,0.7675171,0.018249512
1601393925404,657,-1.9174805,0.79364014,0.053649902
1601393925404,658,-0.8601074,0.35858154,0.11151123
1601393925406,659,-1.9174805,0.79364014,0.053649902
1601393925408,660,-1.282959,0.7675171,0.018249512
1601393925409,661,-1.9174805,0.79364014,0.053649902
1601393925411,662,-1.4475098,0.42181396,0.020935059
1601393925418,663,-1.4475098,0.42181396,0.020935059
1601393925418,664,-1.4475098,0.42181396,0.020935059
1601393925419,665,-0.7416992,0.30218506,0.101257324
1601393925419,666,-0.8601074,0.35858154,0.11151123
1601393925420,667,-0.8601074,0.35858154,0.11151123
1601393925421,668,-0.8601074,0.35858154,0.11151123
1601393925424,669,-0.9050293,0.20819092,0.23187256
1601393925429,670,-0.7416992,0.30218506,0.101257324
1601393925429,671,-0.7416992,0.30218506,0.101257324
1601393925429,672,-0.7416992,0.30218506,0.101257324
1601393925429,673,-0.9050293,0.20819092,0.23187256
1601393925436,674,-0.9050293,0.20819092,0.23187256
1601393925436,675,-0.9050293,0.20819092,0.23187256
1601393925436,676,-0.8977051,0.14324951,0.2699585
1601393925437,677,-0.8977051,0.14324951,0.2699585
1601393925440,678,-0.8977051,0.14324951,0.2699585
1601393925455,679,-1.123291,0.2741089,0.36541748
1601393925456,680,-1.123291,0.2741089,0.36541748
1601393925456,681,-0.8977051,0.14324951,0.2699585
1601393925456,682,-1.123291,0.2741089,0.36541748
1601393925456,683,-0.8100586,0.30413818,0.3624878
1601393925457,684,-1.123291,0.2741089,0.36541748
1601393925458,685,-0.8100586,0.30413818,0.3624878
1601393925458,686,-0.8100586,0.30413818,0.3624878
1601393925458,687,-1.1835938,0.385437,0.22991943
1601393925459,688,-1.1835938,0.385437,0.22991943
1601393925463,689,-0.8100586,0.30413818,0.3624878
1601393925464,690,-1.1335449,0.37371826,0.31365967
1601393925468,691,-1.1335449,0.37371826,0.31365967
1601393925468,692,-1.1835938,0.385437,0.22991943
1601393925468,693,-1.1835938,0.385437,0.22991943
1601393925468,694,-0.8173828,0.46209717,0.33953857
1601393925468,695,-1.1335449,0.37371826,0.31365967
1601393925468,696,-1.1335449,0.37371826,0.31365967
1601393925469,697,-0.8173828,0.46209717,0.33953857
1601393925471,698,-0.8173828,0.46209717,0.33953857
1601393925472,699,-0.8173828,0.46209717,0.33953857
1601393925473,700,-0.6738281,0.38861084,0.2958374
1601393925478,701,-0.6738281,0.38861084,0.2958374
1601393925478,702,-0.6738281,0.38861084,0.2958374
1601393925479,703,-0.77685547,0.45306396,0.28216553
1601393925479,704,-0.77685547,0.45306396,0.28216553
1601393925482,705,-0.77685547,0.45306396,0.28216553
1601393925483,706,-0.6738281,0.38861084,0.2958374
1601393925491,707,-1.4753418,0.6334839,0.093933105
1601393925491,708,-1.4753418,0.6334839,0.093933105
1601393925491,709,-1.4753418,0.6334839,0.093933105
1601393925492,710,-1.5253906,0.43743896,-0.11871338
1601393925492,711,-1.5253906,0.43743896,-0.11871338
1601393925492,712,-0.77685547,0.45306396,0.28216553
1601393925492,713,-1.4165039,0.37469482,-0.2642212
1601393925493,714,-1.4165039,0.37469482,-0.2642212
1601393925493,715,-0.87524414,0.25750732,-0.24810791
1601393925494,716,-0.87524414,0.25750732,-0.24810791
1601393925500,717,-1.4753418,0.6334839,0.093933105
1601393925500,718,-0.65625,0.28997803,-0.190979
1601393925501,719,-1.5253906,0.43743896,-0.11871338
1601393925502,720,-0.65625,0.28997803,-0.190979
1601393925504,721,-1.5253906,0.43743896,-0.11871338
1601393925504,722,-0.8730469,0.31707764,-0.073791504
1601393925512,723,-1.4165039,0.37469482,-0.2642212
1601393925512,724,-0.8730469,0.31707764,-0.073791504
1601393925513,725,-1.2819824,0.33392334,0.08294678
1601393925513,726,-1.4165039,0.37469482,-0.2642212
1601393925513,727,-0.87524414,0.25750732,-0.24810791
1601393925514,728,-0.87524414,0.25750732,-0.24810791
1601393925514,729,-1.2819824,0.33392334,0.08294678
1601393925515,730,-1.4165039,0.2772827,0.1359253
1601393925519,731,-0.65625,0.28997803,-0.190979
1601393925520,732,-0.65625,0.28997803,-0.190979
1601393925520,733,-1.0966797,0.22454834,0.24383545
1601393925520,734,-1.4165039,0.2772827,0.1359253
1601393925521,735,-0.8730469,0.31707764,-0.073791504
1601393925531,736,-0.8730469,0.31707764,-0.073791504
1601393925532,737,-1.0966797,0.22454834,0.24383545
1601393925532,738,-0.9555664,0.21380615,0.14227295
1601393925532,739,-1.2819824,0.33392334,0.08294678
1601393925538,740,-1.2819824,0.33392334,0.08294678
1601393925539,741,-0.9555664,0.21380615,0.14227295
1601393925539,742,-1.4165039,0.2772827,0.1359253
1601393925540,743,-0.6142578,0.277771,0.21063232
1601393925542,744,-1.4165039,0.2772827,0.1359253
1601393925543,745,-1.0966797,0.22454834,0.24383545
1601393925547,746,-0.6142578,0.277771,0.21063232
1601393925549,747,-1.0966797,0.22454834,0.24383545
1601393925551,748,-0.9555664,0.21380615,0.14227295
1601393925552,749,-0.9555664,0.21380615,0.14227295
1601393925554,750,-0.6142578,0.277771,0.21063232
1601393925554,751,-0.75805664,0.37786865,0.277771
1601393925560,752,-0.6142578,0.277771,0.21063232
1601393925560,753,-0.75805664,0.37786865,0.277771
1601393925560,754,-0.75805664,0.37786865,0.277771
1601393925561,755,-0.93896484,0.32025146,0.38641357
1601393925571,756,-0.93896484,0.32025146,0.38641357
1601393925572,757,-1.0290527,0.26116943,0.33221436
1601393925572,758,-0.93896484,0.32025146,0.38641357
1601393925572,759,-0.75805664,0.37786865,0.277771
1601393925572,760,-1.4311523,0.3690796,0.30438232
1601393925573,761,-1.0290527,0.26116943,0.33221436
1601393925574,762,-0.93896484,0.32025146,0.38641357
1601393925574,763,-1.0290527,0.26116943,0.33221436
1601393925578,764,-1.4311523,0.3690796,0.30438232
1601393925578,765,-1.0290527,0.26116943,0.33221436
1601393925579,766,-1.4311523,0.3690796,0.30438232
1601393925582,767,-1.4311523,0.3690796,0.30438232
1601393927871,768,-1.2626953,0.4562378,0.28851318
1601393927872,769,-1.2626953,0.4562378,0.28851318
1601393927874,770,-1.2626953,0.5060425,0.14910889
1601393927874,771,-1.2626953,0.4562378,0.28851318
1601393927875,772,-1.2626953,0.4562378,0.28851318
1601393927879,773,-1.2626953,0.5060425,0.14910889
1601393927879,774,-1.2626953,0.5060425,0.14910889
1601393927880,775,-0.888916,0.2609253,0.059753418
1601393927885,776,-1.2626953,0.5060425,0.14910889
1601393927886,777,-0.888916,0.2609253,0.059753418
1601393927887,778,-0.888916,0.2609253,0.059753418
1601393927888,779,-0.888916,0.2609253,0.059753418
1601393927890,780,-0.8808594,0.26190186,0.022888184
1601393927894,781,-0.8808594,0.26190186,0.022888184
1601393927895,782,-0.8808594,0.26190186,0.022888184
1601393927896,783,-0.8808594,0.26190186,0.022888184
1601393927897,784,-1.0229492,0.25750732,0.03363037
1601393927899,785,-1.0229492,0.25750732,0.03363037
1601393927901,786,-1.0229492,0.25750732,0.03363037
1601393927903,787,-1.0441895,0.22576904,0.07220459
1601393927910,788,-1.0441895,0.22576904,0.07220459
1601393927910,789,-1.0229492,0.25750732,0.03363037
1601393927911,790,-1.0441895,0.22576904,0.07220459
1601393927913,791,-1.2116699,0.1876831,0.08441162
1601393927913,792,-1.2116699,0.1876831,0.08441162
1601393927914,793,-1.0441895,0.22576904,0.07220459
1601393927919,794,-1.2116699,0.1876831,0.08441162
1601393927921,795,-0.98535156,0.2506714,0.26556396
1601393927921,796,-0.98535156,0.2506714,0.26556396
1601393927922,797,-1.2116699,0.1876831,0.08441162
1601393927923,798,-1.0820312,0.25238037,0.21746826
1601393927925,799,-0.98535156,0.2506714,0.26556396
1601393927930,800,-1.0820312,0.25238037,0.21746826
1601393927938,801,-0.98535156,0.2506714,0.26556396
1601393927939,802,-1.0820312,0.25238037,0.21746826
1601393927939,803,-0.9577637,0.29608154,0.25604248
1601393927940,804,-0.9577637,0.29608154,0.25604248
1601393927941,805,-1.0168457,0.48138428,0.32611084
1601393927942,806,-1.0820312,0.25238037,0.21746826
1601393927944,807,-0.9711914,0.4977417,0.42230225
1601393927944,808,-1.0168457,0.48138428,0.32611084
1601393927956,809,-0.9577637,0.29608154,0.25604248
1601393927957,810,-0.9577637,0.29608154,0.25604248
1601393927958,811,-1.0202637,0.5463257,0.46795654
1601393927958,812,-0.9711914,0.4977417,0.42230225
1601393927963,813,-1.0168457,0.48138428,0.32611084
1601393927964,814,-0.9711914,0.4977417,0.42230225
1601393927974,815,-1.0168457,0.48138428,0.32611084
1601393927975,816,-1.0202637,0.5463257,0.46795654
1601393927976,817,-1.3339844,0.54486084,0.5158081
1601393927976,818,-0.9711914,0.4977417,0.42230225
1601393927980,819,-1.0202637,0.5463257,0.46795654
1601393927996,820,-1.3339844,0.54486084,0.5158081
1601393927997,821,-1.0202637,0.5463257,0.46795654
1601393927998,822,-1.3339844,0.54486084,0.5158081
1601393927999,823,-1.4624023,0.49749756,0.32366943
1601393928000,824,-1.4624023,0.49749756,0.32366943
1601393928001,825,-1.7126465,0.6598511,0.08905029
1601393928002,826,-1.7126465,0.6598511,0.08905029
1601393928003,827,-1.6088867,0.6281128,0.08441162
1601393928004,828,-1.4624023,0.49749756,0.32366943
1601393928005,829,-1.0686035,0.826355,0.066833496
1601393928006,830,-1.3339844,0.54486084,0.5158081
1601393928008,831,-0.37768555,0.53778076,-0.024719238
1601393928009,832,-1.7126465,0.6598511,0.08905029
1601393928011,833,-1.4624023,0.49749756,0.32366943
1601393928014,834,0.17163086,0.53533936,0.062194824
1601393928016,835,0.4921875,0.9257202,0.3217163
1601393928019,836,0.49414062,0.07537842,0.15423584
1601393928021,837,-1.7126465,0.6598511,0.08905029
1601393928024,838,-1.6088867,0.6281128,0.08441162
1601393928026,839,-1.6088867,0.6281128,0.08441162
1601393928028,840,0.33569336,-0.5449829,0.41888428
1601393928030,841,-1.6088867,0.6281128,0.08441162
1601393928033,842,-1.0686035,0.826355,0.066833496
1601393928035,843,-0.37768555,0.53778076,-0.024719238
1601393928041,844,0.3310547,-0.47442627,0.48138428
1601393928041,845,-1.0686035,0.826355,0.066833496
1601393928041,846,-1.0686035,0.826355,0.066833496
1601393928042,847,0.17163086,0.53533936,0.062194824
1601393928044,848,0.36621094,-0.41900635,0.55389404
1601393928051,849,-0.37768555,0.53778076,-0.024719238
1601393928051,850,0.3720703,-0.53985596,0.5795288
1601393928052,851,-0.37768555,0.53778076,-0.024719238
1601393928054,852,0.4921875,0.9257202,0.3217163
1601393928055,853,0.45385742,-0.61505127,0.64178467
1601393928056,854,0.17163086,0.53533936,0.062194824
1601393928058,855,0.17163086,0.53533936,0.062194824
1601393928060,856,0.6032715,-0.72613525,0.62786865
1601393928064,857,0.49414062,0.07537842,0.15423584
1601393928066,858,0.4921875,0.9257202,0.3217163
1601393928071,859,0.4921875,0.9257202,0.3217163
1601393928074,860,0.59936523,-0.6824341,0.44891357
1601393928075,861,0.33569336,-0.5449829,0.41888428
1601393928079,862,0.49414062,0.07537842,0.15423584
1601393928079,863,0.33374023,-0.10748291,0.3649292
1601393928080,864,0.49414062,0.07537842,0.15423584
1601393928082,865,0.33569336,-0.5449829,0.41888428
1601393928086,866,0.0146484375,0.6244507,0.35272217
1601393928087,867,0.33569336,-0.5449829,0.41888428
1601393928087,868,0.3310547,-0.47442627,0.48138428
1601393928087,869,0.3310547,-0.47442627,0.48138428
1601393928093,870,-0.033203125,0.54364014,0.17669678
1601393928093,871,0.3310547,-0.47442627,0.48138428
1601393928093,872,0.36621094,-0.41900635,0.55389404
1601393928094,873,0.36621094,-0.41900635,0.55389404
1601393928094,874,0.3720703,-0.53985596,0.5795288
1601393928097,875,0.45385742,-0.61505127,0.64178467
1601393928097,876,0.36621094,-0.41900635,0.55389404
1601393928100,877,0.3720703,-0.53985596,0.5795288
1601393928100,878,0.3720703,-0.53985596,0.5795288
1601393928101,879,0.6032715,-0.72613525,0.62786865
1601393928102,880,0.45385742,-0.61505127,0.64178467
1601393928105,881,0.59936523,-0.6824341,0.44891357
1601393928105,882,0.45385742,-0.61505127,0.64178467
1601393928107,883,0.6032715,-0.72613525,0.62786865
1601393928111,884,0.6032715,-0.72613525,0.62786865
1601393928111,885,0.33374023,-0.10748291,0.3649292
1601393928111,886,0.59936523,-0.6824341,0.44891357
1601393928113,887,0.0146484375,0.6244507,0.35272217
1601393928113,888,0.59936523,-0.6824341,0.44891357
1601393928113,889,0.33374023,-0.10748291,0.3649292
1601393928116,890,-0.033203125,0.54364014,0.17669678
1601393928116,891,0.33374023,-0.10748291,0.3649292
1601393928116,892,0.0146484375,0.6244507,0.35272217
1601393928120,893,-0.033203125,0.54364014,0.17669678
1601393928120,894,0.0146484375,0.6244507,0.35272217
1601393928123,895,-0.033203125,0.54364014,0.17669678
1601393930482,896,-0.30273438,0.74993896,0.38934326
1601393930484,897,-0.30273438,0.74993896,0.38934326
1601393930485,898,-0.30273438,0.74993896,0.38934326
1601393930485,899,-0.30273438,0.74993896,0.38934326
1601393930494,900,-0.7121582,0.6744995,0.541687
1601393930494,901,-0.7121582,0.6744995,0.541687
1601393930495,902,-0.7121582,0.6744995,0.541687
1601393930495,903,-0.7121582,0.6744995,0.541687
1601393930496,904,-1.5568848,0.2506714,0.39056396
1601393930517,905,-1.5568848,0.2506714,0.39056396
1601393930519,906,-1.5568848,0.2506714,0.39056396
1601393930520,907,-2.0,0.8925171,0.6898804
1601393930520,908,-1.5568848,0.2506714,0.39056396
1601393930523,909,-1.3227539,0.26654053,0.53289795
1601393930524,910,-2.0,0.8925171,0.6898804
1601393930524,911,-0.72875977,0.5866089,0.42596436
1601393930525,912,-1.3227539,0.26654053,0.53289795
1601393930525,913,-0.640625,0.36883545,0.37420654
1601393930526,914,-2.0,0.8925171,0.6898804
1601393930527,915,-2.0,0.8925171,0.6898804
1601393930537,916,-0.72875977,0.5866089,0.42596436
1601393930537,917,-0.7404785,0.39398193,0.39154053
1601393930539,918,-0.640625,0.36883545,0.37420654
1601393930540,919,-1.0012207,0.5223999,0.29925537
1601393930541,920,-0.7404785,0.39398193,0.39154053
1601393930541,921,-1.3227539,0.26654053,0.53289795
1601393930542,922,-1.0012207,0.5223999,0.29925537
1601393930543,923,-1.1584473,0.36224365,-0.0017700195
1601393930550,924,-1.3227539,0.26654053,0.53289795
1601393930550,925,-0.72875977,0.5866089,0.42596436
1601393930551,926,-1.1569824,0.38079834,-0.14361572
1601393930552,927,-1.1584473,0.36224365,-0.0017700195
1601393930552,928,-0.640625,0.36883545,0.37420654
1601393930553,929,-1.1569824,0.38079834,-0.14361572
1601393930554,930,-1.2719727,0.33563232,-0.117248535
1601393930556,931,-0.72875977,0.5866089,0.42596436
1601393930558,932,-1.2719727,0.33563232,-0.117248535
1601393930565,933,-0.7404785,0.39398193,0.39154053
1601393930566,934,-0.640625,0.36883545,0.37420654
1601393930566,935,-1.2541504,0.5285034,0.002380371
1601393930567,936,-0.7404785,0.39398193,0.39154053
1601393930568,937,-1.0012207,0.5223999,0.29925537
1601393930570,938,-1.2160645,0.6334839,-0.027893066
1601393930573,939,-1.0598145,0.5609741,0.05731201
1601393930578,940,-0.97143555,0.34320068,0.0914917
1601393930579,941,-1.1584473,0.36224365,-0.0017700195
1601393930579,942,-1.0012207,0.5223999,0.29925537
1601393930581,943,-1.2541504,0.5285034,0.002380371
1601393930584,944,-1.1569824,0.38079834,-0.14361572
1601393930585,945,-0.7246094,0.30413818,0.17816162
1601393930586,946,-1.1584473,0.36224365,-0.0017700195
1601393930587,947,-1.2160645,0.6334839,-0.027893066
1601393930589,948,-1.2719727,0.33563232,-0.117248535
1601393930599,949,-0.5566406,0.27337646,0.2699585
1601393930600,950,-1.1569824,0.38079834,-0.14361572
1601393930600,951,-1.0598145,0.5609741,0.05731201
1601393930600,952,-1.2719727,0.33563232,-0.117248535
1601393930601,953,-0.97143555,0.34320068,0.0914917
1601393930601,954,-0.55737305,0.32269287,0.31536865
1601393930601,955,-1.2541504,0.5285034,0.002380371
1601393930602,956,-0.56152344,0.31219482,0.36224365
1601393930602,957,-1.2541504,0.5285034,0.002380371
1601393930602,958,-0.7246094,0.30413818,0.17816162
1601393930609,959,-1.2160645,0.6334839,-0.027893066
1601393930609,960,-0.7062988,0.40911865,0.36175537
1601393930610,961,-1.2160645,0.6334839,-0.027893066
1601393930612,962,-0.5566406,0.27337646,0.2699585
1601393930614,963,-0.7927246,0.31488037,0.340271
1601393930616,964,-1.4951172,0.6222534,0.5031128
1601393930618,965,-1.4140625,0.7526245,0.7172241
1601393930620,966,-0.55737305,0.32269287,0.31536865
1601393930622,967,-0.56152344,0.31219482,0.36224365
1601393930624,968,-1.0598145,0.5609741,0.05731201
1601393930630,969,-0.97143555,0.34320068,0.0914917
1601393930631,970,-0.7062988,0.40911865,0.36175537
1601393930633,971,-1.0598145,0.5609741,0.05731201
1601393930634,972,-1.0812988,0.99993896,0.6173706
1601393930636,973,-0.7246094,0.30413818,0.17816162
1601393930638,974,-0.7927246,0.31488037,0.340271
1601393930644,975,-0.97143555,0.34320068,0.0914917
1601393930644,976,-0.5566406,0.27337646,0.2699585
1601393930644,977,-0.99072266,1.215271,0.31097412
1601393930645,978,-0.7246094,0.30413818,0.17816162
1601393930645,979,-0.55737305,0.32269287,0.31536865
1601393930649,980,-1.4951172,0.6222534,0.5031128
1601393930650,981,-0.38183594,0.7289429,-0.26861572
1601393930652,982,-0.2915039,0.7079468,-0.36138916
1601393930654,983,-0.56152344,0.31219482,0.36224365
1601393930656,984,-1.4140625,0.7526245,0.7172241
1601393930660,985,-1.0812988,0.99993896,0.6173706
1601393930661,986,-0.7062988,0.40911865,0.36175537
1601393930662,987,0.047607422,0.8624878,-0.38067627
1601393930662,988,-0.5566406,0.27337646,0.2699585
1601393930668,989,-0.99072266,1.215271,0.31097412
1601393930668,990,0.53515625,0.89642334,-0.23297119
1601393930685,991,-0.7927246,0.31488037,0.340271
1601393930685,992,-0.38183594,0.7289429,-0.26861572
1601393930686,993,-0.55737305,0.32269287,0.31536865
1601393930688,994,0.6730957,0.6732788,-0.06036377
1601393930691,995,-0.2915039,0.7079468,-0.36138916
1601393930692,996,-1.4951172,0.6222534,0.5031128
1601393930692,997,-0.56152344,0.31219482,0.36224365
1601393930692,998,0.70996094,0.2699585,0.0045776367
1601393930692,999,0.047607422,0.8624878,-0.38067627
1601393930692,1000,-1.4140625,0.7526245,0.7172241
1601393930692,1001,0.53515625,0.89642334,-0.23297119
1601393930693,1002,-0.7062988,0.40911865,0.36175537
1601393930695,1003,-0.7927246,0.31488037,0.340271
1601393930696,1004,-1.0812988,0.99993896,0.6173706
1601393930696,1005,-1.4951172,0.6222534,0.5031128
1601393930698,1006,0.6730957,0.6732788,-0.06036377
1601393930700,1007,0.70996094,0.2699585,0.0045776367
1601393930705,1008,-1.4140625,0.7526245,0.7172241
1601393930708,1009,-1.0812988,0.99993896,0.6173706
1601393930709,1010,-0.99072266,1.215271,0.31097412
1601393930711,1011,-0.99072266,1.215271,0.31097412
1601393930714,1012,-0.38183594,0.7289429,-0.26861572
1601393930715,1013,-0.38183594,0.7289429,-0.26861572
1601393930717,1014,-0.2915039,0.7079468,-0.36138916
1601393930717,1015,-0.2915039,0.7079468,-0.36138916
1601393930720,1016,0.047607422,0.8624878,-0.38067627
1601393930720,1017,0.047607422,0.8624878,-0.38067627
1601393930722,1018,0.53515625,0.89642334,-0.23297119
1601393930725,1019,0.53515625,0.89642334,-0.23297119
1601393930726,1020,0.6730957,0.6732788,-0.06036377
1601393930728,1021,0.6730957,0.6732788,-0.06036377
1601393930730,1022,0.70996094,0.2699585,0.0045776367
1601393930733,1023,0.70996094,0.2699585,0.0045776367
1601393933166,1024,0.67407227,0.10491943,0.13739014
1601393933176,1025,0.67407227,0.10491943,0.13739014
1601393933177,1026,0.67407227,0.10491943,0.13739014
1601393933177,1027,0.67407227,0.10491943,0.13739014
1601393933178,1028,0.78930664,0.1954956,0.07879639
1601393933179,1029,0.78930664,0.1954956,0.07879639
1601393933180,1030,0.78930664,0.1954956,0.07879639
1601393933182,1031,0.78930664,0.1954956,0.07879639
1601393933183,1032,0.7609863,0.17425537,0.11004639
1601393933192,1033,0.7609863,0.17425537,0.11004639
1601393933193,1034,0.7609863,0.17425537,0.11004639
1601393933194,1035,0.7609863,0.17425537,0.11004639
1601393933195,1036,0.74243164,0.06414795,0.1954956
1601393933196,1037,0.74243164,0.06414795,0.1954956
1601393933196,1038,0.74243164,0.06414795,0.1954956
1601393933197,1039,0.74243164,0.06414795,0.1954956
1601393933198,1040,0.842041,0.16644287,0.11883545
1601393933199,1041,0.842041,0.16644287,0.11883545
1601393933200,1042,0.842041,0.16644287,0.11883545
1601393933202,1043,0.842041,0.16644287,0.11883545
1601393933207,1044,0.939209,0.14154053,0.13153076
1601393933207,1045,0.939209,0.14154053,0.13153076
1601393933208,1046,0.939209,0.14154053,0.13153076
1601393933209,1047,0.939209,0.14154053,0.13153076
1601393933215,1048,0.99365234,0.22772217,0.1906128
1601393933216,1049,0.99365234,0.22772217,0.1906128
1601393933216,1050,0.99365234,0.22772217,0.1906128
1601393933218,1051,0.99365234,0.22772217,0.1906128
1601393933226,1052,0.9008789,0.50335693,0.17645264
1601393933227,1053,0.9008789,0.50335693,0.17645264
1601393933228,1054,0.9008789,0.50335693,0.17645264
1601393933229,1055,0.826416,0.33343506,-0.008361816
1601393933229,1056,0.70532227,0.2321167,-0.046447754
1601393933230,1057,0.9008789,0.50335693,0.17645264
1601393933231,1058,0.826416,0.33343506,-0.008361816
1601393933232,1059,0.63549805,0.2753296,0.04046631
1601393933241,1060,0.826416,0.33343506,-0.008361816
1601393933242,1061,0.70532227,0.2321167,-0.046447754
1601393933242,1062,0.8251953,0.37054443,0.152771
1601393933243,1063,0.826416,0.33343506,-0.008361816
1601393933244,1064,0.63549805,0.2753296,0.04046631
1601393933245,1065,0.70532227,0.2321167,-0.046447754
1601393933245,1066,0.8876953,0.37127686,0.12982178
1601393933247,1067,0.70532227,0.2321167,-0.046447754
1601393933248,1068,0.8251953,0.37054443,0.152771
1601393933253,1069,0.8876953,0.37127686,0.12982178
1601393933254,1070,0.63549805,0.2753296,0.04046631
1601393933255,1071,0.63549805,0.2753296,0.04046631
1601393933256,1072,0.7651367,0.24822998,-6.1035156E-5
1601393933259,1073,0.7651367,0.24822998,-6.1035156E-5
1601393933260,1074,0.8251953,0.37054443,0.152771
1601393933262,1075,0.8876953,0.37127686,0.12982178
1601393933268,1076,0.7651367,0.24822998,-6.1035156E-5
1601393933268,1077,0.8251953,0.37054443,0.152771
1601393933269,1078,0.39453125,0.1473999,-0.13043213
1601393933269,1079,0.39453125,0.1473999,-0.13043213
1601393933270,1080,0.39453125,0.1473999,-0.13043213
1601393933277,1081,0.22583008,0.67181396,-0.04425049
1601393933278,1082,0.22583008,0.67181396,-0.04425049
1601393933279,1083,0.22583008,0.67181396,-0.04425049
1601393933279,1084,0.8876953,0.37127686,0.12982178
1601393933280,1085,-2.4414062E-4,0.80804443,-0.2966919
1601393933281,1086,-2.4414062E-4,0.80804443,-0.2966919
1601393933282,1087,0.7651367,0.24822998,-6.1035156E-5
1601393933285,1088,-2.4414062E-4,0.80804443,-0.2966919
1601393933289,1089,-0.13671875,1.2145386,0.13348389
1601393933289,1090,0.39453125,0.1473999,-0.13043213
1601393933290,1091,-0.13671875,1.2145386,0.13348389
1601393933291,1092,-0.13671875,1.2145386,0.13348389
1601393933293,1093,-0.24975586,0.79241943,0.3764038
1601393933295,1094,-0.24975586,0.79241943,0.3764038
1601393933297,1095,0.22583008,0.67181396,-0.04425049
1601393933299,1096,-0.24975586,0.79241943,0.3764038
1601393933303,1097,-0.8359375,1.3043823,0.24822998
1601393933306,1098,-0.8359375,1.3043823,0.24822998
1601393933307,1099,-2.4414062E-4,0.80804443,-0.2966919
1601393933308,1100,-1.2805176,1.5778198,0.22064209
1601393933309,1101,-0.8359375,1.3043823,0.24822998
1601393933312,1102,-0.13671875,1.2145386,0.13348389
1601393933315,1103,-1.2805176,1.5778198,0.22064209
1601393933317,1104,-1.0463867,0.7194214,0.33880615
1601393933318,1105,-0.70996094,0.54559326,0.16033936
1601393933320,1106,-0.24975586,0.79241943,0.3764038
1601393933323,1107,-1.0463867,0.7194214,0.33880615
1601393933324,1108,-1.2805176,1.5778198,0.22064209
1601393933327,1109,-1.0463867,0.7194214,0.33880615
1601393933332,1110,-0.70996094,0.54559326,0.16033936
1601393933333,1111,-0.53637695,0.45062256,0.07171631
1601393933335,1112,-0.8359375,1.3043823,0.24822998
1601393933335,1113,-0.70996094,0.54559326,0.16033936
1601393933342,1114,-0.53637695,0.45062256,0.07171631
1601393933343,1115,-0.5109863,0.39398193,0.14593506
1601393933343,1116,-1.2805176,1.5778198,0.22064209
1601393933343,1117,-0.53637695,0.45062256,0.07171631
1601393933344,1118,-1.0463867,0.7194214,0.33880615
1601393933347,1119,-0.828125,0.43133545,0.17962646
1601393933349,1120,-1.4685059,0.3673706,0.16497803
1601393933352,1121,-1.5405273,0.42108154,0.15423584
1601393933362,1122,-1.0234375,0.38226318,0.13470459
1601393933363,1123,-0.5109863,0.39398193,0.14593506
1601393933363,1124,-0.7336426,0.3834839,0.21551514
1601393933363,1125,-0.70996094,0.54559326,0.16033936
1601393933363,1126,-0.828125,0.43133545,0.17962646
1601393933364,1127,-0.5109863,0.39398193,0.14593506
1601393933364,1128,-0.828125,0.43133545,0.17962646
1601393933367,1129,-0.53637695,0.45062256,0.07171631
1601393933368,1130,-0.6435547,0.32781982,0.21014404
1601393933371,1131,-1.4685059,0.3673706,0.16497803
1601393933371,1132,-0.5109863,0.39398193,0.14593506
1601393933374,1133,-0.74243164,0.28656006,0.2008667
1601393933374,1134,-1.4685059,0.3673706,0.16497803
1601393933375,1135,-1.5405273,0.42108154,0.15423584
1601393933382,1136,-0.828125,0.43133545,0.17962646
1601393933383,1137,-1.0234375,0.38226318,0.13470459
1601393933383,1138,-1.5405273,0.42108154,0.15423584
1601393933384,1139,-0.7336426,0.3834839,0.21551514
1601393933384,1140,-1.4685059,0.3673706,0.16497803
1601393933384,1141,-1.0234375,0.38226318,0.13470459
1601393933389,1142,-1.5405273,0.42108154,0.15423584
1601393933389,1143,-0.7336426,0.3834839,0.21551514
1601393933390,1144,-1.0234375,0.38226318,0.13470459
1601393933394,1145,-0.6435547,0.32781982,0.21014404
1601393933395,1146,-0.6435547,0.32781982,0.21014404
1601393933395,1147,-0.7336426,0.3834839,0.21551514
1601393933395,1148,-0.74243164,0.28656006,0.2008667
1601393933399,1149,-0.74243164,0.28656006,0.2008667
1601393933407,1150,-0.6435547,0.32781982,0.21014404
1601393933409,1151,-0.74243164,0.28656006,0.2008667
1601393935665,1152,-1.0622559,0.3829956,0.23602295
1601393935667,1153,-1.0622559,0.3829956,0.23602295
1601393935668,1154,-1.0622559,0.3829956,0.23602295
1601393935676,1155,-1.5236816,0.5807495,0.42059326
1601393935676,1156,-1.0622559,0.3829956,0.23602295
1601393935677,1157,-1.5236816,0.5807495,0.42059326
1601393935677,1158,-1.5236816,0.5807495,0.42059326
1601393935678,1159,-1.1962891,0.44573975,0.6473999
1601393935680,1160,-1.5236816,0.5807495,0.42059326
1601393935682,1161,-1.1962891,0.44573975,0.6473999
1601393935701,1162,-0.8051758,0.1293335,0.31463623
1601393935702,1163,-1.1962891,0.44573975,0.6473999
1601393935703,1164,-0.8051758,0.1293335,0.31463623
1601393935704,1165,-1.1962891,0.44573975,0.6473999
1601393935705,1166,-0.4741211,0.22503662,0.22088623
1601393935712,1167,-0.4741211,0.22503662,0.22088623
1601393935712,1168,-0.5686035,0.2645874,0.18719482
1601393935713,1169,-0.5686035,0.2645874,0.18719482
1601393935713,1170,-0.8051758,0.1293335,0.31463623
1601393935713,1171,-0.75024414,0.24481201,0.1642456
1601393935713,1172,-0.4741211,0.22503662,0.22088623
1601393935714,1173,-0.75024414,0.24481201,0.1642456
1601393935714,1174,-0.5686035,0.2645874,0.18719482
1601393935714,1175,-1.0092773,0.32391357,0.21502686
1601393935714,1176,-0.8051758,0.1293335,0.31463623
1601393935714,1177,-1.0092773,0.32391357,0.21502686
1601393935726,1178,-1.7045898,0.322937,0.2453003
1601393935727,1179,-0.75024414,0.24481201,0.1642456
1601393935728,1180,-0.4741211,0.22503662,0.22088623
1601393935729,1181,-1.7045898,0.322937,0.2453003
1601393935729,1182,-0.5686035,0.2645874,0.18719482
1601393935730,1183,-1.5913086,0.31781006,0.20135498
1601393935731,1184,-1.0092773,0.32391357,0.21502686
1601393935732,1185,-0.75024414,0.24481201,0.1642456
1601393935732,1186,-1.0092773,0.32391357,0.21502686
1601393935733,1187,-1.5913086,0.31781006,0.20135498
1601393935734,1188,-0.8391113,0.3366089,0.1984253
1601393935735,1189,-1.7045898,0.322937,0.2453003
1601393935739,1190,-1.7045898,0.322937,0.2453003
1601393935740,1191,-0.8391113,0.3366089,0.1984253
1601393935740,1192,-0.57299805,0.35491943,0.21600342
1601393935741,1193,-0.57299805,0.35491943,0.21600342
1601393935748,1194,-1.5913086,0.31781006,0.20135498
1601393935749,1195,-0.59375,0.24383545,0.18426514
1601393935749,1196,-1.5913086,0.31781006,0.20135498
1601393935750,1197,-0.59375,0.24383545,0.18426514
1601393935751,1198,-0.8391113,0.3366089,0.1984253
1601393935753,1199,-0.8391113,0.3366089,0.1984253
1601393935755,1200,-0.57299805,0.35491943,0.21600342
1601393935759,1201,-0.83154297,0.27801514,0.14202881
1601393935760,1202,-0.59375,0.24383545,0.18426514
1601393935761,1203,-0.57299805,0.35491943,0.21600342
1601393935761,1204,-0.83154297,0.27801514,0.14202881
1601393935765,1205,-1.1071777,0.47772217,0.2411499
1601393935771,1206,-0.59375,0.24383545,0.18426514
1601393935772,1207,-1.1071777,0.47772217,0.2411499
1601393935773,1208,-0.83154297,0.27801514,0.14202881
1601393935773,1209,-1.3349609,0.4857788,0.45550537
1601393935774,1210,-1.1071777,0.47772217,0.2411499
1601393935775,1211,-0.83154297,0.27801514,0.14202881
1601393935777,1212,-1.3349609,0.4857788,0.45550537
1601393935779,1213,-1.1071777,0.47772217,0.2411499
1601393935781,1214,-1.2380371,0.35882568,0.56121826
1601393935783,1215,-1.3349609,0.4857788,0.45550537
1601393935793,1216,-1.0380859,0.12713623,0.3583374
1601393935794,1217,-1.2380371,0.35882568,0.56121826
1601393935795,1218,-1.3349609,0.4857788,0.45550537
1601393935801,1219,-0.7463379,0.22601318,0.32562256
1601393935802,1220,-1.2380371,0.35882568,0.56121826
1601393935802,1221,-1.0380859,0.12713623,0.3583374
1601393935802,1222,-1.0380859,0.12713623,0.3583374
1601393935802,1223,-1.2380371,0.35882568,0.56121826
1601393935802,1224,-0.6750488,0.20135498,0.22601318
1601393935802,1225,-0.7463379,0.22601318,0.32562256
1601393935805,1226,-0.7463379,0.22601318,0.32562256
1601393935806,1227,-1.0380859,0.12713623,0.3583374
1601393935806,1228,-0.6750488,0.20135498,0.22601318
1601393935807,1229,-0.5344238,0.16253662,0.17913818
1601393935809,1230,-0.6750488,0.20135498,0.22601318
1601393935814,1231,-0.5344238,0.16253662,0.17913818
1601393935815,1232,-0.45507812,0.19940186,0.18060303
1601393935816,1233,-0.7463379,0.22601318,0.32562256
1601393935816,1234,-0.45507812,0.19940186,0.18060303
1601393935819,1235,-1.0073242,0.40423584,0.29852295
1601393935821,1236,-0.5344238,0.16253662,0.17913818
1601393935823,1237,-0.6750488,0.20135498,0.22601318
1601393935825,1238,-0.5344238,0.16253662,0.17913818
1601393935828,1239,-0.45507812,0.19940186,0.18060303
1601393935837,1240,-0.45507812,0.19940186,0.18060303
1601393935837,1241,-1.7668457,0.6449585,0.4196167
1601393935837,1242,-1.0073242,0.40423584,0.29852295
1601393935838,1243,-1.0073242,0.40423584,0.29852295
1601393935838,1244,-1.0073242,0.40423584,0.29852295
1601393935838,1245,-1.4816895,0.48065186,0.35565186
1601393935839,1246,-1.7668457,0.6449585,0.4196167
1601393935839,1247,-1.7668457,0.6449585,0.4196167
1601393935839,1248,-0.80566406,0.5404663,0.31976318
1601393935839,1249,-1.7668457,0.6449585,0.4196167
1601393935840,1250,-1.4816895,0.48065186,0.35565186
1601393935849,1251,-1.4816895,0.48065186,0.35565186
1601393935850,1252,-0.52783203,0.3209839,0.18719482
1601393935853,1253,-1.4816895,0.48065186,0.35565186
1601393935854,1254,-0.80566406,0.5404663,0.31976318
1601393935854,1255,-0.80566406,0.5404663,0.31976318
1601393935854,1256,-0.80566406,0.5404663,0.31976318
1601393935854,1257,-0.5197754,0.25482178,0.17181396
1601393935854,1258,-0.52783203,0.3209839,0.18719482
1601393935862,1259,-0.52783203,0.3209839,0.18719482
1601393935864,1260,-0.52783203,0.3209839,0.18719482
1601393935864,1261,-0.7746582,0.34197998,0.15374756
1601393935864,1262,-0.5197754,0.25482178,0.17181396
1601393935865,1263,-0.5197754,0.25482178,0.17181396
1601393935868,1264,-0.7746582,0.34197998,0.15374756
1601393935871,1265,-1.1240234,0.3751831,0.19598389
1601393935872,1266,-0.7746582,0.34197998,0.15374756
1601393935873,1267,-1.1240234,0.3751831,0.19598389
1601393935877,1268,-1.4089355,0.35125732,0.27825928
1601393935888,1269,-0.5197754,0.25482178,0.17181396
1601393935889,1270,-1.4089355,0.35125732,0.27825928
1601393935889,1271,-1.045166,0.31536865,0.41375732
1601393935890,1272,-0.7746582,0.34197998,0.15374756
1601393935891,1273,-1.1240234,0.3751831,0.19598389
1601393935892,1274,-1.1240234,0.3751831,0.19598389
1601393935893,1275,-1.4089355,0.35125732,0.27825928
1601393935894,1276,-1.045166,0.31536865,0.41375732
1601393935894,1277,-1.045166,0.31536865,0.41375732
1601393935895,1278,-1.4089355,0.35125732,0.27825928
1601393935899,1279,-1.045166,0.31536865,0.41375732
1601393938269,1280,-0.890625,0.18499756,0.2904663
1601393938269,1281,-0.890625,0.18499756,0.2904663
1601393938270,1282,-0.890625,0.18499756,0.2904663
1601393938272,1283,-0.8310547,0.29437256,0.28460693
1601393938283,1284,-0.890625,0.18499756,0.2904663
1601393938283,1285,-0.7897949,0.38250732,0.35614014
1601393938284,1286,-0.8310547,0.29437256,0.28460693
1601393938285,1287,-0.8310547,0.29437256,0.28460693
1601393938286,1288,-0.73779297,0.4130249,0.35272217
1601393938287,1289,-0.8310547,0.29437256,0.28460693
1601393938288,1290,-0.7897949,0.38250732,0.35614014
1601393938289,1291,-0.73779297,0.4130249,0.35272217
1601393938289,1292,-0.63916016,0.41888428,0.36932373
1601393938293,1293,-0.7897949,0.38250732,0.35614014
1601393938298,1294,-0.63916016,0.41888428,0.36932373
1601393938299,1295,-0.73779297,0.4130249,0.35272217
1601393938300,1296,-0.7897949,0.38250732,0.35614014
1601393938300,1297,-0.63916016,0.41888428,0.36932373
1601393938302,1298,-0.48388672,0.40618896,0.31756592
1601393938305,1299,-0.48388672,0.40618896,0.31756592
1601393938306,1300,-0.48388672,0.40618896,0.31756592
1601393938307,1301,-0.73779297,0.4130249,0.35272217
1601393938308,1302,-0.4326172,0.46209717,0.2296753
1601393938310,1303,-0.4326172,0.46209717,0.2296753
1601393938312,1304,-0.63916016,0.41888428,0.36932373
1601393938321,1305,-0.4326172,0.46209717,0.2296753
1601393938321,1306,-0.67944336,0.5458374,0.246521
1601393938321,1307,-0.67944336,0.5458374,0.246521
1601393938321,1308,-0.48388672,0.40618896,0.31756592
1601393938323,1309,-0.67944336,0.5458374,0.246521
1601393938323,1310,-1.3669434,0.64349365,0.27996826
1601393938324,1311,-1.3669434,0.64349365,0.27996826
1601393938326,1312,-1.3669434,0.64349365,0.27996826
1601393938330,1313,-0.4326172,0.46209717,0.2296753
1601393938331,1314,-1.8535156,0.52679443,0.2880249
1601393938332,1315,-1.8535156,0.52679443,0.2880249
1601393938333,1316,-1.8535156,0.52679443,0.2880249
1601393938337,1317,-0.67944336,0.5458374,0.246521
1601393938338,1318,-1.234375,0.20501709,0.18133545
1601393938338,1319,-1.234375,0.20501709,0.18133545
1601393938339,1320,-1.3669434,0.64349365,0.27996826
1601393938342,1321,-1.234375,0.20501709,0.18133545
1601393938344,1322,-0.8984375,0.35565186,0.2694702
1601393938346,1323,-0.5932617,0.20526123,0.13201904
1601393938353,1324,-1.8535156,0.52679443,0.2880249
1601393938354,1325,-0.8984375,0.35565186,0.2694702
1601393938355,1326,-0.8984375,0.35565186,0.2694702
1601393938356,1327,-0.43676758,0.15765381,0.08856201
1601393938356,1328,-1.234375,0.20501709,0.18133545
1601393938357,1329,-0.5932617,0.20526123,0.13201904
1601393938360,1330,-0.5932617,0.20526123,0.13201904
1601393938366,1331,-0.43676758,0.15765381,0.08856201
1601393938369,1332,-0.5102539,0.28851318,0.10296631
1601393938370,1333,-0.8984375,0.35565186,0.2694702
1601393938370,1334,-0.43676758,0.15765381,0.08856201
1601393938372,1335,-0.5102539,0.28851318,0.10296631
1601393938375,1336,-0.5932617,0.20526123,0.13201904
1601393938382,1337,-0.6779785,0.3209839,0.1239624
1601393938384,1338,-0.6779785,0.3209839,0.1239624
1601393938384,1339,-0.5102539,0.28851318,0.10296631
1601393938384,1340,-1.0812988,0.4623413,0.21966553
1601393938394,1341,-1.0812988,0.4623413,0.21966553
1601393938395,1342,-0.43676758,0.15765381,0.08856201
1601393938396,1343,-0.6779785,0.3209839,0.1239624
1601393938396,1344,-1.7392578,0.59002686,0.5307007
1601393938397,1345,-1.7392578,0.59002686,0.5307007
1601393938398,1346,-1.2729492,0.36688232,0.59173584
1601393938399,1347,-1.2729492,0.36688232,0.59173584
1601393938399,1348,-1.0812988,0.4623413,0.21966553
1601393938408,1349,-0.5102539,0.28851318,0.10296631
1601393938409,1350,-0.9968262,0.1083374,0.28485107
1601393938409,1351,-1.7392578,0.59002686,0.5307007
1601393938410,1352,-0.9968262,0.1083374,0.28485107
1601393938411,1353,-1.2729492,0.36688232,0.59173584
1601393938412,1354,-0.73291016,0.37542725,0.3612671
1601393938413,1355,-0.6779785,0.3209839,0.1239624
1601393938413,1356,-0.68969727,0.3012085,0.32489014
1601393938416,1357,-1.0812988,0.4623413,0.21966553
1601393938418,1358,-0.9968262,0.1083374,0.28485107
1601393938426,1359,-0.73291016,0.37542725,0.3612671
1601393938427,1360,-1.7392578,0.59002686,0.5307007
1601393938428,1361,-0.57714844,0.2531128,0.20916748
1601393938430,1362,-1.2729492,0.36688232,0.59173584
1601393938430,1363,-0.73291016,0.37542725,0.3612671
1601393938431,1364,-0.9968262,0.1083374,0.28485107
1601393938432,1365,-0.68969727,0.3012085,0.32489014
1601393938433,1366,-0.73291016,0.37542725,0.3612671
1601393938436,1367,-0.48876953,0.23846436,0.18011475
1601393938438,1368,-0.89160156,0.26898193,0.1852417
1601393938441,1369,-1.5390625,0.31585693,0.23895264
1601393938443,1370,-0.68969727,0.3012085,0.32489014
1601393938445,1371,-0.68969727,0.3012085,0.32489014
1601393938477,1372,-0.57714844,0.2531128,0.20916748
1601393938477,1373,-0.57714844,0.2531128,0.20916748
1601393938478,1374,-1.6455078,0.35980225,0.21795654
1601393938479,1375,-0.57714844,0.2531128,0.20916748
1601393938479,1376,-0.48876953,0.23846436,0.18011475
1601393938480,1377,-0.48876953,0.23846436,0.18011475
1601393938481,1378,-1.1052246,0.26531982,0.16107178
1601393938482,1379,-0.89160156,0.26898193,0.1852417
1601393938483,1380,-0.7270508,0.29852295,0.16253662
1601393938484,1381,-1.5390625,0.31585693,0.23895264
1601393938485,1382,-0.89160156,0.26898193,0.1852417
1601393938486,1383,-1.6455078,0.35980225,0.21795654
1601393938486,1384,-1.5390625,0.31585693,0.23895264
1601393938487,1385,-0.48876953,0.23846436,0.18011475
1601393938488,1386,-1.6455078,0.35980225,0.21795654
1601393938489,1387,-0.89160156,0.26898193,0.1852417
1601393938490,1388,-1.1052246,0.26531982,0.16107178
1601393938491,1389,-0.73828125,0.27874756,0.13763428
1601393938492,1390,-1.5390625,0.31585693,0.23895264
1601393938492,1391,-0.9914551,0.24383545,0.18890381
1601393938493,1392,-0.7270508,0.29852295,0.16253662
1601393938494,1393,-1.1052246,0.26531982,0.16107178
1601393938497,1394,-0.73828125,0.27874756,0.13763428
1601393938500,1395,-1.6455078,0.35980225,0.21795654
1601393938500,1396,-0.9914551,0.24383545,0.18890381
1601393938501,1397,-0.88183594,0.19866943,0.024108887
1601393938501,1398,-0.7270508,0.29852295,0.16253662
1601393938508,1399,-0.88183594,0.19866943,0.024108887
1601393938509,1400,-1.1052246,0.26531982,0.16107178
1601393938510,1401,-0.73828125,0.27874756,0.13763428
1601393938511,1402,-0.7270508,0.29852295,0.16253662
1601393938516,1403,-0.9914551,0.24383545,0.18890381
1601393938520,1404,-0.73828125,0.27874756,0.13763428
1601393938522,1405,-0.88183594,0.19866943,0.024108887
1601393938528,1406,-0.9914551,0.24383545,0.18890381
1601393938529,1407,-0.88183594,0.19866943,0.024108887
1601393940866,1408,-0.7961426,0.670105,0.1984253
1601393940867,1409,-0.7961426,0.670105,0.1984253
1601393940873,1410,-0.6826172,0.46429443,0.2609253
1601393940890,1411,-0.7961426,0.670105,0.1984253
1601393940896,1412,-0.7961426,0.670105,0.1984253
1601393940896,1413,-0.8569336,0.2662964,0.20819092
1601393940905,1414,-0.6826172,0.46429443,0.2609253
1601393940907,1415,-0.6826172,0.46429443,0.2609253
1601393940907,1416,-0.6826172,0.46429443,0.2609253
1601393940908,1417,-1.3779297,0.30023193,0.37957764
1601393940909,1418,-1.2666016,0.4081421,0.38446045
1601393940910,1419,-0.8569336,0.2662964,0.20819092
1601393940911,1420,-0.8569336,0.2662964,0.20819092
1601393940911,1421,-0.8569336,0.2662964,0.20819092
1601393940913,1422,-1.3779297,0.30023193,0.37957764
1601393940913,1423,-1.3779297,0.30023193,0.37957764
1601393940916,1424,-1.3779297,0.30023193,0.37957764
1601393940918,1425,-1.2666016,0.4081421,0.38446045
1601393940921,1426,-1.2666016,0.4081421,0.38446045
1601393940923,1427,-1.0505371,0.26312256,0.2670288
1601393940925,1428,-1.0505371,0.26312256,0.2670288
1601393941025,1429,-0.7492676,0.30169678,0.262146
1601393941027,1430,-1.0505371,0.26312256,0.2670288
1601393941030,1431,-0.7492676,0.30169678,0.262146
1601393941030,1432,-1.2666016,0.4081421,0.38446045
1601393941031,1433,-0.7492676,0.30169678,0.262146
1601393941032,1434,-0.66137695,0.2909546,0.25360107
1601393941033,1435,-0.66137695,0.2909546,0.25360107
1601393941034,1436,-0.5588379,0.25946045,0.2765503
1601393941037,1437,-0.5588379,0.25946045,0.2765503
1601393941038,1438,-0.58618164,0.23382568,0.26531982
1601393941040,1439,-0.87280273,0.21990967,0.2518921
1601393941043,1440,-1.0505371,0.26312256,0.2670288
1601393941056,1441,-0.66137695,0.2909546,0.25360107
1601393941056,1442,-1.3171387,0.31365967,0.18719482
1601393941060,1443,-0.5588379,0.25946045,0.2765503
1601393941061,1444,-0.58618164,0.23382568,0.26531982
1601393941061,1445,-0.7492676,0.30169678,0.262146
1601393941066,1446,-0.58618164,0.23382568,0.26531982
1601393941066,1447,-0.87280273,0.21990967,0.2518921
1601393941066,1448,-1.4807129,0.42547607,0.1437378
1601393941066,1449,-0.66137695,0.2909546,0.25360107
1601393941066,1450,-0.5588379,0.25946045,0.2765503
1601393941068,1451,-1.3317871,0.50286865,0.20452881
1601393941071,1452,-1.0187988,0.41644287,0.32562256
1601393941072,1453,-0.87280273,0.21990967,0.2518921
1601393941083,1454,-0.58618164,0.23382568,0.26531982
1601393941083,1455,-1.3171387,0.31365967,0.18719482
1601393941083,1456,-0.98999023,0.39642334,0.32635498
1601393941083,1457,-1.3171387,0.31365967,0.18719482
1601393941084,1458,-0.87280273,0.21990967,0.2518921
1601393941084,1459,-1.4807129,0.42547607,0.1437378
1601393941084,1460,-1.3317871,0.50286865,0.20452881
1601393941084,1461,-1.3171387,0.31365967,0.18719482
1601393941084,1462,-1.4807129,0.42547607,0.1437378
1601393941095,1463,-1.3317871,0.50286865,0.20452881
1601393941096,1464,-1.4807129,0.42547607,0.1437378
1601393941096,1465,-1.0187988,0.41644287,0.32562256
1601393941097,1466,-1.0187988,0.41644287,0.32562256
1601393941097,1467,-0.98999023,0.39642334,0.32635498
1601393941097,1468,-1.1254883,0.39520264,0.3361206
1601393941099,1469,-1.3317871,0.50286865,0.20452881
1601393941099,1470,-1.1254883,0.39520264,0.3361206
1601393941101,1471,-0.94555664,0.37469482,0.2843628
1601393941103,1472,-0.98999023,0.39642334,0.32635498
1601393941106,1473,-0.87890625,0.36541748,0.2255249
1601393941106,1474,-0.94555664,0.37469482,0.2843628
1601393941107,1475,-0.80493164,0.1473999,0.1395874
1601393941107,1476,-1.0187988,0.41644287,0.32562256
1601393941107,1477,-0.6879883,0.22503662,0.0138549805
1601393941107,1478,-1.1254883,0.39520264,0.3361206
1601393941110,1479,-0.87890625,0.36541748,0.2255249
1601393941110,1480,-0.98999023,0.39642334,0.32635498
1601393941111,1481,-0.59814453,0.3348999,0.11151123
1601393941111,1482,-0.94555664,0.37469482,0.2843628
1601393941113,1483,-0.80493164,0.1473999,0.1395874
1601393941125,1484,-1.328125,0.4159546,0.27020264
1601393941125,1485,-0.6879883,0.22503662,0.0138549805
1601393941125,1486,-1.5136719,0.24432373,0.46136475
1601393941125,1487,-0.87890625,0.36541748,0.2255249
1601393941126,1488,-1.1254883,0.39520264,0.3361206
1601393941126,1489,-0.59814453,0.3348999,0.11151123
1601393941126,1490,-0.94555664,0.37469482,0.2843628
1601393941126,1491,-0.87890625,0.36541748,0.2255249
1601393941126,1492,-0.80493164,0.1473999,0.1395874
1601393941127,1493,-1.328125,0.4159546,0.27020264
1601393941131,1494,-0.80493164,0.1473999,0.1395874
1601393941131,1495,-1.0488281,0.045837402,0.43499756
1601393941131,1496,-0.6879883,0.22503662,0.0138549805
1601393941133,1497,-0.6879883,0.22503662,0.0138549805
1601393941136,1498,-0.56274414,0.18182373,0.4393921
1601393941136,1499,-0.59814453,0.3348999,0.11151123
1601393941136,1500,-0.74316406,0.33050537,0.36297607
1601393941137,1501,-1.5136719,0.24432373,0.46136475
1601393941138,1502,-1.328125,0.4159546,0.27020264
1601393941139,1503,-0.98828125,0.28826904,0.309021
1601393941141,1504,-0.94189453,0.27166748,0.24432373
1601393941142,1505,-1.0488281,0.045837402,0.43499756
1601393941144,1506,-1.5136719,0.24432373,0.46136475
1601393941146,1507,-1.0488281,0.045837402,0.43499756
1601393941167,1508,-0.56274414,0.18182373,0.4393921
1601393941167,1509,-0.56274414,0.18182373,0.4393921
1601393941168,1510,-0.84277344,0.2531128,0.20697021
1601393941168,1511,-0.59814453,0.3348999,0.11151123
1601393941168,1512,-0.74316406,0.33050537,0.36297607
1601393941168,1513,-0.98828125,0.28826904,0.309021
1601393941168,1514,-1.328125,0.4159546,0.27020264
1601393941168,1515,-1.5136719,0.24432373,0.46136475
1601393941169,1516,-0.6899414,0.22918701,0.19769287
1601393941169,1517,-0.6398926,0.2321167,0.21038818
1601393941171,1518,-1.0488281,0.045837402,0.43499756
1601393941173,1519,-0.56274414,0.18182373,0.4393921
1601393941175,1520,-0.94189453,0.27166748,0.24432373
1601393941176,1521,-0.74316406,0.33050537,0.36297607
1601393941177,1522,-0.84277344,0.2531128,0.20697021
1601393941187,1523,-0.98828125,0.28826904,0.309021
1601393941188,1524,-0.6899414,0.22918701,0.19769287
1601393941188,1525,-0.94189453,0.27166748,0.24432373
1601393941188,1526,-0.84277344,0.2531128,0.20697021
1601393941189,1527,-0.74316406,0.33050537,0.36297607
1601393941190,1528,-0.6398926,0.2321167,0.21038818
1601393941192,1529,-0.6899414,0.22918701,0.19769287
1601393941198,1530,-0.98828125,0.28826904,0.309021
1601393941198,1531,-0.6398926,0.2321167,0.21038818
1601393941201,1532,-0.94189453,0.27166748,0.24432373
1601393941203,1533,-0.84277344,0.2531128,0.20697021
1601393941205,1534,-0.6899414,0.22918701,0.19769287
1601393941206,1535,-0.6398926,0.2321167,0.21038818
1601393943274,1536,-1.1958008,0.36444092,0.29071045
1601393943283,1537,-1.1958008,0.36444092,0.29071045
1601393943283,1538,-1.1958008,0.36444092,0.29071045
1601393943284,1539,-1.1958008,0.36444092,0.29071045
1601393943285,1540,-1.503418,0.418396,0.2218628
1601393943287,1541,-1.503418,0.418396,0.2218628
1601393943291,1542,-1.503418,0.418396,0.2218628
1601393943292,1543,-1.439209,0.5441284,0.11590576
1601393943294,1544,-1.503418,0.418396,0.2218628
1601393943298,1545,-1.439209,0.5441284,0.11590576
1601393943300,1546,-1.439209,0.5441284,0.11590576
1601393943327,1547,-0.92333984,0.56903076,0.12762451
1601393943328,1548,-1.439209,0.5441284,0.11590576
1601393943328,1549,-0.92333984,0.56903076,0.12762451
1601393943331,1550,-0.92333984,0.56903076,0.12762451
1601393943331,1551,-0.8227539,0.42913818,0.11663818
1601393943331,1552,-0.8227539,0.42913818,0.11663818
