# Sensor position: Wrist
# Sensor side: Left
# Activity type: Climbing stairs
# Activity code: 12
# Subject id: s1746788
timestamp,seq,accel_x,accel_y,accel_z
1601393868382,0,0.34350586,0.8661499,0.053649902
1601393868414,1,0.34350586,0.8661499,0.053649902
1601393868414,2,0.34350586,0.8661499,0.053649902
1601393868415,3,0.34350586,0.8661499,0.053649902
1601393868420,4,0.35473633,0.86517334,0.04144287
1601393868421,5,0.35473633,0.86517334,0.04144287
1601393868422,6,0.35473633,0.86517334,0.04144287
1601393868424,7,0.3486328,0.87615967,0.058532715
1601393868425,8,0.3486328,0.87615967,0.058532715
1601393868425,9,0.33081055,0.88739014,0.06048584
1601393868425,10,0.3486328,0.87615967,0.058532715
1601393868425,11,0.33081055,0.88739014,0.06048584
1601393868425,12,0.33081055,0.88739014,0.06048584
1601393868426,13,0.33007812,0.8656616,0.055603027
1601393868426,14,0.35473633,0.86517334,0.04144287
1601393868426,15,0.33496094,0.8710327,0.055358887
1601393868426,16,0.3486328,0.87615967,0.058532715
1601393868426,17,0.33007812,0.8656616,0.055603027
1601393868426,18,0.33862305,0.8781128,0.051696777
1601393868426,19,0.33081055,0.88739014,0.06048584
1601393868426,20,0.33496094,0.8710327,0.055358887
1601393868427,21,0.33862305,0.8781128,0.051696777
1601393868427,22,0.33007812,0.8656616,0.055603027
1601393868434,23,0.33544922,0.8673706,0.06512451
1601393868434,24,0.33496094,0.8619995,0.066833496
1601393868495,25,0.33496094,0.8710327,0.055358887
1601393868497,26,0.33007812,0.8656616,0.055603027
1601393868497,27,0.33496094,0.8710327,0.055358887
1601393868498,28,0.33862305,0.8781128,0.051696777
1601393868498,29,0.33374023,0.86932373,0.06561279
1601393868499,30,0.33569336,0.86468506,0.059265137
1601393868500,31,0.33544922,0.8673706,0.06512451
1601393868500,32,0.33862305,0.8781128,0.051696777
1601393868501,33,0.33496094,0.8619995,0.066833496
1601393868501,34,0.34277344,0.86932373,0.07952881
1601393868502,35,0.33544922,0.8673706,0.06512451
1601393868514,36,0.33544922,0.8673706,0.06512451
1601393868516,37,0.33374023,0.86932373,0.06561279
1601393868517,38,0.3425293,0.87420654,0.08050537
1601393868517,39,0.33569336,0.86468506,0.059265137
1601393868517,40,0.33496094,0.8619995,0.066833496
1601393868517,41,0.33496094,0.8619995,0.066833496
1601393868517,42,0.34277344,0.86932373,0.07952881
1601393868517,43,0.33544922,0.88275146,0.08270264
1601393868517,44,0.33374023,0.86932373,0.06561279
1601393868517,45,0.3425293,0.87420654,0.08050537
1601393868517,46,0.33374023,0.86932373,0.06561279
1601393868518,47,0.33374023,0.88323975,0.077819824
1601393868518,48,0.33544922,0.88275146,0.08270264
1601393868518,49,0.33569336,0.86468506,0.059265137
1601393868518,50,0.3269043,0.8685913,0.07171631
1601393868526,51,0.33569336,0.86468506,0.059265137
1601393868526,52,0.34277344,0.86932373,0.07952881
1601393868527,53,0.34277344,0.86932373,0.07952881
1601393868531,54,0.3083496,0.8485718,0.081726074
1601393868544,55,0.3425293,0.87420654,0.08050537
1601393868545,56,0.3425293,0.87420654,0.08050537
1601393868546,57,0.33374023,0.88323975,0.077819824
1601393868547,58,0.3269043,0.8685913,0.07171631
1601393868547,59,0.3083496,0.8485718,0.081726074
1601393868547,60,0.33544922,0.88275146,0.08270264
1601393868548,61,0.33544922,0.88275146,0.08270264
1601393868548,62,0.32421875,0.86712646,0.09051514
1601393868548,63,0.32421875,0.86712646,0.09051514
1601393868548,64,0.33374023,0.88323975,0.077819824
1601393868549,65,0.31811523,0.88494873,0.09539795
1601393868549,66,0.31811523,0.88494873,0.09539795
1601393868549,67,0.33374023,0.88323975,0.077819824
1601393868549,68,0.3269043,0.8685913,0.07171631
1601393868549,69,0.3083496,0.8485718,0.081726074
1601393868549,70,0.31835938,0.8883667,0.10784912
1601393868550,71,0.31835938,0.8883667,0.10784912
1601393868552,72,0.32641602,0.89520264,0.10882568
1601393868560,73,0.31054688,0.86151123,0.08319092
1601393868561,74,0.32641602,0.89520264,0.10882568
1601393868561,75,0.3269043,0.8685913,0.07171631
1601393868561,76,0.32421875,0.86712646,0.09051514
1601393868562,77,0.31640625,0.8864136,0.08905029
1601393868566,78,0.3083496,0.8485718,0.081726074
1601393868567,79,0.31811523,0.88494873,0.09539795
1601393868568,80,0.3244629,0.8554077,0.078063965
1601393868568,81,0.31054688,0.86151123,0.08319092
1601393868569,82,0.32421875,0.86712646,0.09051514
1601393868571,83,0.30737305,0.87249756,0.10638428
1601393868589,84,0.31640625,0.8864136,0.08905029
1601393868591,85,0.3149414,0.8751831,0.13250732
1601393868591,86,0.29614258,0.8734741,0.11566162
1601393868591,87,0.31835938,0.8883667,0.10784912
1601393868591,88,0.27734375,0.85198975,0.10491943
1601393868591,89,0.3244629,0.8554077,0.078063965
1601393868591,90,0.30737305,0.87249756,0.10638428
1601393868591,91,0.31811523,0.88494873,0.09539795
1601393868592,92,0.32641602,0.89520264,0.10882568
1601393868593,93,0.31054688,0.86151123,0.08319092
1601393868596,94,0.3149414,0.8751831,0.13250732
1601393868599,95,0.31640625,0.8864136,0.08905029
1601393868600,96,0.3244629,0.8554077,0.078063965
1601393868600,97,0.31835938,0.8883667,0.10784912
1601393868601,98,0.29614258,0.8734741,0.11566162
1601393868601,99,0.32641602,0.89520264,0.10882568
1601393868603,100,0.29370117,0.87371826,0.08123779
1601393868605,101,0.31054688,0.86151123,0.08319092
1601393868606,102,0.27734375,0.85198975,0.10491943
1601393868606,103,0.31640625,0.8864136,0.08905029
1601393868606,104,0.32250977,0.8595581,0.08148193
1601393868608,105,0.30737305,0.87249756,0.10638428
1601393868613,106,0.3244629,0.8554077,0.078063965
1601393868614,107,0.29370117,0.87371826,0.08123779
1601393868616,108,0.30932617,0.9064331,0.26434326
1601393868616,109,0.30737305,0.87249756,0.10638428
1601393868619,110,0.3149414,0.8751831,0.13250732
1601393868620,111,0.29614258,0.8734741,0.11566162
1601393868624,112,0.32543945,0.637146,0.20794678
1601393868624,113,0.32250977,0.8595581,0.08148193
1601393868625,114,0.27734375,0.85198975,0.10491943
1601393868632,115,0.3149414,0.8751831,0.13250732
1601393868633,116,0.29370117,0.87371826,0.08123779
1601393868634,117,0.30932617,0.9064331,0.26434326
1601393868634,118,0.32250977,0.8595581,0.08148193
1601393868634,119,0.32543945,0.637146,0.20794678
1601393868640,120,0.29614258,0.8734741,0.11566162
1601393868640,121,0.30932617,0.9064331,0.26434326
1601393868643,122,0.32543945,0.637146,0.20794678
1601393868643,123,0.27734375,0.85198975,0.10491943
1601393868643,124,0.29370117,0.87371826,0.08123779
1601393868644,125,0.32250977,0.8595581,0.08148193
1601393868646,126,0.30932617,0.9064331,0.26434326
1601393868647,127,0.32543945,0.637146,0.20794678
1601393870986,128,0.28710938,0.7015991,0.17596436
1601393870992,129,0.17871094,0.75531006,0.21234131
1601393870994,130,0.28710938,0.7015991,0.17596436
1601393870995,131,0.025390625,0.76727295,0.40350342
1601393870996,132,0.28710938,0.7015991,0.17596436
1601393870997,133,-0.111083984,0.7653198,0.47406006
1601393870997,134,0.17871094,0.75531006,0.21234131
1601393871000,135,0.17871094,0.75531006,0.21234131
1601393871007,136,-0.27319336,0.66693115,0.44769287
1601393871008,137,0.025390625,0.76727295,0.40350342
1601393871015,138,0.025390625,0.76727295,0.40350342
1601393871015,139,0.28710938,0.7015991,0.17596436
1601393871015,140,-0.56103516,0.5543823,0.38128662
1601393871016,141,-1.2456055,0.3456421,0.3270874
1601393871016,142,-1.8544922,0.46136475,0.109802246
1601393871016,143,0.17871094,0.75531006,0.21234131
1601393871017,144,-0.111083984,0.7653198,0.47406006
1601393871017,145,-1.6936035,0.51312256,0.1005249
1601393871017,146,-0.111083984,0.7653198,0.47406006
1601393871025,147,0.025390625,0.76727295,0.40350342
1601393871026,148,-0.27319336,0.66693115,0.44769287
1601393871026,149,-0.27319336,0.66693115,0.44769287
1601393871027,150,-1.078125,0.34222412,0.18182373
1601393871036,151,-0.56103516,0.5543823,0.38128662
1601393871037,152,-0.111083984,0.7653198,0.47406006
1601393871038,153,-0.56103516,0.5543823,0.38128662
1601393871039,154,-0.91625977,0.27630615,0.13153076
1601393871041,155,-1.2456055,0.3456421,0.3270874
1601393871048,156,-0.27319336,0.66693115,0.44769287
1601393871048,157,-0.6218262,0.2855835,0.22357178
1601393871048,158,-1.8544922,0.46136475,0.109802246
1601393871053,159,-1.2456055,0.3456421,0.3270874
1601393871053,160,-1.6936035,0.51312256,0.1005249
1601393871053,161,-0.48706055,0.3060913,0.30218506
1601393871053,162,-1.8544922,0.46136475,0.109802246
1601393871062,163,-0.80908203,0.37738037,0.3378296
1601393871063,164,-1.078125,0.34222412,0.18182373
1601393871063,165,-0.56103516,0.5543823,0.38128662
1601393871063,166,-0.91625977,0.27630615,0.13153076
1601393871063,167,-1.2456055,0.3456421,0.3270874
1601393871063,168,-0.6218262,0.2855835,0.22357178
1601393871064,169,-1.6936035,0.51312256,0.1005249
1601393871064,170,-1.8544922,0.46136475,0.109802246
1601393871064,171,-1.078125,0.34222412,0.18182373
1601393871070,172,-0.48706055,0.3060913,0.30218506
1601393871070,173,-1.6936035,0.51312256,0.1005249
1601393871070,174,-1.0397949,0.34246826,0.4142456
1601393871070,175,-0.91625977,0.27630615,0.13153076
1601393871070,176,-0.80908203,0.37738037,0.3378296
1601393871070,177,-0.6218262,0.2855835,0.22357178
1601393871074,178,-1.0397949,0.34246826,0.4142456
1601393871074,179,-1.078125,0.34222412,0.18182373
1601393871075,180,-1.25,0.61151123,0.4730835
1601393871075,181,-0.48706055,0.3060913,0.30218506
1601393871075,182,-1.25,0.61151123,0.4730835
1601393871078,183,-1.222168,0.4093628,0.24310303
1601393871079,184,-0.80908203,0.37738037,0.3378296
1601393871079,185,-1.0559082,0.42791748,0.18304443
1601393871079,186,-0.91625977,0.27630615,0.13153076
1601393871081,187,-1.222168,0.4093628,0.24310303
1601393871083,188,-0.6928711,0.33050537,0.089782715
1601393871086,189,-1.0397949,0.34246826,0.4142456
1601393871087,190,-0.6218262,0.2855835,0.22357178
1601393871092,191,-1.25,0.61151123,0.4730835
1601393871093,192,-1.0559082,0.42791748,0.18304443
1601393871093,193,-0.8046875,0.27996826,0.09710693
1601393871093,194,-0.48706055,0.3060913,0.30218506
1601393871093,195,-1.3498535,0.113708496,0.014831543
1601393871093,196,-0.6928711,0.33050537,0.089782715
1601393871098,197,-1.222168,0.4093628,0.24310303
1601393871099,198,-0.80908203,0.37738037,0.3378296
1601393871100,199,-1.4753418,0.066833496,9.1552734E-4
1601393871100,200,-0.8046875,0.27996826,0.09710693
1601393871102,201,-1.0559082,0.42791748,0.18304443
1601393871103,202,-1.0397949,0.34246826,0.4142456
1601393871105,203,-1.3498535,0.113708496,0.014831543
1601393871107,204,-1.4753418,0.066833496,9.1552734E-4
1601393871112,205,-1.25,0.61151123,0.4730835
1601393871120,206,-1.222168,0.4093628,0.24310303
1601393871121,207,-1.2443848,0.19281006,0.1473999
1601393871121,208,-1.2443848,0.19281006,0.1473999
1601393871122,209,-1.0559082,0.42791748,0.18304443
1601393871133,210,-0.6928711,0.33050537,0.089782715
1601393871134,211,-0.6928711,0.33050537,0.089782715
1601393871134,212,-1.0627441,0.3480835,0.23626709
1601393871136,213,-1.0627441,0.3480835,0.23626709
1601393871137,214,-0.8046875,0.27996826,0.09710693
1601393871147,215,-1.3498535,0.113708496,0.014831543
1601393871148,216,-0.8701172,0.3475952,0.36346436
1601393871148,217,-1.4753418,0.066833496,9.1552734E-4
1601393871149,218,-1.2443848,0.19281006,0.1473999
1601393871149,219,-0.52246094,0.4406128,0.4647827
1601393871149,220,-0.8046875,0.27996826,0.09710693
1601393871149,221,-1.0627441,0.3480835,0.23626709
1601393871157,222,-0.8701172,0.3475952,0.36346436
1601393871157,223,-0.7805176,0.3529663,0.49676514
1601393871158,224,-1.3498535,0.113708496,0.014831543
1601393871158,225,-1.0976562,0.34857178,0.4874878
1601393871158,226,-0.52246094,0.4406128,0.4647827
1601393871164,227,-1.4753418,0.066833496,9.1552734E-4
1601393871168,228,-0.7805176,0.3529663,0.49676514
1601393871168,229,-0.8701172,0.3475952,0.36346436
1601393871168,230,-1.40625,0.44451904,0.44158936
1601393871172,231,-1.2443848,0.19281006,0.1473999
1601393871172,232,-0.52246094,0.4406128,0.4647827
1601393871172,233,-1.0976562,0.34857178,0.4874878
1601393871173,234,-0.7805176,0.3529663,0.49676514
1601393871175,235,-1.5385742,0.47943115,0.21209717
1601393871184,236,-1.0976562,0.34857178,0.4874878
1601393871185,237,-1.0627441,0.3480835,0.23626709
1601393871185,238,-1.2595215,0.2526245,0.16473389
1601393871185,239,-0.8701172,0.3475952,0.36346436
1601393871185,240,-0.8762207,0.21624756,0.12445068
1601393871185,241,-1.40625,0.44451904,0.44158936
1601393871186,242,-0.52246094,0.4406128,0.4647827
1601393871186,243,-1.40625,0.44451904,0.44158936
1601393871191,244,-1.5385742,0.47943115,0.21209717
1601393871192,245,-0.7805176,0.3529663,0.49676514
1601393871192,246,-1.5385742,0.47943115,0.21209717
1601393871192,247,-1.2595215,0.2526245,0.16473389
1601393871193,248,-1.0976562,0.34857178,0.4874878
1601393871194,249,-1.2595215,0.2526245,0.16473389
1601393871194,250,-0.8762207,0.21624756,0.12445068
1601393871200,251,-1.40625,0.44451904,0.44158936
1601393871200,252,-0.8762207,0.21624756,0.12445068
1601393871200,253,-1.5385742,0.47943115,0.21209717
1601393871203,254,-1.2595215,0.2526245,0.16473389
1601393871204,255,-0.8762207,0.21624756,0.12445068
1601393873467,256,-0.97314453,0.18988037,0.16400146
1601393873469,257,-0.97314453,0.18988037,0.16400146
1601393873471,258,-0.97314453,0.18988037,0.16400146
1601393873489,259,-1.4519043,0.13519287,0.33929443
1601393873490,260,-1.4519043,0.13519287,0.33929443
1601393873492,261,-0.97314453,0.18988037,0.16400146
1601393873492,262,-1.4519043,0.13519287,0.33929443
1601393873492,263,-1.293457,0.09173584,0.3114624
1601393873492,264,-1.4519043,0.13519287,0.33929443
1601393873493,265,-0.65966797,0.10784912,0.38641357
1601393873494,266,-1.293457,0.09173584,0.3114624
1601393873495,267,-1.293457,0.09173584,0.3114624
1601393873496,268,-0.65966797,0.10784912,0.38641357
1601393873496,269,-0.38183594,0.124694824,0.385437
1601393873497,270,-0.65966797,0.10784912,0.38641357
1601393873498,271,-1.293457,0.09173584,0.3114624
1601393873499,272,-0.38183594,0.124694824,0.385437
1601393873506,273,-0.3647461,0.29656982,0.4376831
1601393873507,274,-0.38183594,0.124694824,0.385437
1601393873508,275,-0.65966797,0.10784912,0.38641357
1601393873508,276,-0.3647461,0.29656982,0.4376831
1601393873509,277,-0.38183594,0.124694824,0.385437
1601393873510,278,-0.7727051,0.43988037,0.44525146
1601393873511,279,-0.3647461,0.29656982,0.4376831
1601393873514,280,-0.7727051,0.43988037,0.44525146
1601393873518,281,-0.7470703,0.6703491,0.49090576
1601393873519,282,-0.7727051,0.43988037,0.44525146
1601393873521,283,-0.7470703,0.6703491,0.49090576
1601393873521,284,-0.3647461,0.29656982,0.4376831
1601393873524,285,-0.7727051,0.43988037,0.44525146
1601393873542,286,-0.7470703,0.6703491,0.49090576
1601393873543,287,-0.57958984,0.8007202,0.5932007
1601393873545,288,-0.57958984,0.8007202,0.5932007
1601393873546,289,-0.7470703,0.6703491,0.49090576
1601393873547,290,-0.32470703,0.91522217,0.68548584
1601393873550,291,-0.57958984,0.8007202,0.5932007
1601393873550,292,-0.32470703,0.91522217,0.68548584
1601393873550,293,-0.32470703,0.91522217,0.68548584
1601393873551,294,-0.21166992,0.73358154,0.62176514
1601393873551,295,-0.21166992,0.73358154,0.62176514
1601393873551,296,-0.57958984,0.8007202,0.5932007
1601393873552,297,-0.21166992,0.73358154,0.62176514
1601393873552,298,-0.24853516,0.48553467,0.43865967
1601393873552,299,-0.8293457,0.6935425,0.17816162
1601393873552,300,-0.24853516,0.48553467,0.43865967
1601393873553,301,-0.24853516,0.48553467,0.43865967
1601393873554,302,-0.8293457,0.6935425,0.17816162
1601393873559,303,-0.32470703,0.91522217,0.68548584
1601393873559,304,-1.2116699,0.96624756,0.25994873
1601393873559,305,-0.8293457,0.6935425,0.17816162
1601393873560,306,-1.2116699,0.96624756,0.25994873
1601393873562,307,-0.21166992,0.73358154,0.62176514
1601393873563,308,-0.24853516,0.48553467,0.43865967
1601393873569,309,-0.89282227,0.9760132,0.31854248
1601393873570,310,-1.2116699,0.96624756,0.25994873
1601393873570,311,-0.89282227,0.9760132,0.31854248
1601393873571,312,-0.8293457,0.6935425,0.17816162
1601393873572,313,-0.5185547,0.70599365,0.37127686
1601393873573,314,-1.2116699,0.96624756,0.25994873
1601393873573,315,-0.89282227,0.9760132,0.31854248
1601393873581,316,-0.5185547,0.70599365,0.37127686
1601393873582,317,-0.20581055,0.48651123,0.35076904
1601393873582,318,-0.5185547,0.70599365,0.37127686
1601393873583,319,-0.89282227,0.9760132,0.31854248
1601393873583,320,-0.14501953,0.4430542,0.31707764
1601393873583,321,-0.5185547,0.70599365,0.37127686
1601393873584,322,-0.20581055,0.48651123,0.35076904
1601393873584,323,-0.20581055,0.48651123,0.35076904
1601393873585,324,-0.20581055,0.48651123,0.35076904
1601393873587,325,-0.14501953,0.4430542,0.31707764
1601393873590,326,-0.18334961,0.59954834,0.47161865
1601393873590,327,-0.18334961,0.59954834,0.47161865
1601393873591,328,-0.21948242,0.7218628,0.58026123
1601393873593,329,-0.14501953,0.4430542,0.31707764
1601393873597,330,-0.18334961,0.59954834,0.47161865
1601393873597,331,-0.14501953,0.4430542,0.31707764
1601393873598,332,-0.21948242,0.7218628,0.58026123
1601393873598,333,-0.21948242,0.7218628,0.58026123
1601393873598,334,-0.18334961,0.59954834,0.47161865
1601393873601,335,-0.24707031,0.9515991,0.62420654
1601393873601,336,-0.24707031,0.9515991,0.62420654
1601393873601,337,-0.21948242,0.7218628,0.58026123
1601393873602,338,-0.24707031,0.9515991,0.62420654
1601393873606,339,-0.46264648,0.9862671,0.54315186
1601393873607,340,-0.24707031,0.9515991,0.62420654
1601393873607,341,-0.46264648,0.9862671,0.54315186
1601393873607,342,-0.5588379,0.80462646,0.47528076
1601393873607,343,-0.46264648,0.9862671,0.54315186
1601393873618,344,-0.5588379,0.80462646,0.47528076
1601393873619,345,-0.5649414,0.5314331,0.3866577
1601393873619,346,-0.5588379,0.80462646,0.47528076
1601393873620,347,-0.46264648,0.9862671,0.54315186
1601393873620,348,-0.49853516,0.3300171,0.2909546
1601393873621,349,-0.5649414,0.5314331,0.3866577
1601393873621,350,-0.5649414,0.5314331,0.3866577
1601393873622,351,-0.49853516,0.3300171,0.2909546
1601393873623,352,-0.5588379,0.80462646,0.47528076
1601393873623,353,-0.5966797,0.32269287,0.29388428
1601393873624,354,-0.5966797,0.32269287,0.29388428
1601393873625,355,-1.0446777,0.25701904,0.35760498
1601393873626,356,-0.49853516,0.3300171,0.2909546
1601393873626,357,-1.0446777,0.25701904,0.35760498
1601393873627,358,-0.5649414,0.5314331,0.3866577
1601393873627,359,-1.6501465,0.27825928,0.27874756
1601393873633,360,-0.5966797,0.32269287,0.29388428
1601393873633,361,-1.6501465,0.27825928,0.27874756
1601393873633,362,-0.49853516,0.3300171,0.2909546
1601393873633,363,-1.6403809,0.45062256,0.1708374
1601393873634,364,-0.5966797,0.32269287,0.29388428
1601393873637,365,-1.0446777,0.25701904,0.35760498
1601393873637,366,-1.1450195,0.4611206,0.20452881
1601393873637,367,-1.6403809,0.45062256,0.1708374
1601393873638,368,-1.0446777,0.25701904,0.35760498
1601393873639,369,-1.6501465,0.27825928,0.27874756
1601393873644,370,-1.6501465,0.27825928,0.27874756
1601393873645,371,-0.85546875,0.23724365,0.18572998
1601393873645,372,-1.6403809,0.45062256,0.1708374
1601393873645,373,-1.1450195,0.4611206,0.20452881
1601393873649,374,-0.5266113,0.34490967,0.25091553
1601393873649,375,-1.6403809,0.45062256,0.1708374
1601393873649,376,-1.1450195,0.4611206,0.20452881
1601393873649,377,-0.85546875,0.23724365,0.18572998
1601393873653,378,-1.1450195,0.4611206,0.20452881
1601393873655,379,-0.85546875,0.23724365,0.18572998
1601393873657,380,-0.5266113,0.34490967,0.25091553
1601393873661,381,-0.85546875,0.23724365,0.18572998
1601393873661,382,-0.5266113,0.34490967,0.25091553
1601393873662,383,-0.5266113,0.34490967,0.25091553
1601393875872,384,-0.5305176,0.32781982,0.29779053
1601393875873,385,-0.5305176,0.32781982,0.29779053
1601393875881,386,-0.7675781,0.32659912,0.3661499
1601393875882,387,-0.9863281,0.3270874,0.41326904
1601393875882,388,-0.5305176,0.32781982,0.29779053
1601393875883,389,-0.5305176,0.32781982,0.29779053
1601393875886,390,-0.7675781,0.32659912,0.3661499
1601393875888,391,-0.9863281,0.3270874,0.41326904
1601393875890,392,-1.3352051,0.34881592,0.37908936
1601393875892,393,-1.2424316,0.4923706,0.39178467
1601393875897,394,-1.0952148,0.19793701,0.15496826
1601393875897,395,-0.7675781,0.32659912,0.3661499
1601393875898,396,-1.3352051,0.34881592,0.37908936
1601393875899,397,-0.7675781,0.32659912,0.3661499
1601393875904,398,-1.2424316,0.4923706,0.39178467
1601393875905,399,-1.1220703,0.09197998,0.022399902
1601393875906,400,-0.9863281,0.3270874,0.41326904
1601393875907,401,-0.94555664,-0.02935791,-0.0869751
1601393875918,402,-0.9863281,0.3270874,0.41326904
1601393875919,403,-1.3352051,0.34881592,0.37908936
1601393875920,404,-1.0952148,0.19793701,0.15496826
1601393875921,405,-1.1315918,0.14715576,-0.18560791
1601393875921,406,-1.3352051,0.34881592,0.37908936
1601393875923,407,-1.2424316,0.4923706,0.39178467
1601393875924,408,-1.3803711,0.08807373,-0.3508911
1601393875924,409,-1.1220703,0.09197998,0.022399902
1601393875925,410,-1.2424316,0.4923706,0.39178467
1601393875926,411,-1.0952148,0.19793701,0.15496826
1601393875929,412,-1.5444336,-0.02545166,-0.117248535
1601393875938,413,-1.0952148,0.19793701,0.15496826
1601393875942,414,-1.1220703,0.09197998,0.022399902
1601393875942,415,-0.94555664,-0.02935791,-0.0869751
1601393875943,416,-1.2832031,0.13568115,0.30804443
1601393875943,417,-1.1315918,0.14715576,-0.18560791
1601393875943,418,-1.1220703,0.09197998,0.022399902
1601393875943,419,-0.94555664,-0.02935791,-0.0869751
1601393875945,420,-0.83740234,0.1359253,0.47650146
1601393875954,421,-1.3803711,0.08807373,-0.3508911
1601393875954,422,-0.94555664,-0.02935791,-0.0869751
1601393875957,423,-1.5444336,-0.02545166,-0.117248535
1601393875958,424,-1.1315918,0.14715576,-0.18560791
1601393875960,425,-1.2832031,0.13568115,0.30804443
1601393875970,426,-1.1315918,0.14715576,-0.18560791
1601393875972,427,-0.83740234,0.1359253,0.47650146
1601393875977,428,-0.34399414,0.33172607,0.48529053
1601393875978,429,-1.3803711,0.08807373,-0.3508911
1601393875980,430,-0.34399414,0.33172607,0.48529053
1601393875981,431,-0.09692383,0.56073,0.43914795
1601393875988,432,-0.3515625,0.7770386,0.41253662
1601393875989,433,-1.3803711,0.08807373,-0.3508911
1601393875989,434,-0.09692383,0.56073,0.43914795
1601393875990,435,-1.5444336,-0.02545166,-0.117248535
1601393875991,436,-1.2832031,0.13568115,0.30804443
1601393876002,437,-1.5444336,-0.02545166,-0.117248535
1601393876005,438,-0.83740234,0.1359253,0.47650146
1601393876010,439,-0.6965332,0.9332886,0.40374756
1601393876011,440,-1.2832031,0.13568115,0.30804443
1601393876012,441,-0.3515625,0.7770386,0.41253662
1601393876013,442,-0.34399414,0.33172607,0.48529053
1601393876014,443,-0.83740234,0.1359253,0.47650146
1601393876020,444,-1.1140137,0.91693115,0.3414917
1601393876020,445,-0.6965332,0.9332886,0.40374756
1601393876020,446,-0.09692383,0.56073,0.43914795
1601393876020,447,-0.34399414,0.33172607,0.48529053
1601393876022,448,-1.1984863,0.65496826,0.23675537
1601393876024,449,-0.3515625,0.7770386,0.41253662
1601393876025,450,-0.09692383,0.56073,0.43914795
1601393876025,451,-1.1140137,0.91693115,0.3414917
1601393876031,452,-0.3515625,0.7770386,0.41253662
1601393876032,453,-1.1984863,0.65496826,0.23675537
1601393876032,454,-0.9267578,0.35443115,0.16326904
1601393876032,455,-0.6965332,0.9332886,0.40374756
1601393876032,456,-1.0805664,0.035827637,0.04901123
1601393876032,457,-0.6965332,0.9332886,0.40374756
1601393876038,458,-1.6755371,-0.07867432,-0.070373535
1601393876039,459,-1.1140137,0.91693115,0.3414917
1601393876039,460,-1.1140137,0.91693115,0.3414917
1601393876039,461,-0.9267578,0.35443115,0.16326904
1601393876040,462,-1.4121094,0.16741943,-0.073791504
1601393876042,463,-1.1984863,0.65496826,0.23675537
1601393876043,464,-1.1984863,0.65496826,0.23675537
1601393876043,465,-0.9523926,0.43084717,0.1461792
1601393876043,466,-1.0805664,0.035827637,0.04901123
1601393876045,467,-0.9267578,0.35443115,0.16326904
1601393876048,468,-0.67333984,0.51556396,0.33831787
1601393876049,469,-1.6755371,-0.07867432,-0.070373535
1601393876049,470,-1.0805664,0.035827637,0.04901123
1601393876050,471,-0.9267578,0.35443115,0.16326904
1601393876055,472,-1.4121094,0.16741943,-0.073791504
1601393876056,473,-1.6755371,-0.07867432,-0.070373535
1601393876056,474,-0.23632812,0.6481323,0.4743042
1601393876056,475,-1.0805664,0.035827637,0.04901123
1601393876057,476,-0.9523926,0.43084717,0.1461792
1601393876057,477,-0.5878906,0.63397217,0.50775146
1601393876057,478,-1.4121094,0.16741943,-0.073791504
1601393876063,479,-0.75878906,0.684021,0.43695068
1601393876063,480,-0.67333984,0.51556396,0.33831787
1601393876063,481,-0.9523926,0.43084717,0.1461792
1601393876064,482,-1.6755371,-0.07867432,-0.070373535
1601393876065,483,-1.1137695,0.8161011,0.30218506
1601393876065,484,-0.23632812,0.6481323,0.4743042
1601393876065,485,-0.67333984,0.51556396,0.33831787
1601393876072,486,-0.5878906,0.63397217,0.50775146
1601393876072,487,-1.4121094,0.16741943,-0.073791504
1601393876072,488,-0.23632812,0.6481323,0.4743042
1601393876073,489,-1.3129883,0.88983154,0.21868896
1601393876073,490,-0.5878906,0.63397217,0.50775146
1601393876073,491,-0.75878906,0.684021,0.43695068
1601393876073,492,-0.9523926,0.43084717,0.1461792
1601393876085,493,-0.75878906,0.684021,0.43695068
1601393876085,494,-0.97631836,0.49334717,0.12762451
1601393876085,495,-1.1137695,0.8161011,0.30218506
1601393876086,496,-0.67333984,0.51556396,0.33831787
1601393876086,497,-1.3129883,0.88983154,0.21868896
1601393876086,498,-1.1137695,0.8161011,0.30218506
1601393876086,499,-0.73876953,0.25042725,0.07757568
1601393876086,500,-1.3129883,0.88983154,0.21868896
1601393876087,501,-0.23632812,0.6481323,0.4743042
1601393876087,502,-0.97631836,0.49334717,0.12762451
1601393876088,503,-0.97631836,0.49334717,0.12762451
1601393876088,504,-0.73876953,0.25042725,0.07757568
1601393876088,505,-0.73876953,0.25042725,0.07757568
1601393876088,506,-0.5878906,0.63397217,0.50775146
1601393876091,507,-0.75878906,0.684021,0.43695068
1601393876093,508,-1.1137695,0.8161011,0.30218506
1601393876094,509,-1.3129883,0.88983154,0.21868896
1601393876096,510,-0.97631836,0.49334717,0.12762451
1601393876098,511,-0.73876953,0.25042725,0.07757568
1601393878768,512,-1.0529785,0.29486084,0.050231934
1601393878768,513,-1.4177246,0.5790405,0.062194824
1601393878772,514,-1.0529785,0.29486084,0.050231934
1601393878774,515,-1.0915527,0.7206421,0.25531006
1601393878777,516,-1.0529785,0.29486084,0.050231934
1601393878780,517,-1.4177246,0.5790405,0.062194824
1601393878789,518,-1.0529785,0.29486084,0.050231934
1601393878791,519,-0.50805664,0.76776123,0.46136475
1601393878796,520,-1.4177246,0.5790405,0.062194824
1601393878801,521,-0.13549805,0.59173584,0.44818115
1601393878816,522,0.0029296875,0.59124756,0.42474365
1601393878817,523,-1.4177246,0.5790405,0.062194824
1601393878817,524,-1.0915527,0.7206421,0.25531006
1601393878818,525,-1.0915527,0.7206421,0.25531006
1601393878819,526,0.052246094,0.7626343,0.6522827
1601393878824,527,-1.0915527,0.7206421,0.25531006
1601393878830,528,-0.50805664,0.76776123,0.46136475
1601393878830,529,-0.13549805,0.59173584,0.44818115
1601393878830,530,-0.50805664,0.76776123,0.46136475
1601393878830,531,-0.01171875,0.7116089,0.6893921
1601393878831,532,-0.50805664,0.76776123,0.46136475
1601393878831,533,-0.17529297,0.729187,0.6239624
1601393878831,534,-0.13549805,0.59173584,0.44818115
1601393878833,535,0.0029296875,0.59124756,0.42474365
1601393878835,536,-0.13549805,0.59173584,0.44818115
1601393878837,537,-0.46875,0.8378296,0.50042725
1601393878844,538,0.0029296875,0.59124756,0.42474365
1601393878845,539,0.052246094,0.7626343,0.6522827
1601393878845,540,0.052246094,0.7626343,0.6522827
1601393878845,541,-0.6982422,0.633728,0.38275146
1601393878846,542,-0.01171875,0.7116089,0.6893921
1601393878846,543,-0.8215332,0.49725342,0.41278076
1601393878848,544,-0.6464844,0.41571045,0.35736084
1601393878852,545,-0.01171875,0.7116089,0.6893921
1601393878853,546,-0.17529297,0.729187,0.6239624
1601393878853,547,0.0029296875,0.59124756,0.42474365
1601393878853,548,-0.7648926,0.42010498,0.30145264
1601393878857,549,-0.46875,0.8378296,0.50042725
1601393878858,550,0.052246094,0.7626343,0.6522827
1601393878858,551,-1.1281738,0.4196167,0.2658081
1601393878859,552,-0.6982422,0.633728,0.38275146
1601393878864,553,-1.536377,0.602478,0.038513184
1601393878865,554,-0.01171875,0.7116089,0.6893921
1601393878865,555,-0.8215332,0.49725342,0.41278076
1601393878865,556,-0.17529297,0.729187,0.6239624
1601393878865,557,-0.6464844,0.41571045,0.35736084
1601393878866,558,-0.17529297,0.729187,0.6239624
1601393878881,559,-1.2744141,0.41644287,0.2765503
1601393878881,560,-0.46875,0.8378296,0.50042725
1601393878881,561,-0.46875,0.8378296,0.50042725
1601393878881,562,-0.7648926,0.42010498,0.30145264
1601393878883,563,-1.1281738,0.4196167,0.2658081
1601393878884,564,-0.8984375,0.6581421,0.37713623
1601393878885,565,-1.536377,0.602478,0.038513184
1601393878887,566,-0.6982422,0.633728,0.38275146
1601393878887,567,-1.2744141,0.41644287,0.2765503
1601393878887,568,-0.6982422,0.633728,0.38275146
1601393878895,569,-0.8215332,0.49725342,0.41278076
1601393878895,570,-0.8215332,0.49725342,0.41278076
1601393878897,571,-0.8984375,0.6581421,0.37713623
1601393878897,572,-0.62768555,0.69525146,0.5031128
1601393878898,573,-0.6464844,0.41571045,0.35736084
1601393878901,574,-0.30541992,0.59173584,0.39178467
1601393878901,575,-0.6464844,0.41571045,0.35736084
1601393878901,576,-0.7648926,0.42010498,0.30145264
1601393878901,577,-0.7648926,0.42010498,0.30145264
1601393878904,578,-0.037109375,0.38641357,0.3234253
1601393878904,579,-0.62768555,0.69525146,0.5031128
1601393878904,580,-0.053710938,0.3961792,0.43988037
1601393878912,581,-1.1281738,0.4196167,0.2658081
1601393878912,582,-0.25341797,0.4598999,0.5036011
1601393878912,583,-1.1281738,0.4196167,0.2658081
1601393878912,584,-0.30541992,0.59173584,0.39178467
1601393878912,585,-0.77368164,0.649353,0.46502686
1601393878912,586,-1.1982422,0.76361084,0.4874878
1601393878918,587,-1.536377,0.602478,0.038513184
1601393878918,588,-1.536377,0.602478,0.038513184
1601393878918,589,-1.1279297,0.63616943,0.44207764
1601393878924,590,-0.037109375,0.38641357,0.3234253
1601393878926,591,-1.2744141,0.41644287,0.2765503
1601393878927,592,-1.2744141,0.41644287,0.2765503
1601393878928,593,-1.239502,0.56414795,0.4208374
1601393878928,594,-0.8984375,0.6581421,0.37713623
1601393878928,595,-0.053710938,0.3961792,0.43988037
1601393878928,596,-0.8984375,0.6581421,0.37713623
1601393878931,597,-0.9641113,0.41693115,0.3619995
1601393878931,598,-0.62768555,0.69525146,0.5031128
1601393878936,599,-0.25341797,0.4598999,0.5036011
1601393878936,600,-0.8112793,0.24407959,0.2880249
1601393878937,601,-0.62768555,0.69525146,0.5031128
1601393878937,602,-0.30541992,0.59173584,0.39178467
1601393878937,603,-0.30541992,0.59173584,0.39178467
1601393878947,604,-0.77368164,0.649353,0.46502686
1601393878948,605,-0.6789551,0.23895264,0.1906128
1601393878948,606,-0.037109375,0.38641357,0.3234253
1601393878960,607,-1.1982422,0.76361084,0.4874878
1601393878960,608,-0.5358887,0.322937,0.15252686
1601393878960,609,-0.053710938,0.3961792,0.43988037
1601393878960,610,-0.037109375,0.38641357,0.3234253
1601393878960,611,-1.1279297,0.63616943,0.44207764
1601393878960,612,-0.25341797,0.4598999,0.5036011
1601393878960,613,-0.7980957,0.44378662,0.093688965
1601393878970,614,-1.239502,0.56414795,0.4208374
1601393878971,615,-0.77368164,0.649353,0.46502686
1601393878971,616,-0.053710938,0.3961792,0.43988037
1601393878971,617,-0.25341797,0.4598999,0.5036011
1601393878972,618,-1.1982422,0.76361084,0.4874878
1601393878972,619,-0.9641113,0.41693115,0.3619995
1601393878972,620,-0.77368164,0.649353,0.46502686
1601393878973,621,-0.8112793,0.24407959,0.2880249
1601393878979,622,-0.6789551,0.23895264,0.1906128
1601393878979,623,-1.1279297,0.63616943,0.44207764
1601393878980,624,-1.1982422,0.76361084,0.4874878
1601393878981,625,-0.5358887,0.322937,0.15252686
1601393878982,626,-1.239502,0.56414795,0.4208374
1601393878983,627,-0.7980957,0.44378662,0.093688965
1601393878985,628,-0.9641113,0.41693115,0.3619995
1601393878988,629,-0.8112793,0.24407959,0.2880249
1601393878993,630,-1.1279297,0.63616943,0.44207764
1601393878994,631,-0.6789551,0.23895264,0.1906128
1601393878994,632,-1.239502,0.56414795,0.4208374
1601393878995,633,-0.5358887,0.322937,0.15252686
1601393878995,634,-0.9641113,0.41693115,0.3619995
1601393878995,635,-0.8112793,0.24407959,0.2880249
1601393878995,636,-0.7980957,0.44378662,0.093688965
1601393878996,637,-0.6789551,0.23895264,0.1906128
1601393878999,638,-0.5358887,0.322937,0.15252686
1601393879001,639,-0.7980957,0.44378662,0.093688965
1601393881286,640,-1.1245117,0.5375366,0.09954834
1601393881299,641,-1.2565918,0.53948975,0.03338623
1601393881299,642,-1.1245117,0.5375366,0.09954834
1601393881299,643,-1.2565918,0.53948975,0.03338623
1601393881301,644,-1.1245117,0.5375366,0.09954834
1601393881303,645,-1.1245117,0.5375366,0.09954834
1601393881303,646,-1.2565918,0.53948975,0.03338623
1601393881329,647,-1.2565918,0.53948975,0.03338623
1601393881330,648,-1.1499023,0.5475464,0.2177124
1601393881330,649,-1.1499023,0.5475464,0.2177124
1601393881330,650,-0.6015625,0.3222046,0.24993896
1601393881330,651,-0.32910156,0.36029053,0.31732178
1601393881330,652,-1.1499023,0.5475464,0.2177124
1601393881331,653,-0.6015625,0.3222046,0.24993896
1601393881331,654,-0.85668945,0.3180542,0.39935303
1601393881331,655,-1.1499023,0.5475464,0.2177124
1601393881331,656,-1.3527832,0.3583374,0.45892334
1601393881331,657,-0.32910156,0.36029053,0.31732178
1601393881331,658,-0.6015625,0.3222046,0.24993896
1601393881333,659,-1.4121094,0.4039917,0.58221436
1601393881333,660,-0.32910156,0.36029053,0.31732178
1601393881333,661,-1.1066895,0.34344482,0.41204834
1601393881334,662,-0.85668945,0.3180542,0.39935303
1601393881334,663,-0.85668945,0.3180542,0.39935303
1601393881334,664,-0.6015625,0.3222046,0.24993896
1601393881334,665,-1.0424805,0.31121826,0.26116943
1601393881334,666,-1.3527832,0.3583374,0.45892334
1601393881340,667,-0.32910156,0.36029053,0.31732178
1601393881341,668,-0.86865234,0.31707764,0.16156006
1601393881341,669,-0.9277344,0.25531006,0.12030029
1601393881341,670,-1.3527832,0.3583374,0.45892334
1601393881342,671,-1.4121094,0.4039917,0.58221436
1601393881344,672,-1.1533203,0.30145264,0.14642334
1601393881345,673,-1.3203125,0.18011475,0.20013428
1601393881346,674,-1.4121094,0.4039917,0.58221436
1601393881346,675,-1.1066895,0.34344482,0.41204834
1601393881348,676,-1.0651855,0.14178467,0.2267456
1601393881349,677,-0.85668945,0.3180542,0.39935303
1601393881351,678,-1.3527832,0.3583374,0.45892334
1601393881358,679,-1.4121094,0.4039917,0.58221436
1601393881359,680,-1.0424805,0.31121826,0.26116943
1601393881359,681,-0.76586914,0.19232178,0.23040771
1601393881359,682,-1.1066895,0.34344482,0.41204834
1601393881361,683,-1.1066895,0.34344482,0.41204834
1601393881361,684,-0.86865234,0.31707764,0.16156006
1601393881361,685,-0.9277344,0.25531006,0.12030029
1601393881361,686,-1.1533203,0.30145264,0.14642334
1601393881362,687,-0.80444336,0.30877686,0.2255249
1601393881362,688,-1.0424805,0.31121826,0.26116943
1601393881369,689,-1.0424805,0.31121826,0.26116943
1601393881370,690,-1.3203125,0.18011475,0.20013428
1601393881371,691,-0.6940918,0.29559326,0.1408081
1601393881371,692,-0.86865234,0.31707764,0.16156006
1601393881371,693,-1.0651855,0.14178467,0.2267456
1601393881373,694,-0.86865234,0.31707764,0.16156006
1601393881373,695,-0.9277344,0.25531006,0.12030029
1601393881374,696,-0.9277344,0.25531006,0.12030029
1601393881376,697,-0.9995117,0.56951904,0.22381592
1601393881380,698,-0.76586914,0.19232178,0.23040771
1601393881380,699,-1.2250977,0.6100464,0.46697998
1601393881381,700,-1.1533203,0.30145264,0.14642334
1601393881382,701,-1.3203125,0.18011475,0.20013428
1601393881383,702,-1.1533203,0.30145264,0.14642334
1601393881384,703,-1.3203125,0.18011475,0.20013428
1601393881385,704,-1.0651855,0.14178467,0.2267456
1601393881387,705,-0.80444336,0.30877686,0.2255249
1601393881388,706,-1.253418,0.46673584,0.58026123
1601393881389,707,-1.2731934,0.5192261,0.58636475
1601393881392,708,-1.3637695,0.48529053,0.36419678
1601393881393,709,-0.76586914,0.19232178,0.23040771
1601393881393,710,-1.0651855,0.14178467,0.2267456
1601393881394,711,-0.80444336,0.30877686,0.2255249
1601393881412,712,-1.1777344,0.3632202,0.17547607
1601393881413,713,-0.6940918,0.29559326,0.1408081
1601393881413,714,-0.76586914,0.19232178,0.23040771
1601393881414,715,-0.6940918,0.29559326,0.1408081
1601393881415,716,-0.9995117,0.56951904,0.22381592
1601393881415,717,-0.80444336,0.30877686,0.2255249
1601393881416,718,-1.2250977,0.6100464,0.46697998
1601393881416,719,-0.9995117,0.56951904,0.22381592
1601393881417,720,-1.253418,0.46673584,0.58026123
1601393881417,721,-0.98779297,0.33026123,0.10321045
1601393881418,722,-1.2250977,0.6100464,0.46697998
1601393881419,723,-0.6940918,0.29559326,0.1408081
1601393881419,724,-1.253418,0.46673584,0.58026123
1601393881420,725,-1.2731934,0.5192261,0.58636475
1601393881420,726,-1.1081543,0.276062,0.08929443
1601393881420,727,-1.3637695,0.48529053,0.36419678
1601393881420,728,-1.0817871,0.20526123,0.105895996
1601393881421,729,-1.2731934,0.5192261,0.58636475
1601393881421,730,-0.9995117,0.56951904,0.22381592
1601393881421,731,-1.1777344,0.3632202,0.17547607
1601393881422,732,-1.3637695,0.48529053,0.36419678
1601393881426,733,-1.2250977,0.6100464,0.46697998
1601393881427,734,-1.0119629,0.1762085,0.18206787
1601393881427,735,-0.98779297,0.33026123,0.10321045
1601393881427,736,-0.8527832,0.152771,0.27069092
1601393881427,737,-1.1777344,0.3632202,0.17547607
1601393881428,738,-1.253418,0.46673584,0.58026123
1601393881431,739,-1.1081543,0.276062,0.08929443
1601393881431,740,-0.94384766,0.3217163,0.4249878
1601393881431,741,-1.0817871,0.20526123,0.105895996
1601393881432,742,-1.2731934,0.5192261,0.58636475
1601393881433,743,-0.98779297,0.33026123,0.10321045
1601393881436,744,-1.0119629,0.1762085,0.18206787
1601393881440,745,-0.75634766,0.35906982,0.41033936
1601393881440,746,-1.1081543,0.276062,0.08929443
1601393881440,747,-1.3637695,0.48529053,0.36419678
1601393881440,748,-0.8527832,0.152771,0.27069092
1601393881445,749,-0.8059082,0.5231323,0.3764038
1601393881449,750,-0.94384766,0.3217163,0.4249878
1601393881453,751,-1.0817871,0.20526123,0.105895996
1601393881454,752,-1.1777344,0.3632202,0.17547607
1601393881455,753,-0.75634766,0.35906982,0.41033936
1601393881458,754,-1.0119629,0.1762085,0.18206787
1601393881459,755,-0.8527832,0.152771,0.27069092
1601393881459,756,-0.8059082,0.5231323,0.3764038
1601393881459,757,-0.94384766,0.3217163,0.4249878
1601393881463,758,-0.98779297,0.33026123,0.10321045
1601393881463,759,-1.1081543,0.276062,0.08929443
1601393881469,760,-1.0817871,0.20526123,0.105895996
1601393881469,761,-0.75634766,0.35906982,0.41033936
1601393881472,762,-0.8059082,0.5231323,0.3764038
1601393881474,763,-1.0119629,0.1762085,0.18206787
1601393881475,764,-0.8527832,0.152771,0.27069092
1601393881475,765,-0.94384766,0.3217163,0.4249878
1601393881476,766,-0.75634766,0.35906982,0.41033936
1601393881477,767,-0.8059082,0.5231323,0.3764038
1601393883967,768,-1.0876465,0.6942749,0.49090576
1601393883970,769,-1.0876465,0.6942749,0.49090576
1601393883972,770,-1.0876465,0.6942749,0.49090576
1601393883977,771,-1.0588379,0.7704468,0.45428467
1601393883978,772,-1.0588379,0.7704468,0.45428467
1601393883979,773,-1.0588379,0.7704468,0.45428467
1601393883979,774,-1.3115234,0.82366943,0.434021
1601393883982,775,-1.0876465,0.6942749,0.49090576
1601393883984,776,-1.3115234,0.82366943,0.434021
1601393883990,777,-1.3115234,0.82366943,0.434021
1601393883991,778,-1.0588379,0.7704468,0.45428467
1601393883992,779,-1.3745117,0.696228,0.18011475
1601393883993,780,-1.3745117,0.696228,0.18011475
1601393883994,781,-1.3745117,0.696228,0.18011475
1601393883995,782,-1.5461426,0.49163818,0.018493652
1601393883997,783,-1.5461426,0.49163818,0.018493652
1601393883999,784,-1.3115234,0.82366943,0.434021
1601393884001,785,-1.2858887,0.36688232,-0.027160645
1601393884003,786,-0.9213867,0.18890381,0.17547607
1601393884007,787,-1.2858887,0.36688232,-0.027160645
1601393884008,788,-1.5461426,0.49163818,0.018493652
1601393884009,789,-0.9213867,0.18890381,0.17547607
1601393884016,790,-1.2858887,0.36688232,-0.027160645
1601393884016,791,-1.3745117,0.696228,0.18011475
1601393884017,792,-0.8300781,0.10101318,0.35784912
1601393884018,793,-0.8300781,0.10101318,0.35784912
1601393884021,794,-0.9213867,0.18890381,0.17547607
1601393884024,795,-0.8300781,0.10101318,0.35784912
1601393884031,796,-0.83862305,0.040222168,0.39227295
1601393884031,797,-0.83862305,0.040222168,0.39227295
1601393884032,798,-1.5461426,0.49163818,0.018493652
1601393884034,799,-0.83862305,0.040222168,0.39227295
1601393884035,800,-1.0056152,0.3065796,0.39007568
1601393884035,801,-1.0056152,0.3065796,0.39007568
1601393884039,802,-1.0056152,0.3065796,0.39007568
1601393884039,803,-1.0849609,0.7633667,0.48968506
1601393884040,804,-1.2858887,0.36688232,-0.027160645
1601393884044,805,-1.0849609,0.7633667,0.48968506
1601393884045,806,-0.7458496,0.9852905,0.47503662
1601393884046,807,-1.0849609,0.7633667,0.48968506
1601393884046,808,-0.7458496,0.9852905,0.47503662
1601393884049,809,-0.31860352,0.77557373,0.3012085
1601393884051,810,-0.7458496,0.9852905,0.47503662
1601393884053,811,-0.31860352,0.77557373,0.3012085
1601393884059,812,-0.9213867,0.18890381,0.17547607
1601393884061,813,-0.31860352,0.77557373,0.3012085
1601393884062,814,-0.14672852,0.6239624,0.23382568
1601393884062,815,-0.14672852,0.6239624,0.23382568
1601393884063,816,-0.14672852,0.6239624,0.23382568
1601393884067,817,-0.14477539,0.664978,0.32025146
1601393884067,818,-0.14477539,0.664978,0.32025146
1601393884068,819,-0.8300781,0.10101318,0.35784912
1601393884069,820,-0.15332031,0.7460327,0.53582764
1601393884071,821,-0.39819336,0.87054443,0.7140503
1601393884073,822,-0.15332031,0.7460327,0.53582764
1601393884075,823,-0.39819336,0.87054443,0.7140503
1601393884077,824,-0.87231445,1.062439,0.7267456
1601393884079,825,-1.1220703,0.8300171,0.4562378
1601393884083,826,-1.1262207,0.6593628,0.35101318
1601393884084,827,-0.87231445,1.062439,0.7267456
1601393884085,828,-0.72998047,0.48187256,0.29486084
1601393884087,829,-0.14477539,0.664978,0.32025146
1601393884089,830,-0.83862305,0.040222168,0.39227295
1601393884092,831,-1.1220703,0.8300171,0.4562378
1601393884092,832,-0.15332031,0.7460327,0.53582764
1601393884107,833,-1.0056152,0.3065796,0.39007568
1601393884107,834,-0.34277344,0.73431396,0.16766357
1601393884107,835,-1.1262207,0.6593628,0.35101318
1601393884107,836,-0.39819336,0.87054443,0.7140503
1601393884108,837,-0.049316406,0.49749756,0.11248779
1601393884108,838,-0.87231445,1.062439,0.7267456
1601393884108,839,-0.72998047,0.48187256,0.29486084
1601393884109,840,-0.12548828,0.6034546,0.2086792
1601393884109,841,-1.0849609,0.7633667,0.48968506
1601393884109,842,-1.1220703,0.8300171,0.4562378
1601393884110,843,-0.7458496,0.9852905,0.47503662
1601393884110,844,-0.34277344,0.73431396,0.16766357
1601393884110,845,-0.1003418,0.62835693,0.30023193
1601393884112,846,-1.1262207,0.6593628,0.35101318
1601393884115,847,-0.31860352,0.77557373,0.3012085
1601393884117,848,-0.049316406,0.49749756,0.11248779
1601393884118,849,-0.14257812,0.69158936,0.4171753
1601393884122,850,-0.14672852,0.6239624,0.23382568
1601393884126,851,-0.14477539,0.664978,0.32025146
1601393884126,852,-0.72998047,0.48187256,0.29486084
1601393884129,853,-0.12548828,0.6034546,0.2086792
1601393884129,854,-0.8713379,0.48236084,0.41351318
1601393884130,855,-0.15332031,0.7460327,0.53582764
1601393884136,856,-0.1003418,0.62835693,0.30023193
1601393884137,857,-2.0,0.52215576,0.17816162
1601393884137,858,-0.34277344,0.73431396,0.16766357
1601393884138,859,-0.14257812,0.69158936,0.4171753
1601393884139,860,-0.39819336,0.87054443,0.7140503
1601393884141,861,-0.8713379,0.48236084,0.41351318
1601393884143,862,-0.87231445,1.062439,0.7267456
1601393884146,863,-1.7390137,0.57147217,0.21600342
1601393884150,864,-0.049316406,0.49749756,0.11248779
1601393884151,865,-1.1220703,0.8300171,0.4562378
1601393884155,866,-0.9909668,-0.12310791,-0.07965088
1601393884156,867,-2.0,0.52215576,0.17816162
1601393884156,868,-1.1262207,0.6593628,0.35101318
1601393884157,869,-0.12548828,0.6034546,0.2086792
1601393884159,870,-0.71069336,0.06707764,-0.020324707
1601393884164,871,-0.52978516,0.23846436,0.22650146
1601393884169,872,-1.7390137,0.57147217,0.21600342
1601393884170,873,-0.72998047,0.48187256,0.29486084
1601393884170,874,-0.1003418,0.62835693,0.30023193
1601393884173,875,-0.9909668,-0.12310791,-0.07965088
1601393884174,876,-0.14257812,0.69158936,0.4171753
1601393884174,877,-0.34277344,0.73431396,0.16766357
1601393884176,878,-0.049316406,0.49749756,0.11248779
1601393884178,879,-0.71069336,0.06707764,-0.020324707
1601393884181,880,-0.52978516,0.23846436,0.22650146
1601393884184,881,-0.12548828,0.6034546,0.2086792
1601393884187,882,-0.8713379,0.48236084,0.41351318
1601393884188,883,-0.1003418,0.62835693,0.30023193
1601393884191,884,-0.14257812,0.69158936,0.4171753
1601393884191,885,-2.0,0.52215576,0.17816162
1601393884194,886,-1.7390137,0.57147217,0.21600342
1601393884195,887,-0.8713379,0.48236084,0.41351318
1601393884198,888,-0.9909668,-0.12310791,-0.07965088
1601393884199,889,-2.0,0.52215576,0.17816162
1601393884204,890,-0.71069336,0.06707764,-0.020324707
1601393884205,891,-1.7390137,0.57147217,0.21600342
1601393884205,892,-0.52978516,0.23846436,0.22650146
1601393884208,893,-0.9909668,-0.12310791,-0.07965088
1601393884211,894,-0.71069336,0.06707764,-0.020324707
1601393884213,895,-0.52978516,0.23846436,0.22650146
1601393886665,896,-0.46899414,0.21844482,0.3126831
1601393886670,897,-0.46899414,0.21844482,0.3126831
1601393886692,898,-0.46899414,0.21844482,0.3126831
1601393886692,899,-0.46899414,0.21844482,0.3126831
1601393886695,900,-0.6569824,0.37200928,0.34783936
1601393886696,901,-0.6569824,0.37200928,0.34783936
1601393886697,902,-0.6569824,0.37200928,0.34783936
1601393886699,903,-1.1599121,0.45159912,0.33709717
1601393886699,904,-0.6569824,0.37200928,0.34783936
1601393886700,905,-1.7272949,0.59173584,0.34661865
1601393886702,906,-1.1599121,0.45159912,0.33709717
1601393886702,907,-1.1599121,0.45159912,0.33709717
1601393886705,908,-1.1599121,0.45159912,0.33709717
1601393886705,909,-1.7272949,0.59173584,0.34661865
1601393886708,910,-1.411377,0.29608154,0.12591553
1601393886717,911,-1.411377,0.29608154,0.12591553
1601393886717,912,-1.7272949,0.59173584,0.34661865
1601393886718,913,-0.96362305,0.25897217,0.14154053
1601393886719,914,-1.7272949,0.59173584,0.34661865
1601393886721,915,-1.411377,0.29608154,0.12591553
1601393886721,916,-0.96362305,0.25897217,0.14154053
1601393886722,917,-0.6567383,0.22332764,0.08270264
1601393886728,918,-0.96362305,0.25897217,0.14154053
1601393886728,919,-0.6567383,0.22332764,0.08270264
1601393886732,920,-1.411377,0.29608154,0.12591553
1601393886735,921,-0.6567383,0.22332764,0.08270264
1601393886736,922,-0.9099121,0.14398193,-0.020812988
1601393886736,923,-0.9099121,0.14398193,-0.020812988
1601393886742,924,-0.9099121,0.14398193,-0.020812988
1601393886744,925,-0.96362305,0.25897217,0.14154053
1601393886744,926,-1.6362305,0.1786499,-0.21514893
1601393886744,927,-1.6362305,0.1786499,-0.21514893
1601393886750,928,-1.6362305,0.1786499,-0.21514893
1601393886751,929,-0.6567383,0.22332764,0.08270264
1601393886751,930,-1.4370117,0.3078003,-0.27716064
1601393886751,931,-1.4370117,0.3078003,-0.27716064
1601393886752,932,-1.4370117,0.3078003,-0.27716064
1601393886756,933,-0.9995117,0.387146,0.14715576
1601393886761,934,-0.9995117,0.387146,0.14715576
1601393886765,935,-0.9145508,0.65496826,0.17449951
1601393886766,936,-0.9995117,0.387146,0.14715576
1601393886769,937,-0.9099121,0.14398193,-0.020812988
1601393886774,938,-0.9145508,0.65496826,0.17449951
1601393886774,939,-0.59155273,0.6281128,0.27020264
1601393886774,940,-0.9145508,0.65496826,0.17449951
1601393886775,941,-0.59155273,0.6281128,0.27020264
1601393886775,942,-0.59155273,0.6281128,0.27020264
1601393886775,943,-1.6362305,0.1786499,-0.21514893
1601393886781,944,-0.5241699,0.53704834,0.3468628
1601393886781,945,-0.5241699,0.53704834,0.3468628
1601393886781,946,-1.4370117,0.3078003,-0.27716064
1601393886781,947,-0.7949219,0.447937,0.38006592
1601393886781,948,-0.9995117,0.387146,0.14715576
1601393886785,949,-0.7949219,0.447937,0.38006592
1601393886785,950,-1.0524902,0.54681396,0.4100952
1601393886786,951,-0.9145508,0.65496826,0.17449951
1601393886787,952,-0.5241699,0.53704834,0.3468628
1601393886787,953,-0.59155273,0.6281128,0.27020264
1601393886796,954,-0.7949219,0.447937,0.38006592
1601393886796,955,-1.0524902,0.54681396,0.4100952
1601393886796,956,-1.5673828,0.69573975,0.38201904
1601393886796,957,-0.5241699,0.53704834,0.3468628
1601393886796,958,-1.0524902,0.54681396,0.4100952
1601393886798,959,-1.5673828,0.69573975,0.38201904
1601393886799,960,-1.4699707,0.33929443,0.14642334
1601393886800,961,-1.4699707,0.33929443,0.14642334
1601393886801,962,-0.7949219,0.447937,0.38006592
1601393886804,963,-1.0900879,0.39227295,0.121032715
1601393886812,964,-0.9328613,0.35491943,0.023132324
1601393886813,965,-1.0524902,0.54681396,0.4100952
1601393886813,966,-1.5673828,0.69573975,0.38201904
1601393886814,967,-1.1484375,0.21478271,-0.006652832
1601393886820,968,-1.0900879,0.39227295,0.121032715
1601393886820,969,-1.4699707,0.33929443,0.14642334
1601393886822,970,-1.5673828,0.69573975,0.38201904
1601393886823,971,-0.9328613,0.35491943,0.023132324
1601393886823,972,-1.4699707,0.33929443,0.14642334
1601393886823,973,-1.1484375,0.21478271,-0.006652832
1601393886825,974,-1.0900879,0.39227295,0.121032715
1601393886825,975,-1.2841797,0.1359253,0.07635498
1601393886831,976,-1.0900879,0.39227295,0.121032715
1601393886851,977,-1.2841797,0.1359253,0.07635498
1601393886851,978,-0.9328613,0.35491943,0.023132324
1601393886851,979,-1.2749023,0.20794678,0.019226074
1601393886851,980,-0.9328613,0.35491943,0.023132324
1601393886851,981,-1.2749023,0.20794678,0.019226074
1601393886852,982,-1.1484375,0.21478271,-0.006652832
1601393886852,983,-1.1503906,0.38494873,0.09539795
1601393886852,984,-1.1484375,0.21478271,-0.006652832
1601393886853,985,-1.1503906,0.38494873,0.09539795
1601393886853,986,-0.9682617,0.5223999,0.18353271
1601393886853,987,-0.9682617,0.5223999,0.18353271
1601393886853,988,-0.90478516,0.51361084,0.25238037
1601393886853,989,-1.2841797,0.1359253,0.07635498
1601393886853,990,-0.7285156,0.45062256,0.35882568
1601393886853,991,-1.2841797,0.1359253,0.07635498
1601393886853,992,-0.90478516,0.51361084,0.25238037
1601393886859,993,-1.2749023,0.20794678,0.019226074
1601393886860,994,-1.2749023,0.20794678,0.019226074
1601393886860,995,-1.0317383,0.53778076,0.4352417
1601393886860,996,-0.7285156,0.45062256,0.35882568
1601393886860,997,-1.1503906,0.38494873,0.09539795
1601393886861,998,-1.1503906,0.38494873,0.09539795
1601393886862,999,-1.2573242,0.5934448,0.52264404
1601393886868,1000,-0.9682617,0.5223999,0.18353271
1601393886869,1001,-0.9682617,0.5223999,0.18353271
1601393886869,1002,-1.0317383,0.53778076,0.4352417
1601393886873,1003,-1.4555664,0.51605225,0.29681396
1601393886873,1004,-0.90478516,0.51361084,0.25238037
1601393886873,1005,-0.90478516,0.51361084,0.25238037
1601393886874,1006,-1.2573242,0.5934448,0.52264404
1601393886874,1007,-1.5107422,0.36395264,-0.03717041
1601393886874,1008,-1.4555664,0.51605225,0.29681396
1601393886874,1009,-1.3278809,0.26483154,-0.081604004
1601393886875,1010,-0.7285156,0.45062256,0.35882568
1601393886879,1011,-1.5107422,0.36395264,-0.03717041
1601393886879,1012,-1.0317383,0.53778076,0.4352417
1601393886879,1013,-1.3278809,0.26483154,-0.081604004
1601393886883,1014,-1.2573242,0.5934448,0.52264404
1601393886883,1015,-1.4555664,0.51605225,0.29681396
1601393886886,1016,-1.5107422,0.36395264,-0.03717041
1601393886887,1017,-1.3278809,0.26483154,-0.081604004
1601393886893,1018,-0.7285156,0.45062256,0.35882568
1601393886898,1019,-1.0317383,0.53778076,0.4352417
1601393886906,1020,-1.2573242,0.5934448,0.52264404
1601393886906,1021,-1.4555664,0.51605225,0.29681396
1601393886929,1022,-1.5107422,0.36395264,-0.03717041
1601393886929,1023,-1.3278809,0.26483154,-0.081604004
1601393889087,1024,-1.0332031,0.22332764,-0.081848145
1601393889087,1025,-1.0332031,0.22332764,-0.081848145
1601393889087,1026,-1.0332031,0.22332764,-0.081848145
1601393889087,1027,-1.0332031,0.22332764,-0.081848145
1601393889091,1028,-1.2331543,0.3024292,-0.023254395
1601393889097,1029,-1.2331543,0.3024292,-0.023254395
1601393889099,1030,-1.2331543,0.3024292,-0.023254395
1601393889103,1031,-1.2331543,0.3024292,-0.023254395
1601393889141,1032,-1.2255859,0.2387085,0.04534912
1601393889143,1033,-1.2255859,0.2387085,0.04534912
1601393889143,1034,-1.2255859,0.2387085,0.04534912
1601393889144,1035,-1.2255859,0.2387085,0.04534912
1601393889149,1036,-1.2512207,0.33050537,0.0065307617
1601393889150,1037,-1.2512207,0.33050537,0.0065307617
1601393889150,1038,-1.2512207,0.33050537,0.0065307617
1601393889156,1039,-1.2512207,0.33050537,0.0065307617
1601393889161,1040,-1.0939941,0.43450928,0.11444092
1601393889162,1041,-1.0939941,0.43450928,0.11444092
1601393889166,1042,-1.0939941,0.43450928,0.11444092
1601393889167,1043,-0.93359375,0.61883545,0.19647217
1601393889171,1044,-0.93359375,0.61883545,0.19647217
1601393889172,1045,-1.0939941,0.43450928,0.11444092
1601393889172,1046,-0.93359375,0.61883545,0.19647217
1601393889191,1047,-0.7717285,0.5975952,0.29779053
1601393889192,1048,-0.46313477,0.5946655,0.35491943
1601393889193,1049,-0.7717285,0.5975952,0.29779053
1601393889196,1050,-0.46313477,0.5946655,0.35491943
1601393889196,1051,-0.6669922,0.62420654,0.41448975
1601393889197,1052,-0.93359375,0.61883545,0.19647217
1601393889198,1053,-0.6669922,0.62420654,0.41448975
1601393889198,1054,-0.7717285,0.5975952,0.29779053
1601393889203,1055,-0.95654297,0.70599365,0.3632202
1601393889203,1056,-0.46313477,0.5946655,0.35491943
1601393889203,1057,-0.6669922,0.62420654,0.41448975
1601393889203,1058,-0.7717285,0.5975952,0.29779053
1601393889203,1059,-1.2346191,0.793396,0.1930542
1601393889203,1060,-0.95654297,0.70599365,0.3632202
1601393889203,1061,-0.95654297,0.70599365,0.3632202
1601393889205,1062,-0.46313477,0.5946655,0.35491943
1601393889211,1063,-1.2346191,0.793396,0.1930542
1601393889212,1064,-1.2346191,0.793396,0.1930542
1601393889212,1065,-1.1938477,0.61883545,0.031677246
1601393889213,1066,-0.6669922,0.62420654,0.41448975
1601393889215,1067,-1.1938477,0.61883545,0.031677246
1601393889222,1068,-0.83203125,0.4303589,0.10272217
1601393889223,1069,-1.1938477,0.61883545,0.031677246
1601393889223,1070,-0.63623047,0.31585693,0.04168701
1601393889223,1071,-0.95654297,0.70599365,0.3632202
1601393889223,1072,-0.83203125,0.4303589,0.10272217
1601393889223,1073,-0.83203125,0.4303589,0.10272217
1601393889223,1074,-0.63623047,0.31585693,0.04168701
1601393889224,1075,-0.63623047,0.31585693,0.04168701
1601393889224,1076,-1.2346191,0.793396,0.1930542
1601393889238,1077,-0.7084961,0.35760498,0.05316162
1601393889238,1078,-0.7084961,0.35760498,0.05316162
1601393889239,1079,-1.1938477,0.61883545,0.031677246
1601393889239,1080,-0.7084961,0.35760498,0.05316162
1601393889239,1081,-0.83203125,0.4303589,0.10272217
1601393889239,1082,-1.0600586,0.50531006,0.16766357
1601393889239,1083,-1.0600586,0.50531006,0.16766357
1601393889239,1084,-1.0600586,0.50531006,0.16766357
1601393889241,1085,-1.1965332,0.31097412,0.18743896
1601393889241,1086,-0.63623047,0.31585693,0.04168701
1601393889241,1087,-1.1965332,0.31097412,0.18743896
1601393889241,1088,-0.7084961,0.35760498,0.05316162
1601393889241,1089,-1.1965332,0.31097412,0.18743896
1601393889241,1090,-1.5239258,0.19476318,0.061950684
1601393889242,1091,-1.5239258,0.19476318,0.061950684
1601393889246,1092,-1.4440918,0.3637085,0.10467529
1601393889247,1093,-1.5239258,0.19476318,0.061950684
1601393889247,1094,-1.0600586,0.50531006,0.16766357
1601393889247,1095,-1.4440918,0.3637085,0.10467529
1601393889251,1096,-1.0151367,0.40008545,0.1671753
1601393889251,1097,-1.4440918,0.3637085,0.10467529
1601393889251,1098,-1.0151367,0.40008545,0.1671753
1601393889251,1099,-1.1965332,0.31097412,0.18743896
1601393889251,1100,-0.82250977,0.46697998,0.23602295
1601393889252,1101,-1.0151367,0.40008545,0.1671753
1601393889252,1102,-1.5239258,0.19476318,0.061950684
1601393889255,1103,-0.82250977,0.46697998,0.23602295
1601393889255,1104,-0.50439453,0.5878296,0.26507568
1601393889256,1105,-0.82250977,0.46697998,0.23602295
1601393889256,1106,-1.4440918,0.3637085,0.10467529
1601393889257,1107,-0.50439453,0.5878296,0.26507568
1601393889258,1108,-0.48706055,0.47381592,0.2699585
1601393889264,1109,-1.0151367,0.40008545,0.1671753
1601393889264,1110,-0.50439453,0.5878296,0.26507568
1601393889264,1111,-0.48706055,0.47381592,0.2699585
1601393889264,1112,-0.6760254,0.38568115,0.33929443
1601393889265,1113,-0.6760254,0.38568115,0.33929443
1601393889265,1114,-0.82250977,0.46697998,0.23602295
1601393889265,1115,-0.48706055,0.47381592,0.2699585
1601393889269,1116,-0.920166,0.35784912,0.41033936
1601393889269,1117,-0.920166,0.35784912,0.41033936
1601393889270,1118,-0.50439453,0.5878296,0.26507568
1601393889270,1119,-0.6760254,0.38568115,0.33929443
1601393889275,1120,-1.1828613,0.39227295,0.43548584
1601393889275,1121,-0.48706055,0.47381592,0.2699585
1601393889276,1122,-0.920166,0.35784912,0.41033936
1601393889276,1123,-1.1828613,0.39227295,0.43548584
1601393889277,1124,-1.1828613,0.39227295,0.43548584
1601393889277,1125,-1.2109375,0.5363159,0.4118042
1601393889283,1126,-1.2109375,0.5363159,0.4118042
1601393889284,1127,-1.2109375,0.5363159,0.4118042
1601393889284,1128,-0.6760254,0.38568115,0.33929443
1601393889304,1129,-1.263916,0.60687256,0.26239014
1601393889305,1130,-1.263916,0.60687256,0.26239014
1601393889305,1131,-0.920166,0.35784912,0.41033936
1601393889305,1132,-1.263916,0.60687256,0.26239014
1601393889305,1133,-1.3212891,0.402771,0.09173584
1601393889305,1134,-1.3212891,0.402771,0.09173584
1601393889306,1135,-1.3212891,0.402771,0.09173584
1601393889307,1136,-1.1828613,0.39227295,0.43548584
1601393889307,1137,-1.0168457,0.3649292,0.055114746
1601393889307,1138,-1.0168457,0.3649292,0.055114746
1601393889307,1139,-1.2109375,0.5363159,0.4118042
1601393889307,1140,-0.998291,0.2831421,1.8310547E-4
1601393889307,1141,-1.263916,0.60687256,0.26239014
1601393889316,1142,-0.998291,0.2831421,1.8310547E-4
1601393889316,1143,-1.1713867,0.24456787,0.047790527
1601393889316,1144,-1.3212891,0.402771,0.09173584
1601393889318,1145,-1.0168457,0.3649292,0.055114746
1601393889320,1146,-1.0168457,0.3649292,0.055114746
1601393889321,1147,-1.1713867,0.24456787,0.047790527
1601393889323,1148,-0.998291,0.2831421,1.8310547E-4
1601393889324,1149,-0.998291,0.2831421,1.8310547E-4
1601393889327,1150,-1.1713867,0.24456787,0.047790527
1601393889328,1151,-1.1713867,0.24456787,0.047790527
1601393891669,1152,-1.1875,0.16595459,0.10809326
1601393891673,1153,-1.1875,0.16595459,0.10809326
1601393891696,1154,-1.0651855,0.1593628,0.117370605
1601393891697,1155,-1.1875,0.16595459,0.10809326
1601393891699,1156,-1.1875,0.16595459,0.10809326
1601393891701,1157,-1.0651855,0.1593628,0.117370605
1601393891704,1158,-1.1062012,0.32904053,0.2999878
1601393891704,1159,-1.0979004,0.32489014,0.2543335
1601393891705,1160,-1.1062012,0.32904053,0.2999878
1601393891705,1161,-1.0651855,0.1593628,0.117370605
1601393891705,1162,-1.0651855,0.1593628,0.117370605
1601393891706,1163,-1.1062012,0.32904053,0.2999878
1601393891709,1164,-1.0979004,0.32489014,0.2543335
1601393891710,1165,-1.0979004,0.32489014,0.2543335
1601393891718,1166,-1.1062012,0.32904053,0.2999878
1601393891719,1167,-0.77490234,0.31829834,0.3517456
1601393891720,1168,-0.77490234,0.31829834,0.3517456
1601393891721,1169,-0.78100586,0.3781128,0.31585693
1601393891722,1170,-0.77490234,0.31829834,0.3517456
1601393891728,1171,-1.1152344,0.47039795,0.36761475
1601393891729,1172,-1.0979004,0.32489014,0.2543335
1601393891730,1173,-0.78100586,0.3781128,0.31585693
1601393891731,1174,-0.77490234,0.31829834,0.3517456
1601393891733,1175,-1.2946777,0.5973511,0.5219116
1601393891735,1176,-0.78100586,0.3781128,0.31585693
1601393891736,1177,-1.1152344,0.47039795,0.36761475
1601393891738,1178,-1.2946777,0.5973511,0.5219116
1601393891741,1179,-1.3837891,0.31976318,0.2477417
1601393891743,1180,-1.2458496,0.32537842,0.24993896
1601393891746,1181,-1.0632324,0.2831421,0.19378662
1601393891753,1182,-1.3837891,0.31976318,0.2477417
1601393891754,1183,-1.0837402,0.20599365,0.16644287
1601393891755,1184,-1.1152344,0.47039795,0.36761475
1601393891755,1185,-0.78100586,0.3781128,0.31585693
1601393891756,1186,-1.2946777,0.5973511,0.5219116
1601393891757,1187,-1.2458496,0.32537842,0.24993896
1601393891762,1188,-1.427002,0.14959717,0.10272217
1601393891767,1189,-1.1152344,0.47039795,0.36761475
1601393891768,1190,-1.3837891,0.31976318,0.2477417
1601393891770,1191,-1.0632324,0.2831421,0.19378662
1601393891770,1192,-1.2946777,0.5973511,0.5219116
1601393891770,1193,-1.0837402,0.20599365,0.16644287
1601393891771,1194,-1.3317871,0.17327881,0.074157715
1601393891772,1195,-1.2458496,0.32537842,0.24993896
1601393891774,1196,-1.427002,0.14959717,0.10272217
1601393891777,1197,-1.3317871,0.17327881,0.074157715
1601393891780,1198,-1.3837891,0.31976318,0.2477417
1601393891784,1199,-1.2458496,0.32537842,0.24993896
1601393891788,1200,-1.0632324,0.2831421,0.19378662
1601393891789,1201,-1.0441895,0.34954834,0.17694092
1601393891790,1202,-1.0632324,0.2831421,0.19378662
1601393891790,1203,-1.0837402,0.20599365,0.16644287
1601393891798,1204,-0.82470703,0.33221436,0.2772827
1601393891798,1205,-1.0837402,0.20599365,0.16644287
1601393891798,1206,-1.0441895,0.34954834,0.17694092
1601393891799,1207,-1.427002,0.14959717,0.10272217
1601393891799,1208,-0.82470703,0.33221436,0.2772827
1601393891799,1209,-0.6569824,0.35321045,0.3439331
1601393891799,1210,-1.427002,0.14959717,0.10272217
1601393891802,1211,-1.3317871,0.17327881,0.074157715
1601393891807,1212,-0.46484375,0.46087646,0.40667725
1601393891808,1213,-1.3317871,0.17327881,0.074157715
1601393891808,1214,-1.0441895,0.34954834,0.17694092
1601393891808,1215,-0.8730469,0.5319214,0.5570679
1601393891808,1216,-0.82470703,0.33221436,0.2772827
1601393891809,1217,-1.0441895,0.34954834,0.17694092
1601393891809,1218,-0.6569824,0.35321045,0.3439331
1601393891811,1219,-0.9987793,0.5187378,0.53826904
1601393891815,1220,-0.82470703,0.33221436,0.2772827
1601393891815,1221,-0.46484375,0.46087646,0.40667725
1601393891815,1222,-0.6569824,0.35321045,0.3439331
1601393891816,1223,-0.9953613,0.5536499,0.43597412
1601393891822,1224,-0.6569824,0.35321045,0.3439331
1601393891823,1225,-0.8730469,0.5319214,0.5570679
1601393891823,1226,-1.1813965,0.416687,0.28289795
1601393891823,1227,-0.46484375,0.46087646,0.40667725
1601393891823,1228,-0.46484375,0.46087646,0.40667725
1601393891824,1229,-0.8730469,0.5319214,0.5570679
1601393891825,1230,-1.2478027,0.46087646,0.21673584
1601393891826,1231,-0.8730469,0.5319214,0.5570679
1601393891830,1232,-0.9987793,0.5187378,0.53826904
1601393891830,1233,-0.94970703,0.40594482,0.15863037
1601393891830,1234,-0.9987793,0.5187378,0.53826904
1601393891830,1235,-0.9987793,0.5187378,0.53826904
1601393891831,1236,-0.9953613,0.5536499,0.43597412
1601393891835,1237,-1.1813965,0.416687,0.28289795
1601393891836,1238,-0.9953613,0.5536499,0.43597412
1601393891836,1239,-0.9953613,0.5536499,0.43597412
1601393891837,1240,-0.95288086,0.31488037,0.13763428
1601393891838,1241,-1.1813965,0.416687,0.28289795
1601393891842,1242,-1.1813965,0.416687,0.28289795
1601393891843,1243,-1.2478027,0.46087646,0.21673584
1601393891844,1244,-1.3703613,0.27581787,0.14764404
1601393891844,1245,-1.2478027,0.46087646,0.21673584
1601393891845,1246,-1.2478027,0.46087646,0.21673584
1601393891847,1247,-1.4736328,0.121276855,0.038513184
1601393891849,1248,-0.94970703,0.40594482,0.15863037
1601393891851,1249,-0.94970703,0.40594482,0.15863037
1601393891851,1250,-0.95288086,0.31488037,0.13763428
1601393891851,1251,-0.94970703,0.40594482,0.15863037
1601393891853,1252,-1.2131348,0.17303467,-0.029846191
1601393891857,1253,-1.3703613,0.27581787,0.14764404
1601393891857,1254,-0.95288086,0.31488037,0.13763428
1601393891858,1255,-0.95288086,0.31488037,0.13763428
1601393891858,1256,-1.4736328,0.121276855,0.038513184
1601393891859,1257,-1.3703613,0.27581787,0.14764404
1601393891861,1258,-1.1083984,0.31951904,0.05340576
1601393891862,1259,-1.2131348,0.17303467,-0.029846191
1601393891866,1260,-1.3703613,0.27581787,0.14764404
1601393891866,1261,-1.0666504,0.44744873,0.13763428
1601393891867,1262,-1.4736328,0.121276855,0.038513184
1601393891867,1263,-1.1083984,0.31951904,0.05340576
1601393891867,1264,-0.8354492,0.47943115,0.2008667
1601393891870,1265,-1.0666504,0.44744873,0.13763428
1601393891871,1266,-1.4736328,0.121276855,0.038513184
1601393891875,1267,-0.7089844,0.5326538,0.25457764
1601393891876,1268,-1.2131348,0.17303467,-0.029846191
1601393891877,1269,-0.8354492,0.47943115,0.2008667
1601393891877,1270,-1.2131348,0.17303467,-0.029846191
1601393891882,1271,-1.1083984,0.31951904,0.05340576
1601393891883,1272,-0.7089844,0.5326538,0.25457764
1601393891884,1273,-1.0666504,0.44744873,0.13763428
1601393891886,1274,-1.1083984,0.31951904,0.05340576
1601393891888,1275,-0.8354492,0.47943115,0.2008667
1601393891890,1276,-1.0666504,0.44744873,0.13763428
1601393891892,1277,-0.7089844,0.5326538,0.25457764
1601393891895,1278,-0.8354492,0.47943115,0.2008667
1601393891897,1279,-0.7089844,0.5326538,0.25457764
1601393894267,1280,-0.9147949,0.47650146,0.34710693
1601393894268,1281,-0.9147949,0.47650146,0.34710693
1601393894269,1282,-1.0224609,0.4467163,0.41131592
1601393894269,1283,-0.9147949,0.47650146,0.34710693
1601393894272,1284,-0.9147949,0.47650146,0.34710693
1601393894279,1285,-1.4182129,0.44451904,0.43255615
1601393894280,1286,-1.3845215,0.27679443,0.29559326
1601393894280,1287,-1.0224609,0.4467163,0.41131592
1601393894281,1288,-1.0224609,0.4467163,0.41131592
1601393894282,1289,-1.0224609,0.4467163,0.41131592
1601393894284,1290,-1.1835938,0.37835693,0.21575928
1601393894286,1291,-1.0095215,0.25115967,0.17547607
1601393894304,1292,-1.4182129,0.44451904,0.43255615
1601393894304,1293,-1.4182129,0.44451904,0.43255615
1601393894305,1294,-1.4182129,0.44451904,0.43255615
1601393894306,1295,-1.3845215,0.27679443,0.29559326
1601393894308,1296,-1.1835938,0.37835693,0.21575928
1601393894308,1297,-1.3845215,0.27679443,0.29559326
1601393894309,1298,-0.70996094,0.23895264,0.15179443
1601393894310,1299,-1.1835938,0.37835693,0.21575928
1601393894310,1300,-1.3845215,0.27679443,0.29559326
1601393894311,1301,-1.0095215,0.25115967,0.17547607
1601393894312,1302,-0.5871582,0.2584839,0.13641357
1601393894313,1303,-0.6550293,0.3270874,0.17132568
1601393894313,1304,-1.0095215,0.25115967,0.17547607
1601393894315,1305,-0.70996094,0.23895264,0.15179443
1601393894326,1306,-0.96240234,0.40374756,0.22772217
1601393894326,1307,-0.70996094,0.23895264,0.15179443
1601393894326,1308,-1.1835938,0.37835693,0.21575928
1601393894327,1309,-0.5871582,0.2584839,0.13641357
1601393894328,1310,-0.5871582,0.2584839,0.13641357
1601393894330,1311,-1.4099121,0.45404053,0.21868896
1601393894331,1312,-0.6550293,0.3270874,0.17132568
1601393894331,1313,-1.0095215,0.25115967,0.17547607
1601393894333,1314,-0.96240234,0.40374756,0.22772217
1601393894343,1315,-1.6633301,0.52093506,0.14569092
1601393894343,1316,-0.6550293,0.3270874,0.17132568
1601393894346,1317,-0.70996094,0.23895264,0.15179443
1601393894346,1318,-1.4099121,0.45404053,0.21868896
1601393894347,1319,-1.2175293,0.5634155,0.18914795
1601393894347,1320,-0.5871582,0.2584839,0.13641357
1601393894363,1321,-0.92456055,0.4159546,0.2670288
1601393894364,1322,-0.6550293,0.3270874,0.17132568
1601393894364,1323,-1.6633301,0.52093506,0.14569092
1601393894365,1324,-0.96240234,0.40374756,0.22772217
1601393894366,1325,-0.6677246,0.68182373,0.31610107
1601393894367,1326,-1.4099121,0.45404053,0.21868896
1601393894367,1327,-0.96240234,0.40374756,0.22772217
1601393894368,1328,-1.2175293,0.5634155,0.18914795
1601393894369,1329,-0.49121094,0.61346436,0.4706421
1601393894370,1330,-0.92456055,0.4159546,0.2670288
1601393894370,1331,-0.30615234,0.5338745,0.47576904
1601393894371,1332,-1.4099121,0.45404053,0.21868896
1601393894374,1333,-0.203125,0.30999756,0.46600342
1601393894374,1334,-1.6633301,0.52093506,0.14569092
1601393894379,1335,-1.6633301,0.52093506,0.14569092
1601393894379,1336,-0.22949219,0.30975342,0.4616089
1601393894380,1337,-1.2175293,0.5634155,0.18914795
1601393894381,1338,-0.6677246,0.68182373,0.31610107
1601393894384,1339,-1.2175293,0.5634155,0.18914795
1601393894385,1340,-0.1574707,0.607605,0.6637573
1601393894387,1341,-0.49121094,0.61346436,0.4706421
1601393894387,1342,-0.92456055,0.4159546,0.2670288
1601393894396,1343,-0.38256836,0.8602905,0.6688843
1601393894396,1344,-0.92456055,0.4159546,0.2670288
1601393894396,1345,-0.6677246,0.68182373,0.31610107
1601393894397,1346,-0.6677246,0.68182373,0.31610107
1601393894397,1347,-0.49121094,0.61346436,0.4706421
1601393894397,1348,-1.1513672,1.1366577,0.6141968
1601393894398,1349,-0.49121094,0.61346436,0.4706421
1601393894399,1350,-0.30615234,0.5338745,0.47576904
1601393894400,1351,-0.9941406,0.7797241,0.3493042
1601393894404,1352,-0.30615234,0.5338745,0.47576904
1601393894404,1353,-0.203125,0.30999756,0.46600342
1601393894405,1354,-0.94873047,0.7897339,0.1786499
1601393894405,1355,-0.30615234,0.5338745,0.47576904
1601393894410,1356,-0.8679199,0.5841675,0.15570068
1601393894410,1357,-0.22949219,0.30975342,0.4616089
1601393894411,1358,-0.203125,0.30999756,0.46600342
1601393894411,1359,-0.203125,0.30999756,0.46600342
1601393894411,1360,-0.1574707,0.607605,0.6637573
1601393894415,1361,-0.7524414,0.65789795,0.14691162
1601393894416,1362,-0.22949219,0.30975342,0.4616089
1601393894416,1363,-0.22949219,0.30975342,0.4616089
1601393894416,1364,-0.1574707,0.607605,0.6637573
1601393894418,1365,-0.1574707,0.607605,0.6637573
1601393894418,1366,-0.38256836,0.8602905,0.6688843
1601393894418,1367,-0.38256836,0.8602905,0.6688843
1601393894419,1368,-0.65649414,0.57489014,0.1749878
1601393894420,1369,-0.38256836,0.8602905,0.6688843
1601393894422,1370,-1.1513672,1.1366577,0.6141968
1601393894423,1371,-1.1513672,1.1366577,0.6141968
1601393894433,1372,-0.9941406,0.7797241,0.3493042
1601393894433,1373,-0.68359375,0.50335693,0.18963623
1601393894434,1374,-0.76586914,0.5897827,0.1564331
1601393894435,1375,-0.9941406,0.7797241,0.3493042
1601393894436,1376,-0.94873047,0.7897339,0.1786499
1601393894437,1377,-1.1513672,1.1366577,0.6141968
1601393894439,1378,-0.78271484,0.72332764,0.15667725
1601393894444,1379,-0.8679199,0.5841675,0.15570068
1601393894445,1380,-0.9941406,0.7797241,0.3493042
1601393894445,1381,-0.7524414,0.65789795,0.14691162
1601393894445,1382,-0.94873047,0.7897339,0.1786499
1601393894446,1383,-0.7441406,0.7633667,0.09173584
1601393894449,1384,-0.94873047,0.7897339,0.1786499
1601393894456,1385,-0.8679199,0.5841675,0.15570068
1601393894457,1386,-0.7854004,0.58392334,0.07220459
1601393894457,1387,-0.7524414,0.65789795,0.14691162
1601393894457,1388,-0.65649414,0.57489014,0.1749878
1601393894461,1389,-0.8679199,0.5841675,0.15570068
1601393894482,1390,-0.65649414,0.57489014,0.1749878
1601393894482,1391,-0.68359375,0.50335693,0.18963623
1601393894482,1392,-0.76586914,0.5897827,0.1564331
1601393894482,1393,-0.78271484,0.72332764,0.15667725
1601393894484,1394,-0.7524414,0.65789795,0.14691162
1601393894484,1395,-0.68359375,0.50335693,0.18963623
1601393894484,1396,-0.76586914,0.5897827,0.1564331
1601393894487,1397,-0.65649414,0.57489014,0.1749878
1601393894487,1398,-0.7441406,0.7633667,0.09173584
1601393894487,1399,-0.68359375,0.50335693,0.18963623
1601393894488,1400,-0.78271484,0.72332764,0.15667725
1601393894488,1401,-0.7854004,0.58392334,0.07220459
1601393894491,1402,-0.76586914,0.5897827,0.1564331
1601393894491,1403,-0.7441406,0.7633667,0.09173584
1601393894492,1404,-0.78271484,0.72332764,0.15667725
1601393894493,1405,-0.7854004,0.58392334,0.07220459
1601393894496,1406,-0.7441406,0.7633667,0.09173584
1601393894497,1407,-0.7854004,0.58392334,0.07220459
1601393897168,1408,-0.6582031,0.5829468,0.120788574
1601393897168,1409,-0.6582031,0.5829468,0.120788574
1601393897169,1410,-0.6582031,0.5829468,0.120788574
1601393897170,1411,-0.46948242,0.39471436,0.09710693
1601393897173,1412,-0.46948242,0.39471436,0.09710693
1601393897189,1413,-0.46948242,0.39471436,0.09710693
1601393897189,1414,-0.59399414,0.46429443,0.23919678
1601393897191,1415,-0.59399414,0.46429443,0.23919678
1601393897191,1416,-0.6582031,0.5829468,0.120788574
1601393897192,1417,-0.46948242,0.39471436,0.09710693
1601393897193,1418,-0.96240234,0.65618896,0.43377686
1601393897194,1419,-1.2182617,0.3920288,0.6635132
1601393897196,1420,-0.59399414,0.46429443,0.23919678
1601393897208,1421,-0.96240234,0.65618896,0.43377686
1601393897208,1422,-1.1386719,0.6095581,0.697937
1601393897210,1423,-0.59399414,0.46429443,0.23919678
1601393897211,1424,-1.2182617,0.3920288,0.6635132
1601393897229,1425,-0.96240234,0.65618896,0.43377686
1601393897231,1426,-0.98095703,0.5675659,0.6161499
1601393897233,1427,-0.8491211,0.48724365,0.4015503
1601393897233,1428,-1.2182617,0.3920288,0.6635132
1601393897233,1429,-0.6845703,0.3348999,0.3463745
1601393897237,1430,-1.1386719,0.6095581,0.697937
1601393897237,1431,-0.63623047,0.3908081,0.20892334
1601393897237,1432,-0.98095703,0.5675659,0.6161499
1601393897238,1433,-0.8491211,0.48724365,0.4015503
1601393897239,1434,-1.1386719,0.6095581,0.697937
1601393897252,1435,-0.8457031,0.3348999,0.23040771
1601393897253,1436,-0.96240234,0.65618896,0.43377686
1601393897253,1437,-0.6845703,0.3348999,0.3463745
1601393897254,1438,-0.98095703,0.5675659,0.6161499
1601393897254,1439,-1.2885742,0.2518921,0.30096436
1601393897256,1440,-0.63623047,0.3908081,0.20892334
1601393897256,1441,-1.2182617,0.3920288,0.6635132
1601393897258,1442,-0.8491211,0.48724365,0.4015503
1601393897264,1443,-0.8457031,0.3348999,0.23040771
1601393897267,1444,-1.3349609,0.19012451,0.23284912
1601393897267,1445,-1.1386719,0.6095581,0.697937
1601393897291,1446,-1.2885742,0.2518921,0.30096436
1601393897292,1447,-1.0056152,0.24969482,0.2531128
1601393897293,1448,-0.98095703,0.5675659,0.6161499
1601393897293,1449,-0.8234863,0.24627686,0.26776123
1601393897295,1450,-0.8491211,0.48724365,0.4015503
1601393897295,1451,-1.3349609,0.19012451,0.23284912
1601393897300,1452,-0.6845703,0.3348999,0.3463745
1601393897300,1453,-1.0056152,0.24969482,0.2531128
1601393897300,1454,-0.63623047,0.3908081,0.20892334
1601393897300,1455,-0.6845703,0.3348999,0.3463745
1601393897300,1456,-0.63623047,0.3908081,0.20892334
1601393897300,1457,-0.5998535,0.1906128,0.14569092
1601393897300,1458,-0.8234863,0.24627686,0.26776123
1601393897301,1459,-0.80249023,0.51483154,0.27557373
1601393897301,1460,-0.8457031,0.3348999,0.23040771
1601393897303,1461,-0.8457031,0.3348999,0.23040771
1601393897311,1462,-1.2885742,0.2518921,0.30096436
1601393897311,1463,-0.5998535,0.1906128,0.14569092
1601393897311,1464,-1.2885742,0.2518921,0.30096436
1601393897312,1465,-1.1306152,0.54241943,0.4562378
1601393897316,1466,-1.3349609,0.19012451,0.23284912
1601393897316,1467,-1.3349609,0.19012451,0.23284912
1601393897316,1468,-1.2265625,0.51849365,0.46673584
1601393897317,1469,-0.80249023,0.51483154,0.27557373
1601393897317,1470,-1.0056152,0.24969482,0.2531128
1601393897317,1471,-1.0056152,0.24969482,0.2531128
1601393897321,1472,-1.4172363,0.5524292,0.52386475
1601393897322,1473,-1.1306152,0.54241943,0.4562378
1601393897322,1474,-0.8234863,0.24627686,0.26776123
1601393897322,1475,-0.8234863,0.24627686,0.26776123
1601393897328,1476,-1.4082031,0.47821045,0.3163452
1601393897328,1477,-1.2265625,0.51849365,0.46673584
1601393897328,1478,-0.5998535,0.1906128,0.14569092
1601393897329,1479,-0.5998535,0.1906128,0.14569092
1601393897329,1480,-0.80249023,0.51483154,0.27557373
1601393897330,1481,-1.4172363,0.5524292,0.52386475
1601393897332,1482,-1.2351074,0.3192749,0.184021
1601393897334,1483,-1.1306152,0.54241943,0.4562378
1601393897335,1484,-1.4082031,0.47821045,0.3163452
1601393897337,1485,-0.83032227,0.25506592,0.0758667
1601393897340,1486,-0.80249023,0.51483154,0.27557373
1601393897340,1487,-1.2351074,0.3192749,0.184021
1601393897341,1488,-0.83032227,0.25506592,0.0758667
1601393897341,1489,-1.2265625,0.51849365,0.46673584
1601393897342,1490,-1.1306152,0.54241943,0.4562378
1601393897344,1491,-0.9030762,0.27386475,0.032165527
1601393897349,1492,-0.9030762,0.27386475,0.032165527
1601393897350,1493,-1.2265625,0.51849365,0.46673584
1601393897350,1494,-1.4172363,0.5524292,0.52386475
1601393897350,1495,-1.1218262,0.22821045,0.038024902
1601393897350,1496,-1.4082031,0.47821045,0.3163452
1601393897350,1497,-1.1391602,0.22210693,0.13763428
1601393897351,1498,-1.2351074,0.3192749,0.184021
1601393897355,1499,-1.1218262,0.22821045,0.038024902
1601393897356,1500,-1.1884766,0.19451904,0.18231201
1601393897356,1501,-1.1391602,0.22210693,0.13763428
1601393897356,1502,-0.83032227,0.25506592,0.0758667
1601393897357,1503,-0.9904785,0.24090576,0.32000732
1601393897365,1504,-0.9030762,0.27386475,0.032165527
1601393897367,1505,-1.1218262,0.22821045,0.038024902
1601393897368,1506,-1.4172363,0.5524292,0.52386475
1601393897369,1507,-1.1884766,0.19451904,0.18231201
1601393897370,1508,-0.9428711,0.38006592,0.32318115
1601393897371,1509,-1.4082031,0.47821045,0.3163452
1601393897371,1510,-1.1391602,0.22210693,0.13763428
1601393897378,1511,-0.9904785,0.24090576,0.32000732
1601393897378,1512,-1.2351074,0.3192749,0.184021
1601393897378,1513,-0.79956055,0.64886475,0.3312378
1601393897378,1514,-1.1884766,0.19451904,0.18231201
1601393897379,1515,-0.9428711,0.38006592,0.32318115
1601393897388,1516,-0.9904785,0.24090576,0.32000732
1601393897388,1517,-0.8015137,0.79608154,0.36663818
1601393897389,1518,-0.83032227,0.25506592,0.0758667
1601393897389,1519,-0.79956055,0.64886475,0.3312378
1601393897389,1520,-0.8015137,0.79608154,0.36663818
1601393897389,1521,-0.9428711,0.38006592,0.32318115
1601393897389,1522,-0.9030762,0.27386475,0.032165527
1601393897393,1523,-0.8808594,0.7440796,0.3065796
1601393897393,1524,-0.79956055,0.64886475,0.3312378
1601393897393,1525,-0.8808594,0.7440796,0.3065796
1601393897396,1526,-1.1218262,0.22821045,0.038024902
1601393897398,1527,-0.8015137,0.79608154,0.36663818
1601393897400,1528,-1.1391602,0.22210693,0.13763428
1601393897401,1529,-0.8808594,0.7440796,0.3065796
1601393897406,1530,-1.1884766,0.19451904,0.18231201
1601393897407,1531,-0.9904785,0.24090576,0.32000732
1601393897412,1532,-0.9428711,0.38006592,0.32318115
1601393897416,1533,-0.79956055,0.64886475,0.3312378
1601393897416,1534,-0.8015137,0.79608154,0.36663818
1601393897416,1535,-0.8808594,0.7440796,0.3065796
