# Sensor position: Wrist
# Sensor side: Right
# Activity type: Sitting
# Activity code: 0
# Subject id: s1746788
timestamp,seq,accel_x,accel_y,accel_z
1601392555957,0,0.13842773,-0.4993286,0.8566284
1601392555960,1,0.107177734,-0.4439087,0.8890991
1601392555961,2,0.13842773,-0.4993286,0.8566284
1601392555962,3,0.13842773,-0.4993286,0.8566284
1601392555963,4,-0.01953125,-0.46343994,0.8890991
1601392555964,5,0.13842773,-0.4993286,0.8566284
1601392555965,6,0.13842773,-0.4993286,0.8566284
1601392555965,7,0.107177734,-0.4439087,0.8890991
1601392555969,8,0.107177734,-0.4439087,0.8890991
1601392555970,9,0.107177734,-0.4439087,0.8890991
1601392555972,10,0.107177734,-0.4439087,0.8890991
1601392555979,11,-0.01953125,-0.46343994,0.8890991
1601392555979,12,-0.01953125,-0.46343994,0.8890991
1601392555980,13,0.020996094,-0.40020752,0.980896
1601392555980,14,-0.01953125,-0.46343994,0.8890991
1601392555981,15,-0.01953125,-0.46343994,0.8890991
1601392555983,16,0.123046875,-0.33966064,0.96014404
1601392555994,17,0.020996094,-0.40020752,0.980896
1601392555994,18,0.020996094,-0.40020752,0.980896
1601392555995,19,0.13842773,-0.4993286,0.8566284
1601392555995,20,0.020996094,-0.40020752,0.980896
1601392555996,21,0.020996094,-0.40020752,0.980896
1601392555997,22,0.16333008,-0.28790283,0.77142334
1601392555998,23,0.123046875,-0.33966064,0.96014404
1601392555998,24,0.123046875,-0.33966064,0.96014404
1601392555999,25,0.16333008,-0.28790283,0.77142334
1601392556000,26,0.123046875,-0.33966064,0.96014404
1601392556001,27,-0.03857422,-0.3850708,0.93914795
1601392556004,28,-0.03857422,-0.3850708,0.93914795
1601392556005,29,0.107177734,-0.4439087,0.8890991
1601392556006,30,0.123046875,-0.33966064,0.96014404
1601392556008,31,0.16333008,-0.28790283,0.77142334
1601392556036,32,0.16333008,-0.28790283,0.77142334
1601392556036,33,-0.01953125,-0.46343994,0.8890991
1601392556036,34,0.16333008,-0.28790283,0.77142334
1601392556037,35,-0.03173828,-0.36602783,0.8973999
1601392556038,36,-0.03173828,-0.36602783,0.8973999
1601392556039,37,-0.03857422,-0.3850708,0.93914795
1601392556040,38,-0.0075683594,-0.2930298,0.8534546
1601392556041,39,-0.03857422,-0.3850708,0.93914795
1601392556042,40,0.020996094,-0.40020752,0.980896
1601392556043,41,-0.03857422,-0.3850708,0.93914795
1601392556044,42,-0.03173828,-0.36602783,0.8973999
1601392556045,43,-0.0075683594,-0.2930298,0.8534546
1601392556045,44,-0.03173828,-0.36602783,0.8973999
1601392556046,45,-0.09692383,-0.19464111,0.9689331
1601392556047,46,-0.09692383,-0.19464111,0.9689331
1601392556048,47,-0.091552734,-0.18536377,0.96746826
1601392556048,48,-0.0075683594,-0.2930298,0.8534546
1601392556049,49,-0.09692383,-0.19464111,0.9689331
1601392556050,50,-0.0075683594,-0.2930298,0.8534546
1601392556052,51,-0.10083008,-0.14996338,0.9442749
1601392556052,52,-0.09692383,-0.19464111,0.9689331
1601392556052,53,-0.091552734,-0.18536377,0.96746826
1601392556053,54,0.123046875,-0.33966064,0.96014404
1601392556053,55,-0.091552734,-0.18536377,0.96746826
1601392556054,56,-0.03173828,-0.36602783,0.8973999
1601392556055,57,0.16333008,-0.28790283,0.77142334
1601392556063,58,-0.091552734,-0.18536377,0.96746826
1601392556064,59,-0.10083008,-0.14996338,0.9442749
1601392556064,60,-0.13720703,-0.10357666,0.96429443
1601392556064,61,-0.10083008,-0.14996338,0.9442749
1601392556065,62,-0.03857422,-0.3850708,0.93914795
1601392556066,63,-0.10083008,-0.14996338,0.9442749
1601392556066,64,-0.0075683594,-0.2930298,0.8534546
1601392556067,65,-0.13720703,-0.10357666,0.96429443
1601392556075,66,-0.1381836,-0.06085205,0.930603
1601392556076,67,-0.13720703,-0.10357666,0.96429443
1601392556078,68,-0.03173828,-0.36602783,0.8973999
1601392556078,69,-0.13720703,-0.10357666,0.96429443
1601392556078,70,-0.09692383,-0.19464111,0.9689331
1601392556079,71,-0.0075683594,-0.2930298,0.8534546
1601392556080,72,-0.111328125,0.03704834,0.93011475
1601392556080,73,-0.09692383,-0.19464111,0.9689331
1601392556083,74,-0.1381836,-0.06085205,0.930603
1601392556090,75,-0.1381836,-0.06085205,0.930603
1601392556091,76,-0.10205078,0.10345459,0.93621826
1601392556091,77,-0.091552734,-0.18536377,0.96746826
1601392556091,78,-0.091552734,-0.18536377,0.96746826
1601392556091,79,-0.1381836,-0.06085205,0.930603
1601392556092,80,-0.10083008,-0.14996338,0.9442749
1601392556099,81,-0.111328125,0.03704834,0.93011475
1601392556099,82,-0.087890625,0.13519287,0.91864014
1601392556099,83,-0.10083008,-0.14996338,0.9442749
1601392556100,84,-0.111328125,0.03704834,0.93011475
1601392556100,85,-0.13720703,-0.10357666,0.96429443
1601392556100,86,-0.13720703,-0.10357666,0.96429443
1601392556108,87,-0.10205078,0.10345459,0.93621826
1601392556108,88,-0.07373047,0.15545654,0.95721436
1601392556110,89,-0.10205078,0.10345459,0.93621826
1601392556110,90,-0.111328125,0.03704834,0.93011475
1601392556111,91,-0.1381836,-0.06085205,0.930603
1601392556112,92,-0.1381836,-0.06085205,0.930603
1601392556114,93,-0.087890625,0.13519287,0.91864014
1601392556117,94,-0.049560547,0.15350342,0.94647217
1601392556118,95,-0.111328125,0.03704834,0.93011475
1601392556119,96,-0.111328125,0.03704834,0.93011475
1601392556131,97,-0.07373047,0.15545654,0.95721436
1601392556131,98,-0.087890625,0.13519287,0.91864014
1601392556132,99,-0.05908203,0.11907959,0.93792725
1601392556132,100,-0.10205078,0.10345459,0.93621826
1601392556132,101,-0.10205078,0.10345459,0.93621826
1601392556133,102,-0.10205078,0.10345459,0.93621826
1601392556133,103,-0.087890625,0.13519287,0.91864014
1601392556133,104,-0.087890625,0.13519287,0.91864014
1601392556133,105,-0.07373047,0.15545654,0.95721436
1601392556134,106,-0.057373047,0.11419678,0.9567261
1601392556134,107,-0.087890625,0.13519287,0.91864014
1601392556134,108,-0.0546875,0.098083496,0.9606323
1601392556148,109,-0.07373047,0.15545654,0.95721436
1601392556149,110,-0.07373047,0.15545654,0.95721436
1601392556149,111,-0.049560547,0.15350342,0.94647217
1601392556149,112,-0.049560547,0.15350342,0.94647217
1601392556150,113,-0.07373047,0.15545654,0.95721436
1601392556150,114,-0.05908203,0.11907959,0.93792725
1601392556150,115,-0.049560547,0.15350342,0.94647217
1601392556151,116,-0.049560547,0.15350342,0.94647217
1601392556151,117,-0.047607422,0.08392334,0.9581909
1601392556151,118,-0.05908203,0.11907959,0.93792725
1601392556151,119,-0.053710938,0.06072998,0.9725952
1601392556170,120,-0.057373047,0.11419678,0.9567261
1601392556171,121,-0.05908203,0.11907959,0.93792725
1601392556172,122,-0.05908203,0.11907959,0.93792725
1601392556173,123,-0.049560547,0.15350342,0.94647217
1601392556173,124,-0.057373047,0.11419678,0.9567261
1601392556175,125,-0.03100586,0.10809326,0.9682007
1601392556176,126,-0.0546875,0.098083496,0.9606323
1601392556176,127,-0.033447266,0.19866943,0.9364624
1601392556177,128,-0.0546875,0.098083496,0.9606323
1601392556178,129,-0.047607422,0.08392334,0.9581909
1601392556179,130,-0.05908203,0.11907959,0.93792725
1601392556179,131,-0.057373047,0.11419678,0.9567261
1601392556180,132,-0.057373047,0.11419678,0.9567261
1601392556181,133,-0.057373047,0.11419678,0.9567261
1601392556182,134,-0.047607422,0.08392334,0.9581909
1601392556182,135,-0.053710938,0.06072998,0.9725952
1601392556183,136,-0.0546875,0.098083496,0.9606323
1601392556184,137,-0.33251953,0.05267334,0.97772217
1601392556185,138,-0.0546875,0.098083496,0.9606323
1601392556185,139,-0.0546875,0.098083496,0.9606323
1601392556186,140,-0.047607422,0.08392334,0.9581909
1601392556189,141,-0.047607422,0.08392334,0.9581909
1601392556196,142,-0.053710938,0.06072998,0.9725952
1601392556196,143,-0.047607422,0.08392334,0.9581909
1601392556197,144,-0.053710938,0.06072998,0.9725952
1601392556197,145,-0.053710938,0.06072998,0.9725952
1601392556197,146,-0.03100586,0.10809326,0.9682007
1601392556198,147,-0.03100586,0.10809326,0.9682007
1601392556201,148,-0.053710938,0.06072998,0.9725952
1601392556201,149,-0.6098633,-0.1831665,0.97088623
1601392556204,150,-0.03100586,0.10809326,0.9682007
1601392556204,151,-0.033447266,0.19866943,0.9364624
1601392556209,152,-0.03100586,0.10809326,0.9682007
1601392556210,153,-0.03100586,0.10809326,0.9682007
1601392556210,154,-0.3083496,-0.2539673,0.86102295
1601392556216,155,-0.033447266,0.19866943,0.9364624
1601392556216,156,-0.33251953,0.05267334,0.97772217
1601392556225,157,-0.033447266,0.19866943,0.9364624
1601392556225,158,-0.033447266,0.19866943,0.9364624
1601392556226,159,0.09375,-0.14093018,0.8817749
1601392556227,160,-0.33251953,0.05267334,0.97772217
1601392556227,161,-0.033447266,0.19866943,0.9364624
1601392556229,162,0.107910156,-0.1663208,0.99383545
1601392556230,163,-0.6098633,-0.1831665,0.97088623
1601392556230,164,-0.33251953,0.05267334,0.97772217
1601392556232,165,-0.6098633,-0.1831665,0.97088623
1601392556233,166,-0.33251953,0.05267334,0.97772217
1601392556243,167,-0.33251953,0.05267334,0.97772217
1601392556243,168,-0.100097656,-0.06842041,1.0907593
1601392556244,169,-0.3083496,-0.2539673,0.86102295
1601392556244,170,-0.6098633,-0.1831665,0.97088623
1601392556244,171,-0.6098633,-0.1831665,0.97088623
1601392556244,172,0.09375,-0.14093018,0.8817749
1601392556244,173,-0.3083496,-0.2539673,0.86102295
1601392556245,174,-0.3083496,-0.2539673,0.86102295
1601392556246,175,-0.6098633,-0.1831665,0.97088623
1601392556246,176,-0.3083496,-0.2539673,0.86102295
1601392556247,177,0.107910156,-0.1663208,0.99383545
1601392556251,178,0.09375,-0.14093018,0.8817749
1601392556252,179,0.09375,-0.14093018,0.8817749
1601392556252,180,-0.3083496,-0.2539673,0.86102295
1601392556252,181,0.09375,-0.14093018,0.8817749
1601392556253,182,-0.100097656,-0.06842041,1.0907593
1601392556256,183,0.107910156,-0.1663208,0.99383545
1601392556257,184,0.107910156,-0.1663208,0.99383545
1601392556257,185,-0.100097656,-0.06842041,1.0907593
1601392556257,186,0.107910156,-0.1663208,0.99383545
1601392556261,187,0.09375,-0.14093018,0.8817749
1601392556261,188,-0.100097656,-0.06842041,1.0907593
1601392556264,189,-0.100097656,-0.06842041,1.0907593
1601392556264,190,0.107910156,-0.1663208,0.99383545
1601392556267,191,-0.100097656,-0.06842041,1.0907593
1601392558452,192,-0.17529297,-0.062805176,0.8864136
1601392558452,193,-0.17529297,-0.062805176,0.8864136
1601392558453,194,-0.17529297,-0.062805176,0.8864136
1601392558454,195,-0.17529297,-0.062805176,0.8864136
1601392558454,196,-0.17529297,-0.062805176,0.8864136
1601392558456,197,-0.49438477,-0.10333252,0.8522339
1601392558459,198,-0.49438477,-0.10333252,0.8522339
1601392558461,199,-0.49438477,-0.10333252,0.8522339
1601392558463,200,-0.17529297,-0.062805176,0.8864136
1601392558467,201,-0.49438477,-0.10333252,0.8522339
1601392558467,202,-0.6525879,-0.02154541,0.7460327
1601392558468,203,-0.49438477,-0.10333252,0.8522339
1601392558476,204,-0.6525879,-0.02154541,0.7460327
1601392558476,205,-0.49438477,-0.10333252,0.8522339
1601392558477,206,-1.1674805,-0.0115356445,0.7819214
1601392558478,207,-0.6525879,-0.02154541,0.7460327
1601392558480,208,-0.6525879,-0.02154541,0.7460327
1601392558480,209,-1.1674805,-0.0115356445,0.7819214
1601392558480,210,-0.6525879,-0.02154541,0.7460327
1601392558483,211,-0.6525879,-0.02154541,0.7460327
1601392558485,212,-0.9001465,0.051452637,0.3517456
1601392558502,213,-0.96240234,-0.13043213,0.3756714
1601392558503,214,-0.9001465,0.051452637,0.3517456
1601392558504,215,-1.1674805,-0.0115356445,0.7819214
1601392558504,216,-1.1674805,-0.0115356445,0.7819214
1601392558505,217,-1.1674805,-0.0115356445,0.7819214
1601392558506,218,-0.9001465,0.051452637,0.3517456
1601392558507,219,-0.9001465,0.051452637,0.3517456
1601392558508,220,-0.9987793,-0.007873535,0.19940186
1601392558509,221,-1.0878906,-0.11138916,0.21209717
1601392558510,222,-0.9001465,0.051452637,0.3517456
1601392558511,223,-1.1674805,-0.0115356445,0.7819214
1601392558511,224,-0.96240234,-0.13043213,0.3756714
1601392558512,225,-0.96240234,-0.13043213,0.3756714
1601392558513,226,-0.96240234,-0.13043213,0.3756714
1601392558514,227,-0.96240234,-0.13043213,0.3756714
1601392558515,228,-0.97802734,-0.11529541,0.24700928
1601392558516,229,-0.9001465,0.051452637,0.3517456
1601392558523,230,-0.9987793,-0.007873535,0.19940186
1601392558523,231,-0.9987793,-0.007873535,0.19940186
1601392558524,232,-0.9987793,-0.007873535,0.19940186
1601392558525,233,-0.9987793,-0.007873535,0.19940186
1601392558526,234,-1.0397949,-0.101135254,0.11590576
1601392558527,235,-0.96240234,-0.13043213,0.3756714
1601392558528,236,-1.0878906,-0.11138916,0.21209717
1601392558533,237,-1.0878906,-0.11138916,0.21209717
1601392558534,238,-1.0878906,-0.11138916,0.21209717
1601392558536,239,-0.9987793,-0.007873535,0.19940186
1601392558536,240,-1.0878906,-0.11138916,0.21209717
1601392558537,241,-0.9892578,-0.124572754,0.30413818
1601392558538,242,-1.0878906,-0.11138916,0.21209717
1601392558541,243,-0.97802734,-0.11529541,0.24700928
1601392558546,244,-1.0397949,-0.101135254,0.11590576
1601392558547,245,-0.97802734,-0.11529541,0.24700928
1601392558548,246,-0.85595703,-0.19537354,0.5504761
1601392558548,247,-0.97802734,-0.11529541,0.24700928
1601392558552,248,-1.0397949,-0.101135254,0.11590576
1601392558552,249,-0.97802734,-0.11529541,0.24700928
1601392558562,250,-0.9892578,-0.124572754,0.30413818
1601392558563,251,-0.97802734,-0.11529541,0.24700928
1601392558563,252,-0.7626953,-0.20367432,0.5778198
1601392558564,253,-1.0397949,-0.101135254,0.11590576
1601392558565,254,-0.9892578,-0.124572754,0.30413818
1601392558566,255,-1.0397949,-0.101135254,0.11590576
1601392558567,256,-0.85595703,-0.19537354,0.5504761
1601392558568,257,-0.85595703,-0.19537354,0.5504761
1601392558568,258,-1.0397949,-0.101135254,0.11590576
1601392558571,259,-0.9892578,-0.124572754,0.30413818
1601392558572,260,-0.7651367,-0.20904541,0.83343506
1601392558572,261,-0.9892578,-0.124572754,0.30413818
1601392558572,262,-0.7626953,-0.20367432,0.5778198
1601392558575,263,-0.7651367,-0.20904541,0.83343506
1601392558596,264,-0.4074707,-0.3118286,0.97088623
1601392558596,265,-0.9892578,-0.124572754,0.30413818
1601392558597,266,-0.7626953,-0.20367432,0.5778198
1601392558598,267,-0.85595703,-0.19537354,0.5504761
1601392558599,268,-0.4074707,-0.3118286,0.97088623
1601392558600,269,-0.27026367,-0.17047119,0.93621826
1601392558601,270,-0.85595703,-0.19537354,0.5504761
1601392558601,271,-0.040039062,-0.23028564,0.86883545
1601392558602,272,-0.7626953,-0.20367432,0.5778198
1601392558603,273,-0.27026367,-0.17047119,0.93621826
1601392558604,274,-0.7626953,-0.20367432,0.5778198
1601392558605,275,-0.85595703,-0.19537354,0.5504761
1601392558606,276,-0.7651367,-0.20904541,0.83343506
1601392558606,277,-0.033203125,-0.23248291,0.9586792
1601392558607,278,-0.7651367,-0.20904541,0.83343506
1601392558608,279,-0.040039062,-0.23028564,0.86883545
1601392558609,280,-0.4074707,-0.3118286,0.97088623
1601392558609,281,-0.7651367,-0.20904541,0.83343506
1601392558610,282,-0.7626953,-0.20367432,0.5778198
1601392558611,283,-0.4074707,-0.3118286,0.97088623
1601392558612,284,-0.4074707,-0.3118286,0.97088623
1601392558621,285,-0.033203125,-0.23248291,0.9586792
1601392558622,286,-0.27026367,-0.17047119,0.93621826
1601392558623,287,-0.7651367,-0.20904541,0.83343506
1601392558623,288,0.0017089844,-0.269104,0.90911865
1601392558624,289,-0.27026367,-0.17047119,0.93621826
1601392558625,290,-0.27026367,-0.17047119,0.93621826
1601392558625,291,0.0017089844,-0.269104,0.90911865
1601392558626,292,-0.040039062,-0.23028564,0.86883545
1601392558627,293,-0.4074707,-0.3118286,0.97088623
1601392558628,294,-0.033203125,-0.23248291,0.9586792
1601392558629,295,-0.040039062,-0.23028564,0.86883545
1601392558632,296,0.09301758,-0.2107544,0.90960693
1601392558643,297,-0.27026367,-0.17047119,0.93621826
1601392558644,298,0.0017089844,-0.269104,0.90911865
1601392558644,299,0.09301758,-0.2107544,0.90960693
1601392558644,300,-0.033203125,-0.23248291,0.9586792
1601392558645,301,-0.040039062,-0.23028564,0.86883545
1601392558645,302,0.23779297,-0.1729126,0.8961792
1601392558645,303,-0.033203125,-0.23248291,0.9586792
1601392558645,304,-0.040039062,-0.23028564,0.86883545
1601392558646,305,0.23779297,-0.1729126,0.8961792
1601392558646,306,0.0017089844,-0.269104,0.90911865
1601392558647,307,0.09301758,-0.2107544,0.90960693
1601392558647,308,0.25952148,-0.348938,0.80511475
1601392558647,309,0.23779297,-0.1729126,0.8961792
1601392558647,310,0.23388672,-0.1729126,0.8617554
1601392558648,311,-0.033203125,-0.23248291,0.9586792
1601392558648,312,0.25952148,-0.348938,0.80511475
1601392558651,313,0.0017089844,-0.269104,0.90911865
1601392558657,314,0.17016602,-0.17828369,0.8265991
1601392558657,315,0.25952148,-0.348938,0.80511475
1601392558658,316,0.0017089844,-0.269104,0.90911865
1601392558659,317,0.23388672,-0.1729126,0.8617554
1601392558659,318,0.09301758,-0.2107544,0.90960693
1601392558660,319,0.09301758,-0.2107544,0.90960693
1601392558662,320,0.23779297,-0.1729126,0.8961792
1601392558664,321,0.23388672,-0.1729126,0.8617554
1601392558671,322,0.12792969,-0.120910645,0.8366089
1601392558672,323,0.09301758,-0.2107544,0.90960693
1601392558672,324,0.17016602,-0.17828369,0.8265991
1601392558672,325,0.25952148,-0.348938,0.80511475
1601392558672,326,0.23779297,-0.1729126,0.8961792
1601392558673,327,0.23388672,-0.1729126,0.8617554
1601392558688,328,-0.07910156,-0.24127197,0.9567261
1601392558689,329,0.23779297,-0.1729126,0.8961792
1601392558691,330,0.12792969,-0.120910645,0.8366089
1601392558692,331,0.25952148,-0.348938,0.80511475
1601392558692,332,0.17016602,-0.17828369,0.8265991
1601392558694,333,0.17016602,-0.17828369,0.8265991
1601392558705,334,-0.06347656,-0.1260376,1.0546265
1601392558706,335,0.25952148,-0.348938,0.80511475
1601392558709,336,0.12792969,-0.120910645,0.8366089
1601392558709,337,0.23388672,-0.1729126,0.8617554
1601392558709,338,0.12792969,-0.120910645,0.8366089
1601392558712,339,-0.07910156,-0.24127197,0.9567261
1601392558712,340,-0.07910156,-0.24127197,0.9567261
1601392558712,341,-0.1003418,-0.17364502,1.039978
1601392558712,342,-0.07910156,-0.24127197,0.9567261
1601392558713,343,0.23388672,-0.1729126,0.8617554
1601392558733,344,-0.06347656,-0.1260376,1.0546265
1601392558733,345,0.17016602,-0.17828369,0.8265991
1601392558735,346,-0.06347656,-0.1260376,1.0546265
1601392558735,347,-0.06347656,-0.1260376,1.0546265
1601392558736,348,-0.12084961,-0.121398926,0.96990967
1601392558738,349,0.17016602,-0.17828369,0.8265991
1601392558738,350,-0.1003418,-0.17364502,1.039978
1601392558740,351,-0.1887207,0.012634277,0.8649292
1601392558740,352,0.12792969,-0.120910645,0.8366089
1601392558740,353,-0.07910156,-0.24127197,0.9567261
1601392558741,354,-0.06347656,-0.1260376,1.0546265
1601392558742,355,0.12792969,-0.120910645,0.8366089
1601392558749,356,-0.12084961,-0.121398926,0.96990967
1601392558750,357,-0.30786133,-0.12261963,0.79486084
1601392558751,358,-0.1003418,-0.17364502,1.039978
1601392558751,359,-0.1887207,0.012634277,0.8649292
1601392558752,360,-0.1003418,-0.17364502,1.039978
1601392558752,361,-0.30786133,-0.12261963,0.79486084
1601392558756,362,-0.1003418,-0.17364502,1.039978
1601392558758,363,-0.07910156,-0.24127197,0.9567261
1601392558760,364,-0.12084961,-0.121398926,0.96990967
1601392558762,365,-0.40625,-0.37384033,0.86639404
1601392558768,366,-0.12084961,-0.121398926,0.96990967
1601392558768,367,-0.06347656,-0.1260376,1.0546265
1601392558769,368,-0.40625,-0.37384033,0.86639404
1601392558769,369,-0.1887207,0.012634277,0.8649292
1601392558769,370,-0.12084961,-0.121398926,0.96990967
1601392558769,371,-0.30786133,-0.12261963,0.79486084
1601392558773,372,-0.1887207,0.012634277,0.8649292
1601392558773,373,-0.1003418,-0.17364502,1.039978
1601392558775,374,-0.1887207,0.012634277,0.8649292
1601392558775,375,-0.40625,-0.37384033,0.86639404
1601392558778,376,-0.30786133,-0.12261963,0.79486084
1601392558779,377,-0.12084961,-0.121398926,0.96990967
1601392558779,378,-0.30786133,-0.12261963,0.79486084
1601392558783,379,-0.40625,-0.37384033,0.86639404
1601392558783,380,-0.1887207,0.012634277,0.8649292
1601392558784,381,-0.30786133,-0.12261963,0.79486084
1601392558786,382,-0.40625,-0.37384033,0.86639404
1601392558786,383,-0.40625,-0.37384033,0.86639404
1601392560854,384,-0.2043457,-0.17486572,1.0722046
1601392560854,385,-0.2043457,-0.17486572,1.0722046
1601392560855,386,-0.2043457,-0.17486572,1.0722046
1601392560856,387,-0.088378906,-0.024230957,1.2020874
1601392560857,388,-0.2043457,-0.17486572,1.0722046
1601392560858,389,-0.2043457,-0.17486572,1.0722046
1601392560877,390,-0.29541016,-0.35943604,0.8534546
1601392560878,391,-0.2043457,-0.17486572,1.0722046
1601392560879,392,-0.088378906,-0.024230957,1.2020874
1601392560880,393,-0.088378906,-0.024230957,1.2020874
1601392560881,394,-0.088378906,-0.024230957,1.2020874
1601392560882,395,-0.088378906,-0.024230957,1.2020874
1601392560883,396,-0.3527832,-0.45367432,0.8234253
1601392560884,397,-0.22680664,-0.18951416,0.99554443
1601392560885,398,-0.088378906,-0.024230957,1.2020874
1601392560885,399,-0.29541016,-0.35943604,0.8534546
1601392560886,400,-0.29541016,-0.35943604,0.8534546
1601392560886,401,-0.3527832,-0.45367432,0.8234253
1601392560887,402,-0.3527832,-0.45367432,0.8234253
1601392560887,403,-0.22680664,-0.18951416,0.99554443
1601392560888,404,-0.20507812,0.00579834,0.95062256
1601392560888,405,-0.29541016,-0.35943604,0.8534546
1601392560889,406,-0.22680664,-0.18951416,0.99554443
1601392560892,407,-0.29541016,-0.35943604,0.8534546
1601392560894,408,-0.20507812,0.00579834,0.95062256
1601392560897,409,-0.2824707,-0.086242676,0.9179077
1601392560905,410,-0.29541016,-0.35943604,0.8534546
1601392560905,411,-0.3527832,-0.45367432,0.8234253
1601392560906,412,-0.3527832,-0.45367432,0.8234253
1601392560906,413,-0.2824707,-0.086242676,0.9179077
1601392560906,414,-0.20507812,0.00579834,0.95062256
1601392560908,415,-0.35375977,-0.07696533,0.9137573
1601392560917,416,-0.22680664,-0.18951416,0.99554443
1601392560917,417,-0.3527832,-0.45367432,0.8234253
1601392560917,418,-0.35375977,-0.07696533,0.9137573
1601392560919,419,-0.22680664,-0.18951416,0.99554443
1601392560919,420,-0.2824707,-0.086242676,0.9179077
1601392560921,421,-0.3371582,-0.11065674,0.920105
1601392560923,422,-0.20507812,0.00579834,0.95062256
1601392560933,423,-0.22680664,-0.18951416,0.99554443
1601392560934,424,-0.3371582,-0.11065674,0.920105
1601392560935,425,-0.35375977,-0.07696533,0.9137573
1601392560936,426,-0.26831055,-0.12017822,0.9105835
1601392560936,427,-0.3371582,-0.11065674,0.920105
1601392560937,428,-0.20507812,0.00579834,0.95062256
1601392560939,429,-0.26831055,-0.12017822,0.9105835
1601392560939,430,-0.26831055,-0.12017822,0.9105835
1601392560939,431,-0.20507812,0.00579834,0.95062256
1601392560940,432,-0.2824707,-0.086242676,0.9179077
1601392560941,433,-0.24731445,-0.09136963,0.97528076
1601392560942,434,-0.2824707,-0.086242676,0.9179077
1601392560955,435,-0.35375977,-0.07696533,0.9137573
1601392560955,436,-0.2824707,-0.086242676,0.9179077
1601392560955,437,-0.2631836,-0.09039307,0.91741943
1601392560956,438,-0.35375977,-0.07696533,0.9137573
1601392560956,439,-0.24731445,-0.09136963,0.97528076
1601392560956,440,-0.24731445,-0.09136963,0.97528076
1601392560957,441,-0.3371582,-0.11065674,0.920105
1601392560957,442,-0.2631836,-0.09039307,0.91741943
1601392560957,443,-0.26831055,-0.12017822,0.9105835
1601392560958,444,-0.2331543,-0.1182251,0.9291382
1601392560958,445,-0.3371582,-0.11065674,0.920105
1601392560959,446,-0.35375977,-0.07696533,0.9137573
1601392560959,447,-0.26831055,-0.12017822,0.9105835
1601392560965,448,-0.24731445,-0.09136963,0.97528076
1601392560966,449,-0.2331543,-0.1182251,0.9291382
1601392560968,450,-0.24584961,-0.10821533,0.9298706
1601392560968,451,-0.3371582,-0.11065674,0.920105
1601392560969,452,-0.2631836,-0.09039307,0.91741943
1601392560969,453,-0.24731445,-0.09136963,0.97528076
1601392560990,454,-0.2631836,-0.09039307,0.91741943
1601392560992,455,-0.24584961,-0.10821533,0.9298706
1601392560992,456,-0.2626953,-0.128479,0.932312
1601392560992,457,-0.2626953,-0.128479,0.932312
1601392560993,458,-0.26831055,-0.12017822,0.9105835
1601392560993,459,-0.2631836,-0.09039307,0.91741943
1601392560994,460,-0.2331543,-0.1182251,0.9291382
1601392560995,461,-0.24731445,-0.09136963,0.97528076
1601392560996,462,-0.2331543,-0.1182251,0.9291382
1601392560996,463,-0.22241211,-0.07940674,1.0072632
1601392560997,464,-0.24584961,-0.10821533,0.9298706
1601392561000,465,-0.21826172,-0.077941895,0.94525146
1601392561000,466,-0.2626953,-0.128479,0.932312
1601392561001,467,-0.34155273,-0.006164551,0.8200073
1601392561001,468,-0.2631836,-0.09039307,0.91741943
1601392561001,469,-0.22241211,-0.07940674,1.0072632
1601392561001,470,-0.2331543,-0.1182251,0.9291382
1601392561002,471,-0.21826172,-0.077941895,0.94525146
1601392561003,472,-0.24584961,-0.10821533,0.9298706
1601392561004,473,-0.22241211,-0.07940674,1.0072632
1601392561005,474,-0.24584961,-0.10821533,0.9298706
1601392561008,475,-0.45703125,-0.109436035,0.75335693
1601392561010,476,-0.2626953,-0.128479,0.932312
1601392561012,477,-0.2626953,-0.128479,0.932312
1601392561013,478,-0.2331543,-0.1182251,0.9291382
1601392561016,479,-0.24584961,-0.10821533,0.9298706
1601392561023,480,-0.21826172,-0.077941895,0.94525146
1601392561024,481,-0.22241211,-0.07940674,1.0072632
1601392561024,482,-0.62524414,-0.18902588,0.9569702
1601392561025,483,-0.34155273,-0.006164551,0.8200073
1601392561026,484,-0.22241211,-0.07940674,1.0072632
1601392561028,485,-0.2626953,-0.128479,0.932312
1601392561028,486,-0.34155273,-0.006164551,0.8200073
1601392561030,487,-0.45703125,-0.109436035,0.75335693
1601392561033,488,-0.21826172,-0.077941895,0.94525146
1601392561034,489,-0.45703125,-0.109436035,0.75335693
1601392561041,490,-0.62524414,-0.18902588,0.9569702
1601392561041,491,-0.62524414,-0.18902588,0.9569702
1601392561041,492,-0.21826172,-0.077941895,0.94525146
1601392561042,493,-0.34155273,-0.006164551,0.8200073
1601392561042,494,-0.22241211,-0.07940674,1.0072632
1601392561043,495,-0.4350586,0.043640137,0.90740967
1601392561043,496,-0.4350586,0.043640137,0.90740967
1601392561050,497,-0.4350586,0.043640137,0.90740967
1601392561050,498,-0.21826172,-0.077941895,0.94525146
1601392561051,499,-0.34155273,-0.006164551,0.8200073
1601392561051,500,-0.22509766,0.070007324,0.9406128
1601392561051,501,-0.45703125,-0.109436035,0.75335693
1601392561051,502,-0.22509766,0.070007324,0.9406128
1601392561056,503,-0.22509766,0.070007324,0.9406128
1601392561056,504,-0.34155273,-0.006164551,0.8200073
1601392561057,505,-0.45703125,-0.109436035,0.75335693
1601392561059,506,-0.62524414,-0.18902588,0.9569702
1601392561061,507,-0.45703125,-0.109436035,0.75335693
1601392561065,508,-0.24291992,-0.019836426,0.9320679
1601392561073,509,-0.24291992,-0.019836426,0.9320679
1601392561073,510,-0.4350586,0.043640137,0.90740967
1601392561073,511,-0.24291992,-0.019836426,0.9320679
1601392561074,512,-0.22509766,0.070007324,0.9406128
1601392561074,513,-0.62524414,-0.18902588,0.9569702
1601392561075,514,-0.24291992,-0.019836426,0.9320679
1601392561078,515,-0.35986328,-0.059143066,0.914978
1601392561080,516,-0.36914062,-0.035461426,0.9220581
1601392561083,517,-0.35986328,-0.059143066,0.914978
1601392561093,518,-0.36914062,-0.035461426,0.9220581
1601392561094,519,-0.62524414,-0.18902588,0.9569702
1601392561094,520,-0.4350586,0.043640137,0.90740967
1601392561095,521,-0.4350586,0.043640137,0.90740967
1601392561095,522,-0.35986328,-0.059143066,0.914978
1601392561096,523,-0.22509766,0.070007324,0.9406128
1601392561097,524,-0.35986328,-0.059143066,0.914978
1601392561097,525,-0.34423828,-0.01739502,0.9154663
1601392561099,526,-0.22509766,0.070007324,0.9406128
1601392561100,527,-0.34423828,-0.01739502,0.9154663
1601392561100,528,-0.36914062,-0.035461426,0.9220581
1601392561101,529,-0.36914062,-0.035461426,0.9220581
1601392561103,530,-0.24291992,-0.019836426,0.9320679
1601392561105,531,-0.32739258,-0.042785645,0.91815186
1601392561118,532,-0.24291992,-0.019836426,0.9320679
1601392561119,533,-0.34423828,-0.01739502,0.9154663
1601392561120,534,-0.34423828,-0.01739502,0.9154663
1601392561120,535,-0.35986328,-0.059143066,0.914978
1601392561121,536,-0.32739258,-0.042785645,0.91815186
1601392561122,537,-0.33422852,-0.039611816,0.9188843
1601392561123,538,-0.3413086,-0.034240723,0.9147339
1601392561123,539,-0.32739258,-0.042785645,0.91815186
1601392561124,540,-0.36914062,-0.035461426,0.9220581
1601392561125,541,-0.33422852,-0.039611816,0.9188843
1601392561126,542,-0.34423828,-0.01739502,0.9154663
1601392561127,543,-0.33764648,-0.050598145,0.9176636
1601392561128,544,-0.35986328,-0.059143066,0.914978
1601392561131,545,-0.33422852,-0.039611816,0.9188843
1601392561142,546,-0.3413086,-0.034240723,0.9147339
1601392561143,547,-0.32739258,-0.042785645,0.91815186
1601392561143,548,-0.33764648,-0.050598145,0.9176636
1601392561144,549,-0.33422852,-0.039611816,0.9188843
1601392561145,550,-0.32739258,-0.042785645,0.91815186
1601392561145,551,-0.3413086,-0.034240723,0.9147339
1601392561146,552,-0.33422852,-0.039611816,0.9188843
1601392561148,553,-0.32226562,-0.054748535,0.9159546
1601392561148,554,-0.36914062,-0.035461426,0.9220581
1601392561148,555,-0.32226562,-0.054748535,0.9159546
1601392561149,556,-0.3413086,-0.034240723,0.9147339
1601392561158,557,-0.33764648,-0.050598145,0.9176636
1601392561159,558,-0.33203125,-0.051574707,0.9179077
1601392561159,559,-0.3413086,-0.034240723,0.9147339
1601392561159,560,-0.33203125,-0.051574707,0.9179077
1601392561159,561,-0.34423828,-0.01739502,0.9154663
1601392561160,562,-0.33764648,-0.050598145,0.9176636
1601392561160,563,-0.32226562,-0.054748535,0.9159546
1601392561168,564,-0.33764648,-0.050598145,0.9176636
1601392561169,565,-0.32226562,-0.054748535,0.9159546
1601392561169,566,-0.32739258,-0.042785645,0.91815186
1601392561170,567,-0.33203125,-0.051574707,0.9179077
1601392561170,568,-0.32226562,-0.054748535,0.9159546
1601392561175,569,-0.33203125,-0.051574707,0.9179077
1601392561176,570,-0.33422852,-0.039611816,0.9188843
1601392561178,571,-0.33203125,-0.051574707,0.9179077
1601392561179,572,-0.3413086,-0.034240723,0.9147339
1601392561184,573,-0.33764648,-0.050598145,0.9176636
1601392561188,574,-0.32226562,-0.054748535,0.9159546
1601392561188,575,-0.33203125,-0.051574707,0.9179077
1601392563853,576,-0.33862305,-0.059387207,0.91815186
1601392563853,577,-0.33862305,-0.059387207,0.91815186
1601392563854,578,-0.33862305,-0.059387207,0.91815186
1601392563855,579,-0.33862305,-0.059387207,0.91815186
1601392563855,580,-0.33862305,-0.059387207,0.91815186
1601392563856,581,-0.33862305,-0.059387207,0.91815186
1601392563858,582,-0.34179688,-0.062316895,0.91937256
1601392563861,583,-0.33544922,-0.07086182,0.9113159
1601392563871,584,-0.34179688,-0.062316895,0.91937256
1601392563872,585,-0.34179688,-0.062316895,0.91937256
1601392563873,586,-0.34179688,-0.062316895,0.91937256
1601392563874,587,-0.33544922,-0.07086182,0.9113159
1601392563875,588,-0.34179688,-0.062316895,0.91937256
1601392563876,589,-0.33666992,-0.06378174,0.920105
1601392563877,590,-0.33544922,-0.07086182,0.9113159
1601392563877,591,-0.33544922,-0.07086182,0.9113159
1601392563878,592,-0.34179688,-0.062316895,0.91937256
1601392563880,593,-0.33544922,-0.07086182,0.9113159
1601392563881,594,-0.33666992,-0.06378174,0.920105
1601392563881,595,-0.34643555,-0.06866455,0.91448975
1601392563889,596,-0.33666992,-0.06378174,0.920105
1601392563889,597,-0.33666992,-0.06378174,0.920105
1601392563890,598,-0.34643555,-0.06866455,0.91448975
1601392563891,599,-0.35229492,-0.07354736,0.91278076
1601392563891,600,-0.33666992,-0.06378174,0.920105
1601392563892,601,-0.33544922,-0.07086182,0.9113159
1601392563898,602,-0.34643555,-0.06866455,0.91448975
1601392563899,603,-0.34643555,-0.06866455,0.91448975
1601392563900,604,-0.3425293,-0.06695557,0.91522217
1601392563900,605,-0.33666992,-0.06378174,0.920105
1601392563901,606,-0.34643555,-0.06866455,0.91448975
1601392563909,607,-0.34643555,-0.06866455,0.91448975
1601392563910,608,-0.35229492,-0.07354736,0.91278076
1601392563911,609,-0.34301758,-0.0647583,0.91400146
1601392563912,610,-0.35229492,-0.07354736,0.91278076
1601392563912,611,-0.34936523,-0.06939697,0.91448975
1601392563913,612,-0.35229492,-0.07354736,0.91278076
1601392563914,613,-0.35229492,-0.07354736,0.91278076
1601392563917,614,-0.3425293,-0.06695557,0.91522217
1601392563918,615,-0.34301758,-0.0647583,0.91400146
1601392563921,616,-0.3425293,-0.06695557,0.91522217
1601392563922,617,-0.35229492,-0.07354736,0.91278076
1601392563930,618,-0.34838867,-0.06744385,0.9125366
1601392563934,619,-0.34936523,-0.06939697,0.91448975
1601392563934,620,-0.3479004,-0.065979004,0.9105835
1601392563934,621,-0.34301758,-0.0647583,0.91400146
1601392563934,622,-0.3425293,-0.06695557,0.91522217
1601392563935,623,-0.34936523,-0.06939697,0.91448975
1601392563935,624,-0.3425293,-0.06695557,0.91522217
1601392563935,625,-0.34838867,-0.06744385,0.9125366
1601392563936,626,-0.3425293,-0.06695557,0.91522217
1601392563938,627,-0.34301758,-0.0647583,0.91400146
1601392563948,628,-0.34838867,-0.06744385,0.9125366
1601392563948,629,-0.3479004,-0.065979004,0.9105835
1601392563949,630,-0.34301758,-0.0647583,0.91400146
1601392563950,631,-0.34301758,-0.0647583,0.91400146
1601392563950,632,-0.34350586,-0.06915283,0.9159546
1601392563951,633,-0.34936523,-0.06939697,0.91448975
1601392563951,634,-0.34936523,-0.06939697,0.91448975
1601392563952,635,-0.3479004,-0.065979004,0.9105835
1601392563953,636,-0.34350586,-0.06915283,0.9159546
1601392563953,637,-0.34350586,-0.06915283,0.9159546
1601392563954,638,-0.34204102,-0.0647583,0.9159546
1601392563956,639,-0.34204102,-0.0647583,0.9159546
1601392563960,640,-0.34838867,-0.06744385,0.9125366
1601392563961,641,-0.34838867,-0.06744385,0.9125366
1601392563962,642,-0.34204102,-0.0647583,0.9159546
1601392563963,643,-0.3479004,-0.066467285,0.91278076
1601392563964,644,-0.3479004,-0.065979004,0.9105835
1601392563965,645,-0.34936523,-0.06939697,0.91448975
1601392563967,646,-0.34838867,-0.06744385,0.9125366
1601392563969,647,-0.34350586,-0.06915283,0.9159546
1601392563974,648,-0.3479004,-0.065979004,0.9105835
1601392563975,649,-0.3479004,-0.065979004,0.9105835
1601392563977,650,-0.3479004,-0.066467285,0.91278076
1601392563982,651,-0.34350586,-0.06915283,0.9159546
1601392563982,652,-0.3479004,-0.066467285,0.91278076
1601392563982,653,-0.34204102,-0.0647583,0.9159546
1601392563983,654,-0.34326172,-0.06402588,0.9135132
1601392563983,655,-0.34204102,-0.0647583,0.9159546
1601392563983,656,-0.34423828,-0.06573486,0.9135132
1601392563989,657,-0.3479004,-0.066467285,0.91278076
1601392563989,658,-0.34326172,-0.06402588,0.9135132
1601392563990,659,-0.34326172,-0.06402588,0.9135132
1601392563990,660,-0.3479004,-0.066467285,0.91278076
1601392563991,661,-0.34350586,-0.06915283,0.9159546
1601392563991,662,-0.34521484,-0.05645752,0.914978
1601392563998,663,-0.34326172,-0.06402588,0.9135132
1601392563998,664,-0.34423828,-0.06573486,0.9135132
1601392563999,665,-0.34326172,-0.06402588,0.9135132
1601392563999,666,-0.34423828,-0.06573486,0.9135132
1601392564000,667,-0.34399414,-0.070617676,0.91400146
1601392564001,668,-0.34204102,-0.0647583,0.9159546
1601392564002,669,-0.34423828,-0.06573486,0.9135132
1601392564007,670,-0.34521484,-0.05645752,0.914978
1601392564007,671,-0.34423828,-0.06573486,0.9135132
1601392564008,672,-0.34521484,-0.05645752,0.914978
1601392564008,673,-0.33666992,-0.073791504,0.9196167
1601392564008,674,-0.3479004,-0.066467285,0.91278076
1601392564009,675,-0.34521484,-0.05645752,0.914978
1601392564018,676,-0.34399414,-0.070617676,0.91400146
1601392564018,677,-0.34521484,-0.05645752,0.914978
1601392564019,678,-0.34399414,-0.070617676,0.91400146
1601392564019,679,-0.34326172,-0.06402588,0.9135132
1601392564020,680,-0.3322754,-0.06402588,0.9176636
1601392564020,681,-0.34399414,-0.070617676,0.91400146
1601392564020,682,-0.34375,-0.06524658,0.9135132
1601392564020,683,-0.33666992,-0.073791504,0.9196167
1601392564021,684,-0.34399414,-0.070617676,0.91400146
1601392564022,685,-0.3322754,-0.06402588,0.9176636
1601392564022,686,-0.34423828,-0.06573486,0.9135132
1601392564022,687,-0.33666992,-0.073791504,0.9196167
1601392564027,688,-0.33666992,-0.073791504,0.9196167
1601392564027,689,-0.33666992,-0.073791504,0.9196167
1601392564027,690,-0.33496094,-0.08135986,0.91326904
1601392564027,691,-0.34375,-0.06524658,0.9135132
1601392564028,692,-0.34521484,-0.05645752,0.914978
1601392564028,693,-0.32763672,-0.06378174,0.91741943
1601392564034,694,-0.3322754,-0.06402588,0.9176636
1601392564034,695,-0.3322754,-0.06402588,0.9176636
1601392564034,696,-0.33496094,-0.08135986,0.91326904
1601392564034,697,-0.3347168,-0.06768799,0.9213257
1601392564035,698,-0.34399414,-0.070617676,0.91400146
1601392564035,699,-0.3322754,-0.06402588,0.9176636
1601392564040,700,-0.34375,-0.06524658,0.9135132
1601392564040,701,-0.34375,-0.06524658,0.9135132
1601392564040,702,-0.33666992,-0.073791504,0.9196167
1601392564040,703,-0.33496094,-0.08135986,0.91326904
1601392564041,704,-0.3305664,-0.070129395,0.9159546
1601392564041,705,-0.32763672,-0.06378174,0.91741943
1601392564048,706,-0.34375,-0.06524658,0.9135132
1601392564048,707,-0.33496094,-0.08135986,0.91326904
1601392564048,708,-0.3322754,-0.06402588,0.9176636
1601392564049,709,-0.32763672,-0.06378174,0.91741943
1601392564049,710,-0.34643555,-0.06109619,0.91448975
1601392564049,711,-0.3347168,-0.06768799,0.9213257
1601392564049,712,-0.32763672,-0.06378174,0.91741943
1601392564050,713,-0.34375,-0.06524658,0.9135132
1601392564055,714,-0.33496094,-0.08135986,0.91326904
1601392564055,715,-0.3347168,-0.06768799,0.9213257
1601392564056,716,-0.33740234,-0.07159424,0.91741943
1601392564056,717,-0.3305664,-0.070129395,0.9159546
1601392564057,718,-0.3347168,-0.06768799,0.9213257
1601392564057,719,-0.33129883,-0.07086182,0.9208374
1601392564059,720,-0.32763672,-0.06378174,0.91741943
1601392564065,721,-0.33496094,-0.08135986,0.91326904
1601392564065,722,-0.3305664,-0.070129395,0.9159546
1601392564065,723,-0.3305664,-0.070129395,0.9159546
1601392564066,724,-0.3371582,-0.062805176,0.9159546
1601392564066,725,-0.34643555,-0.06109619,0.91448975
1601392564067,726,-0.3347168,-0.06768799,0.9213257
1601392564072,727,-0.32763672,-0.06378174,0.91741943
1601392564072,728,-0.34643555,-0.06109619,0.91448975
1601392564073,729,-0.3515625,-0.05206299,0.9208374
1601392564073,730,-0.33740234,-0.07159424,0.91741943
1601392564073,731,-0.34643555,-0.06109619,0.91448975
1601392564074,732,-0.3305664,-0.070129395,0.9159546
1601392564077,733,-0.3347168,-0.06768799,0.9213257
1601392564099,734,-0.32421875,-0.09454346,0.89227295
1601392564099,735,-0.33129883,-0.07086182,0.9208374
1601392564100,736,-0.33740234,-0.07159424,0.91741943
1601392564100,737,-0.34643555,-0.06109619,0.91448975
1601392564100,738,-0.33740234,-0.07159424,0.91741943
1601392564101,739,-0.328125,-0.05718994,0.9352417
1601392564103,740,-0.33129883,-0.07086182,0.9208374
1601392564103,741,-0.33129883,-0.07086182,0.9208374
1601392564103,742,-0.3371582,-0.062805176,0.9159546
1601392564103,743,-0.3305664,-0.070129395,0.9159546
1601392564103,744,-0.33740234,-0.07159424,0.91741943
1601392564103,745,-0.3371582,-0.062805176,0.9159546
1601392564103,746,-0.3371582,-0.062805176,0.9159546
1601392564103,747,-0.34643555,-0.06109619,0.91448975
1601392564104,748,-0.33129883,-0.07086182,0.9208374
1601392564104,749,-0.3515625,-0.05206299,0.9208374
1601392564104,750,-0.3515625,-0.05206299,0.9208374
1601392564105,751,-0.3371582,-0.062805176,0.9159546
1601392564105,752,-0.3515625,-0.05206299,0.9208374
1601392564105,753,-0.33740234,-0.07159424,0.91741943
1601392564106,754,-0.32421875,-0.09454346,0.89227295
1601392564106,755,-0.32421875,-0.09454346,0.89227295
1601392564106,756,-0.32421875,-0.09454346,0.89227295
1601392564107,757,-0.3515625,-0.05206299,0.9208374
1601392564107,758,-0.328125,-0.05718994,0.9352417
1601392564107,759,-0.33129883,-0.07086182,0.9208374
1601392564108,760,-0.328125,-0.05718994,0.9352417
1601392564108,761,-0.3371582,-0.062805176,0.9159546
1601392564108,762,-0.328125,-0.05718994,0.9352417
1601392564109,763,-0.3515625,-0.05206299,0.9208374
1601392564110,764,-0.32421875,-0.09454346,0.89227295
1601392564110,765,-0.32421875,-0.09454346,0.89227295
1601392564110,766,-0.328125,-0.05718994,0.9352417
1601392564111,767,-0.328125,-0.05718994,0.9352417
1601392566363,768,-0.35131836,-0.05670166,0.9125366
1601392566364,769,-0.35131836,-0.05670166,0.9125366
1601392566364,770,-0.35131836,-0.05670166,0.9125366
1601392566365,771,-0.35131836,-0.05670166,0.9125366
1601392566366,772,-0.35131836,-0.05670166,0.9125366
1601392566367,773,-0.35131836,-0.05670166,0.9125366
1601392566368,774,-0.33740234,-0.0569458,0.9215698
1601392566368,775,-0.33740234,-0.0569458,0.9215698
1601392566369,776,-0.33740234,-0.0569458,0.9215698
1601392566370,777,-0.33740234,-0.0569458,0.9215698
1601392566372,778,-0.3322754,-0.032043457,0.91400146
1601392566372,779,-0.3322754,-0.032043457,0.91400146
1601392566373,780,-0.33813477,-0.04156494,0.91326904
1601392566374,781,-0.3322754,-0.032043457,0.91400146
1601392566375,782,-0.33422852,-0.04547119,0.9196167
1601392566376,783,-0.33740234,-0.0569458,0.9215698
1601392566376,784,-0.33740234,-0.0569458,0.9215698
1601392566377,785,-0.33813477,-0.04156494,0.91326904
1601392566380,786,-0.3322754,-0.032043457,0.91400146
1601392566386,787,-0.33813477,-0.04156494,0.91326904
1601392566386,788,-0.33422852,-0.04547119,0.9196167
1601392566386,789,-0.3322754,-0.032043457,0.91400146
1601392566387,790,-0.3322754,-0.032043457,0.91400146
1601392566389,791,-0.33813477,-0.04156494,0.91326904
1601392566389,792,-0.33813477,-0.04156494,0.91326904
1601392566391,793,-0.33422852,-0.04547119,0.9196167
1601392566393,794,-0.3605957,-0.02960205,0.9086304
1601392566396,795,-0.34301758,-0.04815674,0.91815186
1601392566402,796,-0.3605957,-0.02960205,0.9086304
1601392566403,797,-0.3605957,-0.02960205,0.9086304
1601392566404,798,-0.33813477,-0.04156494,0.91326904
1601392566407,799,-0.34301758,-0.04815674,0.91815186
1601392566407,800,-0.33422852,-0.04547119,0.9196167
1601392566407,801,-0.34594727,-0.03302002,0.91693115
1601392566419,802,-0.33422852,-0.04547119,0.9196167
1601392566420,803,-0.34301758,-0.04815674,0.91815186
1601392566420,804,-0.3605957,-0.02960205,0.9086304
1601392566421,805,-0.34594727,-0.03302002,0.91693115
1601392566422,806,-0.34814453,-0.06036377,0.9137573
1601392566423,807,-0.3605957,-0.02960205,0.9086304
1601392566424,808,-0.32861328,-0.045959473,0.91693115
1601392566430,809,-0.34594727,-0.03302002,0.91693115
1601392566431,810,-0.34301758,-0.04815674,0.91815186
1601392566433,811,-0.34814453,-0.06036377,0.9137573
1601392566433,812,-0.33422852,-0.04547119,0.9196167
1601392566434,813,-0.32861328,-0.045959473,0.91693115
1601392566434,814,-0.34594727,-0.03302002,0.91693115
1601392566437,815,-0.34814453,-0.06036377,0.9137573
1601392566439,816,-0.32861328,-0.045959473,0.91693115
1601392566441,817,-0.3605957,-0.02960205,0.9086304
1601392566443,818,-0.35546875,-0.030578613,0.91448975
1601392566458,819,-0.35546875,-0.030578613,0.91448975
1601392566459,820,-0.35546875,-0.030578613,0.91448975
1601392566460,821,-0.34814453,-0.06036377,0.9137573
1601392566460,822,-0.34301758,-0.04815674,0.91815186
1601392566461,823,-0.34301758,-0.04815674,0.91815186
1601392566462,824,-0.3564453,-0.040100098,0.90545654
1601392566462,825,-0.3564453,-0.040100098,0.90545654
1601392566463,826,-0.3564453,-0.040100098,0.90545654
1601392566463,827,-0.3461914,-0.031799316,0.914978
1601392566464,828,-0.34594727,-0.03302002,0.91693115
1601392566465,829,-0.34350586,-0.05670166,0.91278076
1601392566465,830,-0.34594727,-0.03302002,0.91693115
1601392566466,831,-0.34277344,-0.034729004,0.9176636
1601392566466,832,-0.3461914,-0.031799316,0.914978
1601392566467,833,-0.35009766,-0.05328369,0.9098511
1601392566468,834,-0.32861328,-0.045959473,0.91693115
1601392566468,835,-0.35180664,-0.04034424,0.91204834
1601392566469,836,-0.35546875,-0.030578613,0.91448975
1601392566469,837,-0.33764648,-0.050842285,0.916687
1601392566470,838,-0.34350586,-0.05670166,0.91278076
1601392566471,839,-0.3461914,-0.031799316,0.914978
1601392566480,840,-0.34814453,-0.06036377,0.9137573
1601392566481,841,-0.34814453,-0.06036377,0.9137573
1601392566481,842,-0.3564453,-0.040100098,0.90545654
1601392566482,843,-0.32861328,-0.045959473,0.91693115
1601392566483,844,-0.34277344,-0.034729004,0.9176636
1601392566483,845,-0.35546875,-0.030578613,0.91448975
1601392566484,846,-0.3461914,-0.031799316,0.914978
1601392566485,847,-0.32861328,-0.045959473,0.91693115
1601392566485,848,-0.34350586,-0.05670166,0.91278076
1601392566486,849,-0.35546875,-0.030578613,0.91448975
1601392566488,850,-0.35009766,-0.05328369,0.9098511
1601392566490,851,-0.34350586,-0.05670166,0.91278076
1601392566492,852,-0.34277344,-0.034729004,0.9176636
1601392566494,853,-0.3544922,-0.05255127,0.9098511
1601392566496,854,-0.3564453,-0.040100098,0.90545654
1601392566497,855,-0.3564453,-0.040100098,0.90545654
1601392566499,856,-0.3461914,-0.031799316,0.914978
1601392566501,857,-0.34277344,-0.034729004,0.9176636
1601392566503,858,-0.35009766,-0.05328369,0.9098511
1601392566506,859,-0.35180664,-0.04034424,0.91204834
1601392566511,860,-0.3461914,-0.031799316,0.914978
1601392566511,861,-0.35009766,-0.05328369,0.9098511
1601392566512,862,-0.35180664,-0.04034424,0.91204834
1601392566513,863,-0.34350586,-0.05670166,0.91278076
1601392566513,864,-0.34350586,-0.05670166,0.91278076
1601392566514,865,-0.33764648,-0.050842285,0.916687
1601392566517,866,-0.35961914,-0.06011963,0.91204834
1601392566522,867,-0.33764648,-0.050842285,0.916687
1601392566523,868,-0.34277344,-0.034729004,0.9176636
1601392566523,869,-0.34277344,-0.034729004,0.9176636
1601392566523,870,-0.35009766,-0.05328369,0.9098511
1601392566523,871,-0.35009766,-0.05328369,0.9098511
1601392566523,872,-0.35717773,-0.04864502,0.9088745
1601392566531,873,-0.3544922,-0.05255127,0.9098511
1601392566531,874,-0.3544922,-0.05255127,0.9098511
1601392566532,875,-0.35180664,-0.04034424,0.91204834
1601392566533,876,-0.35180664,-0.04034424,0.91204834
1601392566534,877,-0.35180664,-0.04034424,0.91204834
1601392566536,878,-0.3515625,-0.04840088,0.9171753
1601392566536,879,-0.33764648,-0.050842285,0.916687
1601392566536,880,-0.35961914,-0.06011963,0.91204834
1601392566537,881,-0.33764648,-0.050842285,0.916687
1601392566538,882,-0.35961914,-0.06011963,0.91204834
1601392566541,883,-0.33764648,-0.050842285,0.916687
1601392566543,884,-0.3544922,-0.05255127,0.9098511
1601392566544,885,-0.3544922,-0.05255127,0.9098511
1601392566547,886,-0.34887695,-0.038146973,0.90740967
1601392566549,887,-0.35327148,-0.062072754,0.91278076
1601392566551,888,-0.35717773,-0.04864502,0.9088745
1601392566559,889,-0.3515625,-0.04840088,0.9171753
1601392566559,890,-0.35717773,-0.04864502,0.9088745
1601392566559,891,-0.35961914,-0.06011963,0.91204834
1601392566559,892,-0.34960938,-0.05303955,0.916687
1601392566560,893,-0.35961914,-0.06011963,0.91204834
1601392566560,894,-0.3557129,-0.062805176,0.90838623
1601392566563,895,-0.34887695,-0.038146973,0.90740967
1601392566565,896,-0.35717773,-0.04864502,0.9088745
1601392566576,897,-0.35717773,-0.04864502,0.9088745
1601392566576,898,-0.35083008,-0.05255127,0.9122925
1601392566577,899,-0.3515625,-0.04840088,0.9171753
1601392566578,900,-0.35107422,-0.04156494,0.9098511
1601392566579,901,-0.3544922,-0.05255127,0.9098511
1601392566580,902,-0.3515625,-0.04840088,0.9171753
1601392566580,903,-0.34033203,-0.049621582,0.91986084
1601392566581,904,-0.3515625,-0.04840088,0.9171753
1601392566582,905,-0.34887695,-0.038146973,0.90740967
1601392566583,906,-0.35327148,-0.062072754,0.91278076
1601392566583,907,-0.34985352,-0.051086426,0.9142456
1601392566591,908,-0.35961914,-0.06011963,0.91204834
1601392566592,909,-0.34887695,-0.038146973,0.90740967
1601392566592,910,-0.35327148,-0.062072754,0.91278076
1601392566593,911,-0.34960938,-0.05303955,0.916687
1601392566594,912,-0.3466797,-0.05718994,0.9122925
1601392566595,913,-0.34887695,-0.038146973,0.90740967
1601392566596,914,-0.34423828,-0.059387207,0.91156006
1601392566598,915,-0.34960938,-0.05303955,0.916687
1601392566611,916,-0.3557129,-0.062805176,0.90838623
1601392566613,917,-0.35717773,-0.04864502,0.9088745
1601392566613,918,-0.35327148,-0.062072754,0.91278076
1601392566614,919,-0.35327148,-0.062072754,0.91278076
1601392566615,920,-0.3557129,-0.062805176,0.90838623
1601392566616,921,-0.34960938,-0.05303955,0.916687
1601392566617,922,-0.35083008,-0.05255127,0.9122925
1601392566617,923,-0.3515625,-0.04840088,0.9171753
1601392566618,924,-0.34960938,-0.05303955,0.916687
1601392566618,925,-0.34887695,-0.038146973,0.90740967
1601392566619,926,-0.35083008,-0.05255127,0.9122925
1601392566619,927,-0.3557129,-0.062805176,0.90838623
1601392566620,928,-0.3557129,-0.062805176,0.90838623
1601392566621,929,-0.35107422,-0.04156494,0.9098511
1601392566626,930,-0.35107422,-0.04156494,0.9098511
1601392566627,931,-0.35083008,-0.05255127,0.9122925
1601392566628,932,-0.34033203,-0.049621582,0.91986084
1601392566628,933,-0.35083008,-0.05255127,0.9122925
1601392566630,934,-0.35327148,-0.062072754,0.91278076
1601392566635,935,-0.34033203,-0.049621582,0.91986084
1601392566636,936,-0.35107422,-0.04156494,0.9098511
1601392566637,937,-0.34985352,-0.051086426,0.9142456
1601392566639,938,-0.34960938,-0.05303955,0.916687
1601392566639,939,-0.35107422,-0.04156494,0.9098511
1601392566650,940,-0.34985352,-0.051086426,0.9142456
1601392566652,941,-0.34033203,-0.049621582,0.91986084
1601392566652,942,-0.3557129,-0.062805176,0.90838623
1601392566652,943,-0.34033203,-0.049621582,0.91986084
1601392566654,944,-0.3466797,-0.05718994,0.9122925
1601392566654,945,-0.34985352,-0.051086426,0.9142456
1601392566655,946,-0.34423828,-0.059387207,0.91156006
1601392566656,947,-0.35083008,-0.05255127,0.9122925
1601392566666,948,-0.34985352,-0.051086426,0.9142456
1601392566667,949,-0.3466797,-0.05718994,0.9122925
1601392566667,950,-0.3466797,-0.05718994,0.9122925
1601392566668,951,-0.34423828,-0.059387207,0.91156006
1601392566668,952,-0.35107422,-0.04156494,0.9098511
1601392566668,953,-0.3466797,-0.05718994,0.9122925
1601392566668,954,-0.34423828,-0.059387207,0.91156006
1601392566669,955,-0.34033203,-0.049621582,0.91986084
1601392566670,956,-0.34423828,-0.059387207,0.91156006
1601392566675,957,-0.34985352,-0.051086426,0.9142456
1601392566675,958,-0.3466797,-0.05718994,0.9122925
1601392566680,959,-0.34423828,-0.059387207,0.91156006
1601392568951,960,-0.34594727,-0.05279541,0.9105835
1601392568951,961,-0.34594727,-0.05279541,0.9105835
1601392568952,962,-0.34594727,-0.05279541,0.9105835
1601392568952,963,-0.34594727,-0.05279541,0.9105835
1601392568953,964,-0.35253906,-0.057678223,0.918396
1601392568961,965,-0.34594727,-0.05279541,0.9105835
1601392568963,966,-0.34594727,-0.05279541,0.9105835
1601392568963,967,-0.35253906,-0.057678223,0.918396
1601392568964,968,-0.35253906,-0.057678223,0.918396
1601392568964,969,-0.35253906,-0.057678223,0.918396
1601392568965,970,-0.34838867,-0.050109863,0.9110718
1601392568981,971,-0.35253906,-0.057678223,0.918396
1601392568981,972,-0.35253906,-0.057678223,0.918396
1601392568981,973,-0.34838867,-0.050109863,0.9110718
1601392568984,974,-0.34472656,-0.04449463,0.9118042
1601392568984,975,-0.34838867,-0.050109863,0.9110718
1601392568985,976,-0.34838867,-0.050109863,0.9110718
1601392568986,977,-0.34838867,-0.050109863,0.9110718
1601392568986,978,-0.34472656,-0.04449463,0.9118042
1601392568988,979,-0.3449707,-0.07305908,0.9159546
1601392568988,980,-0.34838867,-0.050109863,0.9110718
1601392568988,981,-0.34472656,-0.04449463,0.9118042
1601392568990,982,-0.34472656,-0.04449463,0.9118042
1601392568996,983,-0.34472656,-0.04449463,0.9118042
1601392568997,984,-0.34472656,-0.04449463,0.9118042
1601392568997,985,-0.3449707,-0.07305908,0.9159546
1601392568997,986,-0.3449707,-0.07305908,0.9159546
1601392569000,987,-0.3449707,-0.07305908,0.9159546
1601392569000,988,-0.34228516,-0.05279541,0.90789795
1601392569008,989,-0.3449707,-0.07305908,0.9159546
1601392569009,990,-0.34228516,-0.05279541,0.90789795
1601392569010,991,-0.34228516,-0.05279541,0.90789795
1601392569010,992,-0.3449707,-0.07305908,0.9159546
1601392569012,993,-0.35229492,-0.059631348,0.9191284
1601392569012,994,-0.34228516,-0.05279541,0.90789795
1601392569012,995,-0.34228516,-0.05279541,0.90789795
1601392569013,996,-0.34692383,-0.058410645,0.91033936
1601392569015,997,-0.34228516,-0.05279541,0.90789795
1601392569015,998,-0.33740234,-0.054016113,0.92181396
1601392569015,999,-0.35229492,-0.059631348,0.9191284
1601392569016,1000,-0.35229492,-0.059631348,0.9191284
1601392569018,1001,-0.35229492,-0.059631348,0.9191284
1601392569021,1002,-0.3449707,-0.06085205,0.9098511
1601392569026,1003,-0.34301758,-0.058410645,0.9147339
1601392569027,1004,-0.35229492,-0.059631348,0.9191284
1601392569027,1005,-0.35229492,-0.059631348,0.9191284
1601392569028,1006,-0.34692383,-0.058410645,0.91033936
1601392569029,1007,-0.34692383,-0.058410645,0.91033936
1601392569029,1008,-0.34692383,-0.058410645,0.91033936
1601392569037,1009,-0.33813477,-0.06402588,0.91693115
1601392569038,1010,-0.34692383,-0.058410645,0.91033936
1601392569039,1011,-0.34692383,-0.058410645,0.91033936
1601392569040,1012,-0.34716797,-0.050842285,0.9125366
1601392569040,1013,-0.33740234,-0.054016113,0.92181396
1601392569041,1014,-0.34155273,-0.06402588,0.91986084
1601392569041,1015,-0.33740234,-0.054016113,0.92181396
1601392569042,1016,-0.33740234,-0.054016113,0.92181396
1601392569045,1017,-0.3449707,-0.06085205,0.9098511
1601392569046,1018,-0.33740234,-0.054016113,0.92181396
1601392569048,1019,-0.3449707,-0.06085205,0.9098511
1601392569053,1020,-0.34301758,-0.058410645,0.9147339
1601392569055,1021,-0.34106445,-0.0635376,0.91400146
1601392569055,1022,-0.3449707,-0.06085205,0.9098511
1601392569055,1023,-0.3449707,-0.06085205,0.9098511
1601392569055,1024,-0.33740234,-0.054016113,0.92181396
1601392569056,1025,-0.34301758,-0.058410645,0.9147339
1601392569056,1026,-0.33813477,-0.06402588,0.91693115
1601392569061,1027,-0.34155273,-0.06304932,0.9154663
1601392569061,1028,-0.34301758,-0.058410645,0.9147339
1601392569061,1029,-0.33813477,-0.06402588,0.91693115
1601392569061,1030,-0.3449707,-0.06085205,0.9098511
1601392569062,1031,-0.34301758,-0.058410645,0.9147339
1601392569062,1032,-0.34716797,-0.050842285,0.9125366
1601392569067,1033,-0.3383789,-0.0713501,0.91522217
1601392569067,1034,-0.33813477,-0.06402588,0.91693115
1601392569067,1035,-0.34716797,-0.050842285,0.9125366
1601392569068,1036,-0.33813477,-0.06402588,0.91693115
1601392569068,1037,-0.34155273,-0.06402588,0.91986084
1601392569068,1038,-0.34301758,-0.058410645,0.9147339
1601392569075,1039,-0.34057617,-0.06304932,0.9191284
1601392569075,1040,-0.34155273,-0.06402588,0.91986084
1601392569075,1041,-0.33813477,-0.06402588,0.91693115
1601392569075,1042,-0.34106445,-0.0635376,0.91400146
1601392569076,1043,-0.34716797,-0.050842285,0.9125366
1601392569076,1044,-0.34326172,-0.062072754,0.914978
1601392569079,1045,-0.34716797,-0.050842285,0.9125366
1601392569082,1046,-0.34155273,-0.06304932,0.9154663
1601392569082,1047,-0.34716797,-0.050842285,0.9125366
1601392569082,1048,-0.34106445,-0.0635376,0.91400146
1601392569083,1049,-0.34155273,-0.06402588,0.91986084
1601392569083,1050,-0.34155273,-0.06402588,0.91986084
1601392569083,1051,-0.3413086,-0.06329346,0.91448975
1601392569090,1052,-0.3383789,-0.0713501,0.91522217
1601392569090,1053,-0.34155273,-0.06304932,0.9154663
1601392569090,1054,-0.34106445,-0.0635376,0.91400146
1601392569091,1055,-0.34106445,-0.0635376,0.91400146
1601392569091,1056,-0.34155273,-0.06036377,0.9142456
1601392569091,1057,-0.34155273,-0.06402588,0.91986084
1601392569099,1058,-0.34057617,-0.06304932,0.9191284
1601392569100,1059,-0.3383789,-0.0713501,0.91522217
1601392569100,1060,-0.34155273,-0.06304932,0.9154663
1601392569100,1061,-0.34155273,-0.06304932,0.9154663
1601392569100,1062,-0.34594727,-0.06378174,0.9137573
1601392569100,1063,-0.34106445,-0.0635376,0.91400146
1601392569101,1064,-0.34057617,-0.06304932,0.9191284
1601392569101,1065,-0.34326172,-0.062072754,0.914978
1601392569101,1066,-0.3383789,-0.0713501,0.91522217
1601392569107,1067,-0.3383789,-0.0713501,0.91522217
1601392569107,1068,-0.34326172,-0.062072754,0.914978
1601392569107,1069,-0.3413086,-0.06329346,0.91448975
1601392569107,1070,-0.3449707,-0.06378174,0.90960693
1601392569108,1071,-0.34057617,-0.06304932,0.9191284
1601392569108,1072,-0.34057617,-0.06304932,0.9191284
1601392569110,1073,-0.3413086,-0.06329346,0.91448975
1601392569114,1074,-0.34472656,-0.06109619,0.91448975
1601392569114,1075,-0.34155273,-0.06036377,0.9142456
1601392569115,1076,-0.34326172,-0.062072754,0.914978
1601392569115,1077,-0.34326172,-0.062072754,0.914978
1601392569115,1078,-0.34155273,-0.06304932,0.9154663
1601392569121,1079,-0.34155273,-0.06036377,0.9142456
1601392569121,1080,-0.34594727,-0.06378174,0.9137573
1601392569122,1081,-0.3515625,-0.042785645,0.92596436
1601392569122,1082,-0.3413086,-0.06329346,0.91448975
1601392569122,1083,-0.3449707,-0.06378174,0.90960693
1601392569123,1084,-0.3413086,-0.06329346,0.91448975
1601392569128,1085,-0.34594727,-0.06378174,0.9137573
1601392569128,1086,-0.3383789,-0.0713501,0.91522217
1601392569128,1087,-0.3479004,-0.019592285,0.9730835
1601392569128,1088,-0.34472656,-0.06109619,0.91448975
1601392569128,1089,-0.34155273,-0.06036377,0.9142456
1601392569129,1090,-0.34155273,-0.06036377,0.9142456
1601392569131,1091,-0.34057617,-0.06304932,0.9191284
1601392569136,1092,-0.3449707,-0.06378174,0.90960693
1601392569136,1093,-0.34594727,-0.06378174,0.9137573
1601392569137,1094,-0.3515625,-0.042785645,0.92596436
1601392569138,1095,-0.34594727,-0.06378174,0.9137573
1601392569139,1096,-0.3161621,-0.07598877,0.97039795
1601392569140,1097,-0.3479004,-0.019592285,0.9730835
1601392569142,1098,-0.34472656,-0.06109619,0.91448975
1601392569144,1099,-0.34326172,-0.062072754,0.914978
1601392569155,1100,-0.28027344,-0.18121338,0.9242554
1601392569158,1101,-0.3161621,-0.07598877,0.97039795
1601392569160,1102,-0.3449707,-0.06378174,0.90960693
1601392569160,1103,-0.3515625,-0.042785645,0.92596436
1601392569161,1104,-0.3449707,-0.06378174,0.90960693
1601392569162,1105,-0.3413086,-0.06329346,0.91448975
1601392569162,1106,-0.28027344,-0.18121338,0.9242554
1601392569163,1107,-0.34155273,-0.06036377,0.9142456
1601392569164,1108,-0.3479004,-0.019592285,0.9730835
1601392569165,1109,-0.34472656,-0.06109619,0.91448975
1601392569165,1110,-0.34472656,-0.06109619,0.91448975
1601392569168,1111,-0.19677734,-0.09429932,0.94036865
1601392569168,1112,-0.19677734,-0.09429932,0.94036865
1601392569174,1113,-0.34594727,-0.06378174,0.9137573
1601392569175,1114,-0.3161621,-0.07598877,0.97039795
1601392569175,1115,-0.3515625,-0.042785645,0.92596436
1601392569175,1116,-0.3515625,-0.042785645,0.92596436
1601392569175,1117,-0.22216797,-0.09185791,0.9232788
1601392569175,1118,-0.22216797,-0.09185791,0.9232788
1601392569175,1119,-0.24584961,-0.11846924,0.8991089
1601392569185,1120,-0.28027344,-0.18121338,0.9242554
1601392569186,1121,-0.3479004,-0.019592285,0.9730835
1601392569186,1122,-0.3449707,-0.06378174,0.90960693
1601392569186,1123,-0.3161621,-0.07598877,0.97039795
1601392569186,1124,-0.24584961,-0.11846924,0.8991089
1601392569186,1125,-0.27514648,-0.049865723,0.88079834
1601392569187,1126,-0.27514648,-0.049865723,0.88079834
1601392569187,1127,-0.19677734,-0.09429932,0.94036865
1601392569187,1128,-0.3479004,-0.019592285,0.9730835
1601392569187,1129,-0.34472656,-0.06109619,0.91448975
1601392569187,1130,-0.28027344,-0.18121338,0.9242554
1601392569191,1131,-0.22216797,-0.09185791,0.9232788
1601392569193,1132,-0.3515625,-0.042785645,0.92596436
1601392569195,1133,-0.3479004,-0.019592285,0.9730835
1601392569196,1134,-0.24584961,-0.11846924,0.8991089
1601392569200,1135,-0.3161621,-0.07598877,0.97039795
1601392569201,1136,-0.28027344,-0.18121338,0.9242554
1601392569203,1137,-0.19677734,-0.09429932,0.94036865
1601392569204,1138,-0.22216797,-0.09185791,0.9232788
1601392569206,1139,-0.27514648,-0.049865723,0.88079834
1601392569209,1140,-0.24584961,-0.11846924,0.8991089
1601392569211,1141,-0.27514648,-0.049865723,0.88079834
1601392569212,1142,-0.3161621,-0.07598877,0.97039795
1601392569216,1143,-0.28027344,-0.18121338,0.9242554
1601392569218,1144,-0.19677734,-0.09429932,0.94036865
1601392569220,1145,-0.19677734,-0.09429932,0.94036865
1601392569220,1146,-0.22216797,-0.09185791,0.9232788
1601392569222,1147,-0.24584961,-0.11846924,0.8991089
1601392569223,1148,-0.22216797,-0.09185791,0.9232788
1601392569225,1149,-0.27514648,-0.049865723,0.88079834
1601392569228,1150,-0.24584961,-0.11846924,0.8991089
1601392569229,1151,-0.27514648,-0.049865723,0.88079834
1601392571547,1152,-0.39257812,-0.128479,0.8131714
1601392571556,1153,-0.39257812,-0.128479,0.8131714
1601392571557,1154,-0.39257812,-0.128479,0.8131714
1601392571557,1155,-0.39257812,-0.128479,0.8131714
1601392571558,1156,-0.39257812,-0.128479,0.8131714
1601392571559,1157,-0.5578613,-0.16339111,1.0241089
1601392571560,1158,-0.39257812,-0.128479,0.8131714
1601392571561,1159,-0.5578613,-0.16339111,1.0241089
1601392571562,1160,-0.5578613,-0.16339111,1.0241089
1601392571563,1161,-0.5578613,-0.16339111,1.0241089
1601392571563,1162,-0.5578613,-0.16339111,1.0241089
1601392571564,1163,-0.44726562,-0.027404785,0.7826538
1601392571572,1164,-0.5578613,-0.16339111,1.0241089
1601392571572,1165,-0.44726562,-0.027404785,0.7826538
1601392571572,1166,-0.44726562,-0.027404785,0.7826538
1601392571573,1167,-0.44726562,-0.027404785,0.7826538
1601392571573,1168,-0.44726562,-0.027404785,0.7826538
1601392571574,1169,-0.4711914,-0.043518066,0.87054443
1601392571575,1170,-0.44726562,-0.027404785,0.7826538
1601392571580,1171,-0.4711914,-0.043518066,0.87054443
1601392571581,1172,-0.4711914,-0.043518066,0.87054443
1601392571582,1173,-0.4711914,-0.043518066,0.87054443
1601392571582,1174,-0.46777344,-0.11578369,0.7977905
1601392571584,1175,-0.46777344,-0.11578369,0.7977905
1601392571586,1176,-0.4711914,-0.043518066,0.87054443
1601392571594,1177,-0.42016602,-0.06304932,0.9171753
1601392571595,1178,-0.46777344,-0.11578369,0.7977905
1601392571597,1179,-0.4711914,-0.043518066,0.87054443
1601392571597,1180,-0.42016602,-0.06304932,0.9171753
1601392571597,1181,-0.46777344,-0.11578369,0.7977905
1601392571598,1182,-0.46777344,-0.11578369,0.7977905
1601392571599,1183,-0.46240234,-0.10040283,0.9035034
1601392571612,1184,-0.46777344,-0.11578369,0.7977905
1601392571612,1185,-0.42016602,-0.06304932,0.9171753
1601392571614,1186,-0.46240234,-0.10040283,0.9035034
1601392571614,1187,-0.42016602,-0.06304932,0.9171753
1601392571615,1188,-0.46240234,-0.10040283,0.9035034
1601392571616,1189,-0.42016602,-0.06304932,0.9171753
1601392571618,1190,-0.42016602,-0.06304932,0.9171753
1601392571620,1191,-0.47827148,-0.11212158,0.857605
1601392571621,1192,-0.47827148,-0.11212158,0.857605
1601392571621,1193,-0.46240234,-0.10040283,0.9035034
1601392571621,1194,-0.4555664,-0.11602783,0.87249756
1601392571621,1195,-0.47827148,-0.11212158,0.857605
1601392571623,1196,-0.46240234,-0.10040283,0.9035034
1601392571625,1197,-0.46240234,-0.10040283,0.9035034
1601392571634,1198,-0.47827148,-0.11212158,0.857605
1601392571635,1199,-0.4555664,-0.11602783,0.87249756
1601392571635,1200,-0.47827148,-0.11212158,0.857605
1601392571637,1201,-0.47827148,-0.11212158,0.857605
1601392571637,1202,-0.4555664,-0.11602783,0.87249756
1601392571637,1203,-0.4555664,-0.11602783,0.87249756
1601392571641,1204,-0.4555664,-0.11602783,0.87249756
1601392571642,1205,-0.40625,-0.06036377,0.8930054
1601392571642,1206,-0.40625,-0.06036377,0.8930054
1601392571644,1207,-0.43139648,-0.11480713,0.8842163
1601392571644,1208,-0.40625,-0.06036377,0.8930054
1601392571647,1209,-0.40625,-0.06036377,0.8930054
1601392571649,1210,-0.43139648,-0.11480713,0.8842163
1601392571655,1211,-0.40600586,-0.093811035,0.89105225
1601392571656,1212,-0.43139648,-0.11480713,0.8842163
1601392571656,1213,-0.40625,-0.06036377,0.8930054
1601392571657,1214,-0.4555664,-0.11602783,0.87249756
1601392571658,1215,-0.43139648,-0.11480713,0.8842163
1601392571658,1216,-0.40600586,-0.093811035,0.89105225
1601392571659,1217,-0.40625,-0.06036377,0.8930054
1601392571666,1218,-0.43139648,-0.11480713,0.8842163
1601392571667,1219,-0.40600586,-0.093811035,0.89105225
1601392571667,1220,-0.4074707,-0.12359619,0.88861084
1601392571667,1221,-0.40600586,-0.093811035,0.89105225
1601392571669,1222,-0.43139648,-0.11480713,0.8842163
1601392571669,1223,-0.4074707,-0.12359619,0.88861084
1601392571669,1224,-0.40600586,-0.093811035,0.89105225
1601392571672,1225,-0.4074707,-0.12359619,0.88861084
1601392571673,1226,-0.4074707,-0.12359619,0.88861084
1601392571675,1227,-0.4194336,-0.09429932,0.88494873
1601392571687,1228,-0.4194336,-0.09429932,0.88494873
1601392571687,1229,-0.4194336,-0.09429932,0.88494873
1601392571688,1230,-0.4194336,-0.09429932,0.88494873
1601392571689,1231,-0.40600586,-0.093811035,0.89105225
1601392571689,1232,-0.4074707,-0.12359619,0.88861084
1601392571690,1233,-0.42382812,-0.06866455,0.9086304
1601392571691,1234,-0.42382812,-0.06866455,0.9086304
1601392571691,1235,-0.42382812,-0.06866455,0.9086304
1601392571691,1236,-0.42382812,-0.06866455,0.9086304
1601392571693,1237,-0.4074707,-0.12359619,0.88861084
1601392571693,1238,-0.4194336,-0.09429932,0.88494873
1601392571693,1239,-0.42944336,-0.08428955,0.8805542
1601392571694,1240,-0.42944336,-0.08428955,0.8805542
1601392571695,1241,-0.42944336,-0.08428955,0.8805542
1601392571697,1242,-0.42944336,-0.08428955,0.8805542
1601392571706,1243,-0.42382812,-0.06866455,0.9086304
1601392571708,1244,-0.4099121,-0.066223145,0.885437
1601392571708,1245,-0.4099121,-0.066223145,0.885437
1601392571708,1246,-0.4099121,-0.066223145,0.885437
1601392571709,1247,-0.4194336,-0.09429932,0.88494873
1601392571710,1248,-0.4099121,-0.066223145,0.885437
1601392571711,1249,-0.4177246,-0.08746338,0.88812256
1601392571712,1250,-0.42382812,-0.06866455,0.9086304
1601392571713,1251,-0.4177246,-0.08746338,0.88812256
1601392571713,1252,-0.4177246,-0.08746338,0.88812256
1601392571720,1253,-0.42944336,-0.08428955,0.8805542
1601392571720,1254,-0.4177246,-0.08746338,0.88812256
1601392571720,1255,-0.41015625,-0.082092285,0.88861084
1601392571721,1256,-0.42944336,-0.08428955,0.8805542
1601392571722,1257,-0.41015625,-0.082092285,0.88861084
1601392571723,1258,-0.41015625,-0.082092285,0.88861084
1601392571729,1259,-0.4099121,-0.066223145,0.885437
1601392571730,1260,-0.41015625,-0.082092285,0.88861084
1601392571731,1261,-0.41455078,-0.081848145,0.8908081
1601392571732,1262,-0.4099121,-0.066223145,0.885437
1601392571732,1263,-0.41455078,-0.081848145,0.8908081
1601392571733,1264,-0.41455078,-0.081848145,0.8908081
1601392571733,1265,-0.4177246,-0.08746338,0.88812256
1601392571736,1266,-0.41577148,-0.0803833,0.88934326
1601392571738,1267,-0.41577148,-0.0803833,0.88934326
1601392571744,1268,-0.41015625,-0.082092285,0.88861084
1601392571745,1269,-0.4177246,-0.08746338,0.88812256
1601392571746,1270,-0.41455078,-0.081848145,0.8908081
1601392571747,1271,-0.41186523,-0.07940674,0.88983154
1601392571747,1272,-0.41577148,-0.0803833,0.88934326
1601392571748,1273,-0.41186523,-0.07940674,0.88983154
1601392571751,1274,-0.41015625,-0.082092285,0.88861084
1601392571754,1275,-0.41577148,-0.0803833,0.88934326
1601392571755,1276,-0.41186523,-0.07940674,0.88983154
1601392571755,1277,-0.41503906,-0.08111572,0.8903198
1601392571757,1278,-0.41455078,-0.081848145,0.8908081
1601392571759,1279,-0.41186523,-0.07940674,0.88983154
1601392571762,1280,-0.41503906,-0.08111572,0.8903198
1601392571779,1281,-0.41796875,-0.081848145,0.8900757
1601392571779,1282,-0.41577148,-0.0803833,0.88934326
1601392571780,1283,-0.41455078,-0.081848145,0.8908081
1601392571780,1284,-0.41503906,-0.08111572,0.8903198
1601392571781,1285,-0.41577148,-0.0803833,0.88934326
1601392571781,1286,-0.41503906,-0.08111572,0.8903198
1601392571782,1287,-0.41186523,-0.07940674,0.88983154
1601392571787,1288,-0.41796875,-0.081848145,0.8900757
1601392571787,1289,-0.41186523,-0.07940674,0.88983154
1601392571787,1290,-0.41796875,-0.081848145,0.8900757
1601392571787,1291,-0.41796875,-0.081848145,0.8900757
1601392571788,1292,-0.4182129,-0.081848145,0.887146
1601392571788,1293,-0.4182129,-0.081848145,0.887146
1601392571788,1294,-0.4182129,-0.081848145,0.887146
1601392571788,1295,-0.41503906,-0.08111572,0.8903198
1601392571788,1296,-0.40722656,-0.0803833,0.8915405
1601392571791,1297,-0.4182129,-0.081848145,0.887146
1601392571793,1298,-0.41503906,-0.08111572,0.8903198
1601392571802,1299,-0.41796875,-0.081848145,0.8900757
1601392571802,1300,-0.4194336,-0.082336426,0.88568115
1601392571802,1301,-0.40722656,-0.0803833,0.8915405
1601392571803,1302,-0.41479492,-0.078186035,0.89105225
1601392571804,1303,-0.40722656,-0.0803833,0.8915405
1601392571805,1304,-0.41796875,-0.081848145,0.8900757
1601392571809,1305,-0.4182129,-0.081848145,0.887146
1601392571830,1306,-0.4194336,-0.082336426,0.88568115
1601392571831,1307,-0.40722656,-0.0803833,0.8915405
1601392571832,1308,-0.41259766,-0.07745361,0.8900757
1601392571833,1309,-0.4182129,-0.081848145,0.887146
1601392571834,1310,-0.4194336,-0.082336426,0.88568115
1601392571835,1311,-0.40722656,-0.0803833,0.8915405
1601392571835,1312,-0.41479492,-0.078186035,0.89105225
1601392571836,1313,-0.41479492,-0.078186035,0.89105225
1601392571836,1314,-0.40722656,-0.0803833,0.8915405
1601392571837,1315,-0.41259766,-0.08087158,0.8883667
1601392571837,1316,-0.4194336,-0.082336426,0.88568115
1601392571838,1317,-0.4194336,-0.082336426,0.88568115
1601392571839,1318,-0.41259766,-0.07745361,0.8900757
1601392571840,1319,-0.4194336,-0.082336426,0.88568115
1601392571840,1320,-0.41259766,-0.07745361,0.8900757
1601392571841,1321,-0.41479492,-0.07745361,0.8912964
1601392571842,1322,-0.41259766,-0.08087158,0.8883667
1601392571843,1323,-0.41479492,-0.078186035,0.89105225
1601392571843,1324,-0.41479492,-0.07745361,0.8912964
1601392571844,1325,-0.41479492,-0.078186035,0.89105225
1601392571845,1326,-0.41479492,-0.078186035,0.89105225
1601392571851,1327,-0.41552734,-0.07891846,0.88983154
1601392571851,1328,-0.41259766,-0.07745361,0.8900757
1601392571852,1329,-0.41259766,-0.08087158,0.8883667
1601392571853,1330,-0.41552734,-0.07891846,0.88983154
1601392571853,1331,-0.41259766,-0.07745361,0.8900757
1601392571854,1332,-0.41479492,-0.07745361,0.8912964
1601392571862,1333,-0.41259766,-0.08087158,0.8883667
1601392571862,1334,-0.41479492,-0.07745361,0.8912964
1601392571863,1335,-0.41259766,-0.08087158,0.8883667
1601392571864,1336,-0.41552734,-0.07891846,0.88983154
1601392571867,1337,-0.41259766,-0.07745361,0.8900757
1601392571873,1338,-0.41552734,-0.07891846,0.88983154
1601392571873,1339,-0.41479492,-0.07745361,0.8912964
1601392571873,1340,-0.41259766,-0.08087158,0.8883667
1601392571874,1341,-0.41552734,-0.07891846,0.88983154
1601392571876,1342,-0.41479492,-0.07745361,0.8912964
1601392571880,1343,-0.41552734,-0.07891846,0.88983154
1601392574049,1344,-0.41503906,-0.077697754,0.8903198
1601392574049,1345,-0.41503906,-0.077697754,0.8903198
1601392574052,1346,-0.41503906,-0.077697754,0.8903198
1601392574054,1347,-0.41064453,-0.07965088,0.88616943
1601392574056,1348,-0.41503906,-0.07867432,0.8883667
1601392574063,1349,-0.4177246,-0.078186035,0.887146
1601392574063,1350,-0.41503906,-0.077697754,0.8903198
1601392574063,1351,-0.41503906,-0.077697754,0.8903198
1601392574064,1352,-0.41333008,-0.077941895,0.888855
1601392574066,1353,-0.41064453,-0.07965088,0.88616943
1601392574066,1354,-0.41064453,-0.07965088,0.88616943
1601392574071,1355,-0.41064453,-0.07965088,0.88616943
1601392574072,1356,-0.41503906,-0.077697754,0.8903198
1601392574078,1357,-0.41503906,-0.078186035,0.885437
1601392574078,1358,-0.41503906,-0.07867432,0.8883667
1601392574082,1359,-0.41503906,-0.07867432,0.8883667
1601392574083,1360,-0.4177246,-0.078186035,0.887146
1601392574084,1361,-0.41064453,-0.07965088,0.88616943
1601392574085,1362,-0.41064453,-0.07965088,0.88616943
1601392574085,1363,-0.41503906,-0.07867432,0.8883667
1601392574087,1364,-0.41357422,-0.078186035,0.8864136
1601392574087,1365,-0.4177246,-0.078186035,0.887146
1601392574097,1366,-0.41503906,-0.07867432,0.8883667
1601392574097,1367,-0.41503906,-0.07867432,0.8883667
1601392574097,1368,-0.41333008,-0.077941895,0.888855
1601392574099,1369,-0.4177246,-0.078186035,0.887146
1601392574099,1370,-0.4177246,-0.078186035,0.887146
1601392574100,1371,-0.4177246,-0.078186035,0.887146
1601392574101,1372,-0.4165039,-0.078430176,0.8878784
1601392574102,1373,-0.41333008,-0.077941895,0.888855
1601392574105,1374,-0.41503906,-0.078186035,0.885437
1601392574115,1375,-0.41333008,-0.077941895,0.888855
1601392574116,1376,-0.41357422,-0.078186035,0.88983154
1601392574116,1377,-0.41503906,-0.078186035,0.885437
1601392574117,1378,-0.41503906,-0.078186035,0.885437
1601392574118,1379,-0.41333008,-0.077941895,0.888855
1601392574119,1380,-0.41357422,-0.078186035,0.8864136
1601392574119,1381,-0.41357422,-0.078186035,0.8864136
1601392574120,1382,-0.41333008,-0.077941895,0.888855
1601392574121,1383,-0.41503906,-0.078186035,0.885437
1601392574122,1384,-0.4165039,-0.078430176,0.8878784
1601392574127,1385,-0.4128418,-0.07672119,0.8878784
1601392574128,1386,-0.4165039,-0.078430176,0.8878784
1601392574129,1387,-0.41357422,-0.078186035,0.8864136
1601392574129,1388,-0.4111328,-0.07891846,0.89056396
1601392574130,1389,-0.41503906,-0.078186035,0.885437
1601392574135,1390,-0.4165039,-0.078430176,0.8878784
1601392574136,1391,-0.41357422,-0.078186035,0.8864136
1601392574137,1392,-0.41357422,-0.078186035,0.88983154
1601392574137,1393,-0.41333008,-0.077697754,0.8912964
1601392574138,1394,-0.41357422,-0.078186035,0.88983154
1601392574139,1395,-0.41357422,-0.078186035,0.8864136
1601392574140,1396,-0.41357422,-0.078186035,0.88983154
1601392574146,1397,-0.4128418,-0.07672119,0.8878784
1601392574146,1398,-0.4128418,-0.07672119,0.8878784
1601392574146,1399,-0.4165039,-0.078430176,0.8878784
1601392574147,1400,-0.41088867,-0.07965088,0.8903198
1601392574147,1401,-0.4165039,-0.078430176,0.8878784
1601392574147,1402,-0.4128418,-0.07672119,0.8878784
1601392574149,1403,-0.4111328,-0.07891846,0.89056396
1601392574154,1404,-0.41357422,-0.078186035,0.88983154
1601392574155,1405,-0.4111328,-0.08477783,0.8912964
1601392574155,1406,-0.41357422,-0.078186035,0.88983154
1601392574155,1407,-0.4111328,-0.07891846,0.89056396
1601392574156,1408,-0.4111328,-0.07891846,0.89056396
1601392574156,1409,-0.40722656,-0.085510254,0.8925171
1601392574157,1410,-0.41333008,-0.077697754,0.8912964
1601392574159,1411,-0.4128418,-0.07672119,0.8878784
1601392574160,1412,-0.41333008,-0.077697754,0.8912964
1601392574162,1413,-0.4128418,-0.07672119,0.8878784
1601392574166,1414,-0.41333008,-0.077697754,0.8912964
1601392574167,1415,-0.4111328,-0.07891846,0.89056396
1601392574168,1416,-0.41088867,-0.07965088,0.8903198
1601392574168,1417,-0.41333008,-0.077697754,0.8912964
1601392574168,1418,-0.4111328,-0.08477783,0.8912964
1601392574169,1419,-0.4111328,-0.07891846,0.89056396
1601392574171,1420,-0.4074707,-0.08404541,0.8925171
1601392574181,1421,-0.41088867,-0.07965088,0.8903198
1601392574182,1422,-0.41088867,-0.07965088,0.8903198
1601392574182,1423,-0.41333008,-0.077697754,0.8912964
1601392574183,1424,-0.40722656,-0.085510254,0.8925171
1601392574183,1425,-0.41088867,-0.07965088,0.8903198
1601392574184,1426,-0.40234375,-0.07501221,0.89227295
1601392574185,1427,-0.4111328,-0.08477783,0.8912964
1601392574186,1428,-0.4111328,-0.08477783,0.8912964
1601392574187,1429,-0.4111328,-0.08477783,0.8912964
1601392574187,1430,-0.4074707,-0.08404541,0.8925171
1601392574193,1431,-0.41088867,-0.07965088,0.8903198
1601392574193,1432,-0.41186523,-0.0791626,0.88616943
1601392574193,1433,-0.40722656,-0.085510254,0.8925171
1601392574195,1434,-0.4111328,-0.08477783,0.8912964
1601392574197,1435,-0.40722656,-0.085510254,0.8925171
1601392574199,1436,-0.40722656,-0.085510254,0.8925171
1601392574204,1437,-0.4074707,-0.08404541,0.8925171
1601392574205,1438,-0.4074707,-0.08404541,0.8925171
1601392574206,1439,-0.40234375,-0.07501221,0.89227295
1601392574207,1440,-0.4074707,-0.08404541,0.8925171
1601392574208,1441,-0.40722656,-0.085510254,0.8925171
1601392574209,1442,-0.41137695,-0.07354736,0.89178467
1601392574211,1443,-0.40234375,-0.07501221,0.89227295
1601392574213,1444,-0.41186523,-0.0791626,0.88616943
1601392574220,1445,-0.41137695,-0.07354736,0.89178467
1601392574220,1446,-0.4091797,-0.06793213,0.8895874
1601392574221,1447,-0.40234375,-0.07501221,0.89227295
1601392574221,1448,-0.41186523,-0.0791626,0.88616943
1601392574222,1449,-0.40234375,-0.07501221,0.89227295
1601392574224,1450,-0.4074707,-0.08404541,0.8925171
1601392574233,1451,-0.4091797,-0.06793213,0.8895874
1601392574233,1452,-0.41186523,-0.0791626,0.88616943
1601392574234,1453,-0.41455078,-0.066467285,0.88861084
1601392574235,1454,-0.41455078,-0.066467285,0.88861084
1601392574236,1455,-0.41186523,-0.0791626,0.88616943
1601392574236,1456,-0.40234375,-0.07501221,0.89227295
1601392574237,1457,-0.41137695,-0.07354736,0.89178467
1601392574238,1458,-0.41137695,-0.07354736,0.89178467
1601392574239,1459,-0.41918945,-0.066467285,0.888855
1601392574243,1460,-0.41918945,-0.066467285,0.888855
1601392574248,1461,-0.41137695,-0.07354736,0.89178467
1601392574248,1462,-0.41186523,-0.0791626,0.88616943
1601392574249,1463,-0.4091797,-0.06793213,0.8895874
1601392574250,1464,-0.41235352,-0.07110596,0.88983154
1601392574251,1465,-0.4091797,-0.06793213,0.8895874
1601392574252,1466,-0.41235352,-0.07110596,0.88983154
1601392574253,1467,-0.4091797,-0.06793213,0.8895874
1601392574255,1468,-0.41137695,-0.07354736,0.89178467
1601392574257,1469,-0.40795898,-0.070617676,0.8903198
1601392574264,1470,-0.41455078,-0.066467285,0.88861084
1601392574264,1471,-0.40795898,-0.070617676,0.8903198
1601392574265,1472,-0.41455078,-0.066467285,0.88861084
1601392574265,1473,-0.41918945,-0.066467285,0.888855
1601392574267,1474,-0.41455078,-0.066467285,0.88861084
1601392574268,1475,-0.40478516,-0.06866455,0.89178467
1601392574276,1476,-0.4091797,-0.06793213,0.8895874
1601392574276,1477,-0.40478516,-0.06866455,0.89178467
1601392574277,1478,-0.41235352,-0.07110596,0.88983154
1601392574278,1479,-0.41918945,-0.066467285,0.888855
1601392574279,1480,-0.41918945,-0.066467285,0.888855
1601392574281,1481,-0.40698242,-0.06817627,0.88934326
1601392574289,1482,-0.41455078,-0.066467285,0.88861084
1601392574289,1483,-0.40795898,-0.070617676,0.8903198
1601392574290,1484,-0.40698242,-0.06817627,0.88934326
1601392574290,1485,-0.41235352,-0.07110596,0.88983154
1601392574291,1486,-0.41235352,-0.07110596,0.88983154
1601392574292,1487,-0.4104004,-0.07159424,0.89227295
1601392574293,1488,-0.41918945,-0.066467285,0.888855
1601392574295,1489,-0.40478516,-0.06866455,0.89178467
1601392574298,1490,-0.40795898,-0.070617676,0.8903198
1601392574299,1491,-0.40625,-0.0725708,0.8903198
1601392574308,1492,-0.4104004,-0.07159424,0.89227295
1601392574308,1493,-0.40698242,-0.06817627,0.88934326
1601392574308,1494,-0.40795898,-0.070617676,0.8903198
1601392574309,1495,-0.4104004,-0.07159424,0.89227295
1601392574309,1496,-0.40478516,-0.06866455,0.89178467
1601392574309,1497,-0.40673828,-0.074279785,0.8930054
1601392574309,1498,-0.40625,-0.0725708,0.8903198
1601392574309,1499,-0.41235352,-0.07110596,0.88983154
1601392574310,1500,-0.40625,-0.0725708,0.8903198
1601392574310,1501,-0.40795898,-0.070617676,0.8903198
1601392574322,1502,-0.40698242,-0.06817627,0.88934326
1601392574322,1503,-0.40673828,-0.074279785,0.8930054
1601392574322,1504,-0.40576172,-0.07501221,0.89471436
1601392574322,1505,-0.40576172,-0.07501221,0.89471436
1601392574322,1506,-0.40478516,-0.06866455,0.89178467
1601392574323,1507,-0.40478516,-0.06866455,0.89178467
1601392574324,1508,-0.40698242,-0.06817627,0.88934326
1601392574324,1509,-0.40673828,-0.074279785,0.8930054
1601392574324,1510,-0.4104004,-0.07159424,0.89227295
1601392574324,1511,-0.40454102,-0.07672119,0.8954468
1601392574324,1512,-0.40454102,-0.07672119,0.8954468
1601392574325,1513,-0.40698242,-0.06817627,0.88934326
1601392574326,1514,-0.4104004,-0.07159424,0.89227295
1601392574328,1515,-0.40576172,-0.07501221,0.89471436
1601392574330,1516,-0.40625,-0.0725708,0.8903198
1601392574339,1517,-0.40625,-0.0725708,0.8903198
1601392574339,1518,-0.40454102,-0.07672119,0.8954468
1601392574340,1519,-0.4104004,-0.07159424,0.89227295
1601392574342,1520,-0.40161133,-0.07696533,0.8925171
1601392574342,1521,-0.40161133,-0.07696533,0.8925171
1601392574343,1522,-0.40673828,-0.074279785,0.8930054
1601392574344,1523,-0.40673828,-0.074279785,0.8930054
1601392574346,1524,-0.40625,-0.0725708,0.8903198
1601392574349,1525,-0.40576172,-0.07501221,0.89471436
1601392574351,1526,-0.40161133,-0.07696533,0.8925171
1601392574351,1527,-0.40673828,-0.074279785,0.8930054
1601392574360,1528,-0.40454102,-0.07672119,0.8954468
1601392574360,1529,-0.40576172,-0.07501221,0.89471436
1601392574361,1530,-0.40161133,-0.07696533,0.8925171
1601392574362,1531,-0.40576172,-0.07501221,0.89471436
1601392574364,1532,-0.40454102,-0.07672119,0.8954468
1601392574367,1533,-0.40454102,-0.07672119,0.8954468
1601392574367,1534,-0.40161133,-0.07696533,0.8925171
1601392574372,1535,-0.40161133,-0.07696533,0.8925171
1601392576656,1536,-0.4025879,-0.07550049,0.89276123
1601392576657,1537,-0.4025879,-0.07550049,0.89276123
1601392576657,1538,-0.4025879,-0.07550049,0.89276123
1601392576658,1539,-0.4025879,-0.07550049,0.89276123
1601392576659,1540,-0.4008789,-0.07891846,0.89349365
1601392576659,1541,-0.4008789,-0.07891846,0.89349365
1601392576660,1542,-0.4025879,-0.07550049,0.89276123
1601392576661,1543,-0.4025879,-0.07550049,0.89276123
1601392576661,1544,-0.40649414,-0.07330322,0.8920288
1601392576671,1545,-0.4008789,-0.07891846,0.89349365
1601392576672,1546,-0.4008789,-0.07891846,0.89349365
1601392576673,1547,-0.4008789,-0.07891846,0.89349365
1601392576673,1548,-0.40649414,-0.07330322,0.8920288
1601392576674,1549,-0.4033203,-0.0725708,0.8920288
1601392576675,1550,-0.4008789,-0.07891846,0.89349365
1601392576676,1551,-0.4074707,-0.07086182,0.89178467
1601392576676,1552,-0.40649414,-0.07330322,0.8920288
1601392576676,1553,-0.40649414,-0.07330322,0.8920288
1601392576677,1554,-0.4033203,-0.0725708,0.8920288
1601392576678,1555,-0.40649414,-0.07330322,0.8920288
1601392576679,1556,-0.40649414,-0.07330322,0.8920288
1601392576684,1557,-0.4074707,-0.06939697,0.888855
1601392576684,1558,-0.4033203,-0.0725708,0.8920288
1601392576684,1559,-0.4033203,-0.0725708,0.8920288
1601392576685,1560,-0.4033203,-0.0725708,0.8920288
1601392576685,1561,-0.4033203,-0.0725708,0.8920288
1601392576685,1562,-0.4074707,-0.07086182,0.89178467
1601392576686,1563,-0.40625,-0.069885254,0.89105225
1601392576694,1564,-0.4074707,-0.07086182,0.89178467
1601392576694,1565,-0.4074707,-0.07086182,0.89178467
1601392576694,1566,-0.4074707,-0.06939697,0.888855
1601392576695,1567,-0.4074707,-0.07086182,0.89178467
1601392576695,1568,-0.40625,-0.07183838,0.8915405
1601392576695,1569,-0.4074707,-0.07086182,0.89178467
1601392576696,1570,-0.4074707,-0.06939697,0.888855
1601392576696,1571,-0.4074707,-0.06939697,0.888855
1601392576696,1572,-0.40625,-0.069885254,0.89105225
1601392576697,1573,-0.40625,-0.069885254,0.89105225
1601392576698,1574,-0.4074707,-0.06939697,0.888855
1601392576703,1575,-0.4074707,-0.06939697,0.888855
1601392576703,1576,-0.40625,-0.069885254,0.89105225
1601392576703,1577,-0.40625,-0.07183838,0.8915405
1601392576703,1578,-0.40625,-0.07183838,0.8915405
1601392576703,1579,-0.4086914,-0.07159424,0.89178467
1601392576704,1580,-0.40649414,-0.06719971,0.8908081
1601392576705,1581,-0.4086914,-0.07159424,0.89178467
1601392576710,1582,-0.40625,-0.069885254,0.89105225
1601392576710,1583,-0.40625,-0.07183838,0.8915405
1601392576711,1584,-0.40625,-0.069885254,0.89105225
1601392576711,1585,-0.4074707,-0.066223145,0.8895874
1601392576711,1586,-0.4086914,-0.07159424,0.89178467
1601392576711,1587,-0.40649414,-0.06719971,0.8908081
1601392576713,1588,-0.40625,-0.07183838,0.8915405
1601392576718,1589,-0.40625,-0.07183838,0.8915405
1601392576718,1590,-0.40649414,-0.06719971,0.8908081
1601392576718,1591,-0.4074707,-0.066223145,0.8895874
1601392576719,1592,-0.40673828,-0.06451416,0.89105225
1601392576719,1593,-0.4086914,-0.07159424,0.89178467
1601392576719,1594,-0.4086914,-0.07159424,0.89178467
1601392576721,1595,-0.4086914,-0.07159424,0.89178467
1601392576722,1596,-0.40649414,-0.06719971,0.8908081
1601392576723,1597,-0.40942383,-0.066467285,0.8900757
1601392576727,1598,-0.40673828,-0.06451416,0.89105225
1601392576727,1599,-0.40820312,-0.06719971,0.8912964
1601392576728,1600,-0.40942383,-0.066467285,0.8900757
1601392576728,1601,-0.40429688,-0.06744385,0.89471436
1601392576728,1602,-0.40820312,-0.06719971,0.8912964
1601392576731,1603,-0.40649414,-0.06719971,0.8908081
1601392576733,1604,-0.4074707,-0.066223145,0.8895874
1601392576735,1605,-0.40649414,-0.06719971,0.8908081
1601392576738,1606,-0.4074707,-0.066223145,0.8895874
1601392576739,1607,-0.4025879,-0.0713501,0.89349365
1601392576740,1608,-0.40429688,-0.06744385,0.89471436
1601392576752,1609,-0.4074707,-0.066223145,0.8895874
1601392576752,1610,-0.40673828,-0.06451416,0.89105225
1601392576753,1611,-0.40673828,-0.06451416,0.89105225
1601392576753,1612,-0.40551758,-0.0713501,0.88934326
1601392576753,1613,-0.4025879,-0.0713501,0.89349365
1601392576753,1614,-0.40942383,-0.066467285,0.8900757
1601392576753,1615,-0.4074707,-0.066223145,0.8895874
1601392576753,1616,-0.40673828,-0.06451416,0.89105225
1601392576754,1617,-0.40942383,-0.066467285,0.8900757
1601392576754,1618,-0.40551758,-0.0713501,0.88934326
1601392576754,1619,-0.40820312,-0.06719971,0.8912964
1601392576754,1620,-0.4025879,-0.06890869,0.89398193
1601392576755,1621,-0.40820312,-0.06719971,0.8912964
1601392576755,1622,-0.40673828,-0.06451416,0.89105225
1601392576755,1623,-0.40429688,-0.06744385,0.89471436
1601392576772,1624,-0.4025879,-0.06890869,0.89398193
1601392576772,1625,-0.40429688,-0.06744385,0.89471436
1601392576772,1626,-0.4050293,-0.06890869,0.8925171
1601392576774,1627,-0.40942383,-0.066467285,0.8900757
1601392576775,1628,-0.40942383,-0.066467285,0.8900757
1601392576776,1629,-0.4025879,-0.0713501,0.89349365
1601392576776,1630,-0.40820312,-0.06719971,0.8912964
1601392576776,1631,-0.4025879,-0.0713501,0.89349365
1601392576776,1632,-0.40429688,-0.06744385,0.89471436
1601392576778,1633,-0.4050293,-0.06890869,0.8925171
1601392576779,1634,-0.4025879,-0.0713501,0.89349365
1601392576780,1635,-0.40820312,-0.06719971,0.8912964
1601392576780,1636,-0.40551758,-0.0713501,0.88934326
1601392576780,1637,-0.40551758,-0.0713501,0.88934326
1601392576780,1638,-0.40283203,-0.06817627,0.8925171
1601392576780,1639,-0.4025879,-0.06890869,0.89398193
1601392576781,1640,-0.40283203,-0.06817627,0.8925171
1601392576782,1641,-0.4050293,-0.06890869,0.8925171
1601392576785,1642,-0.40429688,-0.06744385,0.89471436
1601392576786,1643,-0.4025879,-0.0713501,0.89349365
1601392576789,1644,-0.40551758,-0.0713501,0.88934326
1601392576789,1645,-0.4050293,-0.069885254,0.89398193
1601392576801,1646,-0.40551758,-0.0713501,0.88934326
1601392576802,1647,-0.4050293,-0.069885254,0.89398193
1601392576802,1648,-0.40283203,-0.06817627,0.8925171
1601392576802,1649,-0.40405273,-0.06549072,0.8961792
1601392576802,1650,-0.4025879,-0.06890869,0.89398193
1601392576803,1651,-0.40405273,-0.06549072,0.8961792
1601392576803,1652,-0.4025879,-0.06890869,0.89398193
1601392576803,1653,-0.40283203,-0.06817627,0.89276123
1601392576804,1654,-0.4050293,-0.069885254,0.89398193
1601392576804,1655,-0.40283203,-0.06817627,0.89276123
1601392576804,1656,-0.4050293,-0.06890869,0.8925171
1601392576805,1657,-0.40405273,-0.06549072,0.8961792
1601392576811,1658,-0.4050293,-0.06890869,0.8925171
1601392576812,1659,-0.40185547,-0.066467285,0.89276123
1601392576812,1660,-0.40283203,-0.06817627,0.8925171
1601392576812,1661,-0.4025879,-0.06890869,0.89398193
1601392576813,1662,-0.40185547,-0.066467285,0.89276123
1601392576813,1663,-0.40283203,-0.06817627,0.89276123
1601392576814,1664,-0.4033203,-0.06939697,0.89276123
1601392576814,1665,-0.40283203,-0.06817627,0.8925171
1601392576816,1666,-0.4050293,-0.06890869,0.8925171
1601392576817,1667,-0.4033203,-0.06939697,0.89276123
1601392576822,1668,-0.4038086,-0.06890869,0.8956909
1601392576823,1669,-0.4050293,-0.069885254,0.89398193
1601392576823,1670,-0.4050293,-0.06890869,0.89520264
1601392576823,1671,-0.40405273,-0.06549072,0.8961792
1601392576824,1672,-0.40185547,-0.066467285,0.89276123
1601392576824,1673,-0.4038086,-0.06890869,0.8956909
1601392576826,1674,-0.4050293,-0.069885254,0.89398193
1601392576839,1675,-0.40405273,-0.06549072,0.8961792
1601392576839,1676,-0.40283203,-0.06817627,0.89276123
1601392576840,1677,-0.4033203,-0.06939697,0.89276123
1601392576840,1678,-0.4050293,-0.06890869,0.89520264
1601392576840,1679,-0.4038086,-0.06695557,0.89471436
1601392576841,1680,-0.40283203,-0.06817627,0.8925171
1601392576841,1681,-0.40283203,-0.06964111,0.89520264
1601392576841,1682,-0.40283203,-0.06817627,0.89276123
1601392576842,1683,-0.4025879,-0.06866455,0.8925171
1601392576842,1684,-0.4038086,-0.06695557,0.89471436
1601392576843,1685,-0.4038086,-0.06890869,0.8956909
1601392576846,1686,-0.4050293,-0.069885254,0.89398193
1601392576846,1687,-0.40185547,-0.066467285,0.89276123
1601392576848,1688,-0.40283203,-0.06964111,0.89520264
1601392576848,1689,-0.40112305,-0.066223145,0.8949585
1601392576849,1690,-0.4050293,-0.06890869,0.89520264
1601392576855,1691,-0.40405273,-0.06549072,0.8961792
1601392576856,1692,-0.4033203,-0.06939697,0.89276123
1601392576856,1693,-0.4025879,-0.06866455,0.8925171
1601392576856,1694,-0.40185547,-0.066467285,0.89276123
1601392576856,1695,-0.40185547,-0.06793213,0.8908081
1601392576857,1696,-0.40112305,-0.066223145,0.8949585
1601392576860,1697,-0.40283203,-0.06817627,0.89276123
1601392576860,1698,-0.4038086,-0.06890869,0.8956909
1601392576863,1699,-0.4033203,-0.06939697,0.89276123
1601392576864,1700,-0.40185547,-0.06793213,0.8908081
1601392576864,1701,-0.4038086,-0.06695557,0.89471436
1601392576865,1702,-0.40185547,-0.066467285,0.89276123
1601392576867,1703,-0.4038086,-0.06890869,0.8956909
1601392576868,1704,-0.4050293,-0.06890869,0.89520264
1601392576884,1705,-0.4033203,-0.06939697,0.89276123
1601392576884,1706,-0.4050293,-0.06890869,0.89520264
1601392576884,1707,-0.40283203,-0.06964111,0.89520264
1601392576885,1708,-0.4038086,-0.06695557,0.89471436
1601392576885,1709,-0.4038086,-0.06890869,0.8956909
1601392576886,1710,-0.40283203,-0.06964111,0.89520264
1601392576886,1711,-0.4038086,-0.06695557,0.89471436
1601392576886,1712,-0.4025879,-0.06866455,0.8925171
1601392576886,1713,-0.4050293,-0.06890869,0.89520264
1601392576887,1714,-0.4025879,-0.06866455,0.8925171
1601392576887,1715,-0.4038086,-0.06695557,0.89471436
1601392576887,1716,-0.40112305,-0.066223145,0.8949585
1601392576887,1717,-0.40283203,-0.06964111,0.89520264
1601392576888,1718,-0.40283203,-0.06964111,0.89520264
1601392576888,1719,-0.40112305,-0.066223145,0.8949585
1601392576888,1720,-0.40185547,-0.06793213,0.8908081
1601392576889,1721,-0.40185547,-0.06793213,0.8908081
1601392576889,1722,-0.4025879,-0.06866455,0.8925171
1601392576889,1723,-0.4025879,-0.06866455,0.8925171
1601392576897,1724,-0.40112305,-0.066223145,0.8949585
1601392576897,1725,-0.40112305,-0.066223145,0.8949585
1601392576898,1726,-0.40185547,-0.06793213,0.8908081
1601392576899,1727,-0.40185547,-0.06793213,0.8908081
1601392579277,1728,-0.40356445,-0.06744385,0.89642334
1601392579277,1729,-0.40356445,-0.06744385,0.89642334
1601392579277,1730,-0.40356445,-0.06744385,0.89642334
1601392579280,1731,-0.40356445,-0.06744385,0.89642334
1601392579280,1732,-0.40356445,-0.06744385,0.89642334
1601392579282,1733,-0.40356445,-0.06744385,0.89642334
1601392579282,1734,-0.40161133,-0.06939697,0.89105225
1601392579283,1735,-0.40161133,-0.06939697,0.89105225
1601392579283,1736,-0.40161133,-0.06939697,0.89105225
1601392579284,1737,-0.40161133,-0.06939697,0.89105225
1601392579285,1738,-0.40161133,-0.06939697,0.89105225
1601392579286,1739,-0.40356445,-0.06842041,0.8925171
1601392579287,1740,-0.40161133,-0.06939697,0.89105225
1601392579288,1741,-0.40356445,-0.06842041,0.8925171
1601392579288,1742,-0.40356445,-0.06842041,0.8925171
1601392579289,1743,-0.40356445,-0.06842041,0.8925171
1601392579289,1744,-0.40478516,-0.06744385,0.89398193
1601392579290,1745,-0.40478516,-0.06744385,0.89398193
1601392579291,1746,-0.40356445,-0.06842041,0.8925171
1601392579292,1747,-0.4038086,-0.06573486,0.8932495
1601392579292,1748,-0.40478516,-0.06744385,0.89398193
1601392579293,1749,-0.4038086,-0.06573486,0.8932495
1601392579294,1750,-0.40356445,-0.06842041,0.8925171
1601392579295,1751,-0.40478516,-0.06744385,0.89398193
1601392579296,1752,-0.40478516,-0.06744385,0.89398193
1601392579297,1753,-0.40478516,-0.06744385,0.89398193
1601392579298,1754,-0.40429688,-0.06451416,0.89349365
1601392579299,1755,-0.4038086,-0.06573486,0.8932495
1601392579299,1756,-0.40429688,-0.06451416,0.89349365
1601392579301,1757,-0.40039062,-0.065979004,0.89227295
1601392579310,1758,-0.4038086,-0.06573486,0.8932495
1601392579310,1759,-0.4038086,-0.06573486,0.8932495
1601392579310,1760,-0.4038086,-0.06573486,0.8932495
1601392579311,1761,-0.40429688,-0.06451416,0.89349365
1601392579311,1762,-0.40039062,-0.065979004,0.89227295
1601392579311,1763,-0.40307617,-0.06817627,0.8937378
1601392579314,1764,-0.40307617,-0.06817627,0.8937378
1601392579327,1765,-0.40429688,-0.06451416,0.89349365
1601392579327,1766,-0.40429688,-0.06451416,0.89349365
1601392579327,1767,-0.40039062,-0.065979004,0.89227295
1601392579327,1768,-0.40307617,-0.06817627,0.8937378
1601392579327,1769,-0.40429688,-0.06451416,0.89349365
1601392579327,1770,-0.40161133,-0.066467285,0.8956909
1601392579328,1771,-0.40039062,-0.065979004,0.89227295
1601392579328,1772,-0.40039062,-0.065979004,0.89227295
1601392579328,1773,-0.40161133,-0.066467285,0.8956909
1601392579328,1774,-0.4025879,-0.06500244,0.89398193
1601392579328,1775,-0.4025879,-0.06500244,0.89398193
1601392579342,1776,-0.40161133,-0.066467285,0.8956909
1601392579343,1777,-0.40307617,-0.06817627,0.8937378
1601392579343,1778,-0.40307617,-0.06817627,0.8937378
1601392579344,1779,-0.40039062,-0.065979004,0.89227295
1601392579344,1780,-0.39990234,-0.066223145,0.89471436
1601392579344,1781,-0.39990234,-0.066223145,0.89471436
1601392579344,1782,-0.4025879,-0.06500244,0.89398193
1601392579344,1783,-0.40161133,-0.066467285,0.8956909
1601392579344,1784,-0.4025879,-0.06500244,0.89398193
1601392579344,1785,-0.40234375,-0.066223145,0.89276123
1601392579346,1786,-0.40161133,-0.066467285,0.8956909
1601392579346,1787,-0.40234375,-0.066223145,0.89276123
1601392579348,1788,-0.39990234,-0.066223145,0.89471436
1601392579348,1789,-0.40307617,-0.06817627,0.8937378
1601392579348,1790,-0.40283203,-0.066223145,0.8932495
1601392579348,1791,-0.40234375,-0.066223145,0.89276123
1601392579348,1792,-0.39990234,-0.066223145,0.89471436
1601392579353,1793,-0.4025879,-0.06500244,0.89398193
1601392579353,1794,-0.40283203,-0.066223145,0.8932495
1601392579353,1795,-0.39990234,-0.066223145,0.89471436
1601392579354,1796,-0.4033203,-0.06500244,0.89520264
1601392579354,1797,-0.40283203,-0.066223145,0.8932495
1601392579354,1798,-0.40234375,-0.066223145,0.89276123
1601392579361,1799,-0.4033203,-0.06500244,0.89520264
1601392579362,1800,-0.40161133,-0.066467285,0.8956909
1601392579362,1801,-0.40234375,-0.066223145,0.89276123
1601392579363,1802,-0.40063477,-0.06402588,0.89276123
1601392579363,1803,-0.4033203,-0.06500244,0.89520264
1601392579363,1804,-0.40283203,-0.066223145,0.8932495
1601392579364,1805,-0.40063477,-0.06402588,0.89276123
1601392579364,1806,-0.4033203,-0.06500244,0.89520264
1601392579364,1807,-0.4025879,-0.06500244,0.89398193
1601392579365,1808,-0.40283203,-0.066223145,0.8932495
1601392579387,1809,-0.40063477,-0.06402588,0.89276123
1601392579387,1810,-0.40161133,-0.062805176,0.8942261
1601392579387,1811,-0.40161133,-0.062805176,0.8942261
1601392579387,1812,-0.39990234,-0.066223145,0.89471436
1601392579388,1813,-0.40454102,-0.062316895,0.8930054
1601392579388,1814,-0.4033203,-0.06500244,0.89520264
1601392579388,1815,-0.40185547,-0.06329346,0.89227295
1601392579388,1816,-0.40161133,-0.062805176,0.8942261
1601392579389,1817,-0.40063477,-0.06402588,0.89276123
1601392579389,1818,-0.40014648,-0.06451416,0.89520264
1601392579390,1819,-0.40454102,-0.062316895,0.8930054
1601392579390,1820,-0.40307617,-0.06500244,0.8937378
1601392579391,1821,-0.40185547,-0.06329346,0.89227295
1601392579391,1822,-0.40454102,-0.062316895,0.8930054
1601392579391,1823,-0.40234375,-0.066223145,0.89276123
1601392579391,1824,-0.40161133,-0.062805176,0.8942261
1601392579392,1825,-0.40014648,-0.06451416,0.89520264
1601392579392,1826,-0.40063477,-0.06402588,0.89276123
1601392579392,1827,-0.40307617,-0.06500244,0.8937378
1601392579393,1828,-0.40185547,-0.06329346,0.89227295
1601392579393,1829,-0.40283203,-0.066223145,0.8932495
1601392579399,1830,-0.40454102,-0.062316895,0.8930054
1601392579399,1831,-0.40039062,-0.06109619,0.89520264
1601392579399,1832,-0.40161133,-0.062805176,0.8942261
1601392579399,1833,-0.40039062,-0.06109619,0.89520264
1601392579400,1834,-0.4033203,-0.06500244,0.89520264
1601392579400,1835,-0.40014648,-0.06451416,0.89520264
1601392579400,1836,-0.40527344,-0.06573486,0.89227295
1601392579403,1837,-0.40185547,-0.06329346,0.89227295
1601392579440,1838,-0.40234375,-0.06549072,0.8932495
1601392579440,1839,-0.40527344,-0.06573486,0.89227295
1601392579441,1840,-0.40063477,-0.06402588,0.89276123
1601392579441,1841,-0.3955078,-0.061584473,0.8942261
1601392579441,1842,-0.40307617,-0.06500244,0.8937378
1601392579441,1843,-0.40161133,-0.062805176,0.8942261
1601392579443,1844,-0.40307617,-0.062805176,0.89349365
1601392579445,1845,-0.40234375,-0.06549072,0.8932495
1601392579445,1846,-0.40454102,-0.062316895,0.8930054
1601392579445,1847,-0.40014648,-0.06451416,0.89520264
1601392579446,1848,-0.40185547,-0.06329346,0.89227295
1601392579446,1849,-0.40307617,-0.06500244,0.8937378
1601392579447,1850,-0.40454102,-0.062316895,0.8930054
1601392579447,1851,-0.3955078,-0.061584473,0.8942261
1601392579447,1852,-0.40039062,-0.06109619,0.89520264
1601392579448,1853,-0.40039062,-0.06109619,0.89520264
1601392579448,1854,-0.40454102,-0.059387207,0.8949585
1601392579448,1855,-0.40527344,-0.06573486,0.89227295
1601392579449,1856,-0.40014648,-0.06451416,0.89520264
1601392579449,1857,-0.40527344,-0.06573486,0.89227295
1601392579449,1858,-0.40234375,-0.06549072,0.8932495
1601392579450,1859,-0.40307617,-0.062805176,0.89349365
1601392579450,1860,-0.40600586,-0.06036377,0.89276123
1601392579452,1861,-0.40185547,-0.06329346,0.89227295
1601392579452,1862,-0.3955078,-0.061584473,0.8942261
1601392579452,1863,-0.40307617,-0.06500244,0.8937378
1601392579452,1864,-0.40234375,-0.062561035,0.8932495
1601392579453,1865,-0.40234375,-0.06549072,0.8932495
1601392579454,1866,-0.40014648,-0.06451416,0.89520264
1601392579454,1867,-0.40039062,-0.06109619,0.89520264
1601392579454,1868,-0.40454102,-0.059387207,0.8949585
1601392579454,1869,-0.40527344,-0.06573486,0.89227295
1601392579454,1870,-0.40307617,-0.06500244,0.8937378
1601392579454,1871,-0.3955078,-0.061584473,0.8942261
1601392579455,1872,-0.40039062,-0.06109619,0.89520264
1601392579455,1873,-0.40600586,-0.06036377,0.89276123
1601392579455,1874,-0.40307617,-0.062805176,0.89349365
1601392579456,1875,-0.40234375,-0.06549072,0.8932495
1601392579456,1876,-0.39819336,-0.058410645,0.89764404
1601392579456,1877,-0.3955078,-0.061584473,0.8942261
1601392579457,1878,-0.40307617,-0.062805176,0.89349365
1601392579457,1879,-0.40307617,-0.062805176,0.89349365
1601392579457,1880,-0.40234375,-0.062561035,0.8932495
1601392579463,1881,-0.4020996,-0.059143066,0.8900757
1601392579463,1882,-0.40454102,-0.059387207,0.8949585
1601392579463,1883,-0.40527344,-0.06573486,0.89227295
1601392579464,1884,-0.40454102,-0.059387207,0.8949585
1601392579464,1885,-0.40527344,-0.058898926,0.89276123
1601392579464,1886,-0.40600586,-0.06036377,0.89276123
1601392579469,1887,-0.40454102,-0.059387207,0.8949585
1601392579469,1888,-0.40600586,-0.06036377,0.89276123
1601392579469,1889,-0.40234375,-0.06549072,0.8932495
1601392579470,1890,-0.39819336,-0.058410645,0.89764404
1601392579470,1891,-0.40551758,-0.05718994,0.8920288
1601392579471,1892,-0.4020996,-0.059143066,0.8900757
1601392579472,1893,-0.40600586,-0.06036377,0.89276123
1601392579477,1894,-0.3955078,-0.061584473,0.8942261
1601392579477,1895,-0.40234375,-0.062561035,0.8932495
1601392579477,1896,-0.40527344,-0.058898926,0.89276123
1601392579477,1897,-0.40234375,-0.062561035,0.8932495
1601392579477,1898,-0.40234375,-0.062561035,0.8932495
1601392579488,1899,-0.40307617,-0.062805176,0.89349365
1601392579488,1900,-0.39819336,-0.058410645,0.89764404
1601392579488,1901,-0.39819336,-0.058410645,0.89764404
1601392579488,1902,-0.40551758,-0.05718994,0.8920288
1601392579489,1903,-0.39819336,-0.058410645,0.89764404
1601392579489,1904,-0.40454102,-0.059387207,0.8949585
1601392579489,1905,-0.4020996,-0.059143066,0.8900757
1601392579490,1906,-0.4020996,-0.059143066,0.8900757
1601392579490,1907,-0.4020996,-0.059143066,0.8900757
1601392579490,1908,-0.40600586,-0.06036377,0.89276123
1601392579491,1909,-0.40527344,-0.058898926,0.89276123
1601392579491,1910,-0.40527344,-0.058898926,0.89276123
1601392579491,1911,-0.40551758,-0.05718994,0.8920288
1601392579491,1912,-0.40527344,-0.058898926,0.89276123
1601392579492,1913,-0.40234375,-0.062561035,0.8932495
1601392579492,1914,-0.40551758,-0.05718994,0.8920288
1601392579495,1915,-0.39819336,-0.058410645,0.89764404
1601392579495,1916,-0.40551758,-0.05718994,0.8920288
1601392579498,1917,-0.4020996,-0.059143066,0.8900757
1601392579501,1918,-0.40527344,-0.058898926,0.89276123
1601392579501,1919,-0.40551758,-0.05718994,0.8920288
1601392582054,1920,-0.40161133,-0.0569458,0.8937378
1601392582054,1921,-0.40161133,-0.0569458,0.8937378
1601392582057,1922,-0.40161133,-0.0569458,0.8937378
1601392582057,1923,-0.40161133,-0.0569458,0.8937378
1601392582057,1924,-0.40161133,-0.0569458,0.8937378
1601392582057,1925,-0.40161133,-0.0569458,0.8937378
1601392582059,1926,-0.40600586,-0.057922363,0.8920288
1601392582063,1927,-0.40600586,-0.057922363,0.8920288
1601392582063,1928,-0.40600586,-0.057922363,0.8920288
1601392582083,1929,-0.40600586,-0.057922363,0.8920288
1601392582083,1930,-0.40356445,-0.053527832,0.8978882
1601392582084,1931,-0.40356445,-0.053527832,0.8978882
1601392582085,1932,-0.40356445,-0.053527832,0.8978882
1601392582085,1933,-0.40600586,-0.057922363,0.8920288
1601392582086,1934,-0.40356445,-0.053527832,0.8978882
1601392582087,1935,-0.40649414,-0.058410645,0.89105225
1601392582087,1936,-0.40649414,-0.058410645,0.89105225
1601392582088,1937,-0.4050293,-0.058166504,0.89520264
1601392582089,1938,-0.40356445,-0.053527832,0.8978882
1601392582089,1939,-0.40600586,-0.057922363,0.8920288
1601392582090,1940,-0.40356445,-0.053527832,0.8978882
1601392582091,1941,-0.40649414,-0.058410645,0.89105225
1601392582091,1942,-0.40649414,-0.058410645,0.89105225
1601392582092,1943,-0.4050293,-0.058166504,0.89520264
1601392582092,1944,-0.40307617,-0.055725098,0.89398193
1601392582093,1945,-0.40649414,-0.058410645,0.89105225
1601392582095,1946,-0.40649414,-0.058410645,0.89105225
1601392582107,1947,-0.4050293,-0.058166504,0.89520264
1601392582108,1948,-0.40307617,-0.055725098,0.89398193
1601392582108,1949,-0.4025879,-0.054992676,0.8961792
1601392582108,1950,-0.4050293,-0.058166504,0.89520264
1601392582108,1951,-0.4050293,-0.058166504,0.89520264
1601392582109,1952,-0.4050293,-0.058166504,0.89520264
1601392582109,1953,-0.40307617,-0.055725098,0.89398193
1601392582109,1954,-0.4025879,-0.054992676,0.8961792
1601392582109,1955,-0.40307617,-0.055725098,0.89398193
1601392582109,1956,-0.40405273,-0.054748535,0.8915405
1601392582109,1957,-0.40307617,-0.055725098,0.89398193
1601392582110,1958,-0.4025879,-0.054992676,0.8961792
1601392582111,1959,-0.4025879,-0.054992676,0.8961792
1601392582111,1960,-0.40405273,-0.054748535,0.8915405
1601392582117,1961,-0.40478516,-0.051330566,0.89520264
1601392582117,1962,-0.40307617,-0.055725098,0.89398193
1601392582117,1963,-0.40405273,-0.054748535,0.8915405
1601392582117,1964,-0.40405273,-0.054748535,0.8915405
1601392582117,1965,-0.4025879,-0.054992676,0.8961792
1601392582118,1966,-0.40478516,-0.051330566,0.89520264
1601392582126,1967,-0.4025879,-0.054992676,0.8961792
1601392582126,1968,-0.41137695,-0.05596924,0.8925171
1601392582126,1969,-0.40478516,-0.051330566,0.89520264
1601392582126,1970,-0.41137695,-0.05596924,0.8925171
1601392582126,1971,-0.41137695,-0.05596924,0.8925171
1601392582127,1972,-0.40478516,-0.051330566,0.89520264
1601392582127,1973,-0.40649414,-0.059631348,0.89276123
1601392582127,1974,-0.40405273,-0.054748535,0.8915405
1601392582127,1975,-0.40649414,-0.059631348,0.89276123
1601392582128,1976,-0.40478516,-0.051330566,0.89520264
1601392582128,1977,-0.41137695,-0.05596924,0.8925171
1601392582134,1978,-0.40649414,-0.059631348,0.89276123
1601392582134,1979,-0.40405273,-0.054748535,0.8915405
1601392582134,1980,-0.40429688,-0.058410645,0.8925171
1601392582135,1981,-0.40429688,-0.058410645,0.8925171
1601392582135,1982,-0.40649414,-0.059631348,0.89276123
1601392582135,1983,-0.41137695,-0.05596924,0.8925171
1601392582135,1984,-0.40478516,-0.051330566,0.89520264
1601392582136,1985,-0.4033203,-0.053527832,0.8920288
1601392582136,1986,-0.4033203,-0.053527832,0.8920288
1601392582141,1987,-0.40429688,-0.058410645,0.8925171
1601392582141,1988,-0.40429688,-0.058410645,0.8925171
1601392582141,1989,-0.40649414,-0.059631348,0.89276123
1601392582142,1990,-0.41137695,-0.05596924,0.8925171
1601392582142,1991,-0.40429688,-0.05328369,0.89105225
1601392582142,1992,-0.40429688,-0.05328369,0.89105225
1601392582143,1993,-0.4033203,-0.053527832,0.8920288
1601392582164,1994,-0.40649414,-0.054260254,0.89398193
1601392582164,1995,-0.40429688,-0.058410645,0.8925171
1601392582165,1996,-0.40649414,-0.054260254,0.89398193
1601392582165,1997,-0.40649414,-0.059631348,0.89276123
1601392582166,1998,-0.4033203,-0.053527832,0.8920288
1601392582167,1999,-0.40429688,-0.05328369,0.89105225
1601392582167,2000,-0.4033203,-0.053527832,0.8920288
1601392582168,2001,-0.40454102,-0.050598145,0.8944702
1601392582168,2002,-0.40649414,-0.054260254,0.89398193
1601392582169,2003,-0.40429688,-0.058410645,0.8925171
1601392582170,2004,-0.40454102,-0.050598145,0.8944702
1601392582170,2005,-0.40429688,-0.05328369,0.89105225
1601392582171,2006,-0.40527344,-0.054016113,0.8920288
1601392582171,2007,-0.40429688,-0.05328369,0.89105225
1601392582172,2008,-0.40551758,-0.054016113,0.89520264
1601392582172,2009,-0.40454102,-0.050598145,0.8944702
1601392582173,2010,-0.4033203,-0.053527832,0.8920288
1601392582174,2011,-0.40527344,-0.054016113,0.8920288
1601392582174,2012,-0.40429688,-0.05328369,0.89105225
1601392582175,2013,-0.40649414,-0.054260254,0.89398193
1601392582176,2014,-0.40649414,-0.054260254,0.89398193
1601392582176,2015,-0.40527344,-0.050109863,0.8912964
1601392582177,2016,-0.40527344,-0.054016113,0.8920288
1601392582178,2017,-0.40649414,-0.054260254,0.89398193
1601392582179,2018,-0.40551758,-0.054016113,0.89520264
1601392582179,2019,-0.40551758,-0.054016113,0.89520264
1601392582180,2020,-0.40454102,-0.051330566,0.8930054
1601392582180,2021,-0.40454102,-0.050598145,0.8944702
1601392582181,2022,-0.40454102,-0.050598145,0.8944702
1601392582182,2023,-0.40527344,-0.050109863,0.8912964
1601392582182,2024,-0.40527344,-0.054016113,0.8920288
1601392582183,2025,-0.40527344,-0.050109863,0.8912964
1601392582184,2026,-0.40551758,-0.054016113,0.89520264
1601392582184,2027,-0.40527344,-0.054016113,0.8920288
1601392582185,2028,-0.40454102,-0.051330566,0.8930054
1601392582185,2029,-0.40551758,-0.054016113,0.89520264
1601392582186,2030,-0.40454102,-0.051330566,0.8930054
1601392582187,2031,-0.40527344,-0.050109863,0.8912964
1601392582187,2032,-0.40527344,-0.050109863,0.8912964
1601392582188,2033,-0.4033203,-0.049865723,0.8937378
1601392582189,2034,-0.4033203,-0.049865723,0.8937378
1601392582195,2035,-0.40454102,-0.050598145,0.8944702
1601392582195,2036,-0.4033203,-0.049865723,0.8937378
1601392582196,2037,-0.40454102,-0.051330566,0.8930054
1601392582197,2038,-0.40307617,-0.04473877,0.8908081
1601392582197,2039,-0.4033203,-0.049865723,0.8937378
1601392582198,2040,-0.40454102,-0.051330566,0.8930054
1601392582199,2041,-0.40527344,-0.054016113,0.8920288
1601392582200,2042,-0.40307617,-0.04473877,0.8908081
1601392582202,2043,-0.40234375,-0.011047363,0.91619873
1601392582204,2044,-0.40551758,-0.054016113,0.89520264
1601392582205,2045,-0.40527344,-0.050109863,0.8912964
1601392582207,2046,-0.40307617,-0.04473877,0.8908081
1601392582212,2047,-0.4033203,-0.049865723,0.8937378
1601392582212,2048,-0.40307617,-0.04473877,0.8908081
1601392582212,2049,-0.40234375,-0.011047363,0.91619873
1601392582212,2050,-0.40454102,-0.051330566,0.8930054
1601392582212,2051,-0.41259766,-0.09161377,0.8764038
1601392582213,2052,-0.40234375,-0.011047363,0.91619873
1601392582218,2053,-0.40307617,-0.04473877,0.8908081
1601392582219,2054,-0.40234375,-0.011047363,0.91619873
1601392582219,2055,-0.4140625,-0.1362915,0.86712646
1601392582219,2056,-0.41259766,-0.09161377,0.8764038
1601392582219,2057,-0.40234375,-0.011047363,0.91619873
1601392582220,2058,-0.41259766,-0.09161377,0.8764038
1601392582220,2059,-0.41259766,-0.09161377,0.8764038
1601392582226,2060,-0.4033203,-0.049865723,0.8937378
1601392582227,2061,-0.4033203,-0.059387207,0.9086304
1601392582227,2062,-0.41259766,-0.09161377,0.8764038
1601392582227,2063,-0.4140625,-0.1362915,0.86712646
1601392582228,2064,-0.4140625,-0.1362915,0.86712646
1601392582228,2065,-0.4140625,-0.1362915,0.86712646
1601392582235,2066,-0.40307617,-0.04473877,0.8908081
1601392582235,2067,-0.4140625,-0.1362915,0.86712646
1601392582236,2068,-0.40234375,-0.055236816,0.90008545
1601392582236,2069,-0.4033203,-0.059387207,0.9086304
1601392582238,2070,-0.4033203,-0.059387207,0.9086304
1601392582238,2071,-0.4033203,-0.059387207,0.9086304
1601392582239,2072,-0.4033203,-0.059387207,0.9086304
1601392582240,2073,-0.40234375,-0.055236816,0.90008545
1601392582242,2074,-0.40234375,-0.055236816,0.90008545
1601392582251,2075,-0.40234375,-0.011047363,0.91619873
1601392582252,2076,-0.40234375,-0.055236816,0.90008545
1601392582252,2077,-0.41259766,-0.09161377,0.8764038
1601392582253,2078,-0.40161133,-0.05718994,0.89471436
1601392582255,2079,-0.40234375,-0.055236816,0.90008545
1601392582255,2080,-0.40161133,-0.05718994,0.89471436
1601392582262,2081,-0.40161133,-0.05718994,0.89471436
1601392582264,2082,-0.40161133,-0.05718994,0.89471436
1601392582264,2083,-0.4140625,-0.1362915,0.86712646
1601392582264,2084,-0.40698242,-0.06573486,0.8883667
1601392582265,2085,-0.40161133,-0.05718994,0.89471436
1601392582265,2086,-0.40698242,-0.06573486,0.8883667
1601392582266,2087,-0.40698242,-0.06573486,0.8883667
1601392582279,2088,-0.4033203,-0.059387207,0.9086304
1601392582280,2089,-0.40478516,-0.059143066,0.8932495
1601392582280,2090,-0.40478516,-0.059143066,0.8932495
1601392582280,2091,-0.40698242,-0.06573486,0.8883667
1601392582280,2092,-0.40698242,-0.06573486,0.8883667
1601392582281,2093,-0.40478516,-0.059143066,0.8932495
1601392582281,2094,-0.40234375,-0.055236816,0.90008545
1601392582281,2095,-0.40478516,-0.059143066,0.8932495
1601392582282,2096,-0.40283203,-0.05621338,0.88983154
1601392582282,2097,-0.40283203,-0.05621338,0.88983154
1601392582282,2098,-0.40283203,-0.05621338,0.88983154
1601392582282,2099,-0.4038086,-0.055480957,0.89227295
1601392582283,2100,-0.40161133,-0.05718994,0.89471436
1601392582283,2101,-0.40283203,-0.05621338,0.88983154
1601392582286,2102,-0.40478516,-0.059143066,0.8932495
1601392582287,2103,-0.4038086,-0.055480957,0.89227295
1601392582290,2104,-0.40698242,-0.06573486,0.8883667
1601392582293,2105,-0.40478516,-0.059143066,0.8932495
1601392582297,2106,-0.4038086,-0.055480957,0.89227295
1601392582297,2107,-0.4038086,-0.055480957,0.89227295
1601392582306,2108,-0.40283203,-0.05621338,0.88983154
1601392582306,2109,-0.40283203,-0.05621338,0.88983154
1601392582310,2110,-0.4038086,-0.055480957,0.89227295
1601392582310,2111,-0.4038086,-0.055480957,0.89227295
1601392584459,2112,-0.40283203,-0.05621338,0.8949585
1601392584461,2113,-0.40283203,-0.05621338,0.8949585
1601392584463,2114,-0.40283203,-0.05621338,0.8949585
1601392584463,2115,-0.40551758,-0.055725098,0.8925171
1601392584464,2116,-0.40283203,-0.05621338,0.8949585
1601392584465,2117,-0.40283203,-0.05621338,0.8949585
1601392584465,2118,-0.40551758,-0.055725098,0.8925171
1601392584466,2119,-0.40551758,-0.055725098,0.8925171
1601392584467,2120,-0.40551758,-0.055725098,0.8925171
1601392584471,2121,-0.40551758,-0.055725098,0.8925171
1601392584474,2122,-0.4025879,-0.055725098,0.89398193
1601392584474,2123,-0.4025879,-0.055725098,0.89398193
1601392584475,2124,-0.4025879,-0.055725098,0.89398193
1601392584477,2125,-0.4025879,-0.055725098,0.89398193
1601392584487,2126,-0.40283203,-0.05621338,0.8949585
1601392584487,2127,-0.40625,-0.057678223,0.89178467
1601392584495,2128,-0.40625,-0.057678223,0.89178467
1601392584496,2129,-0.4025879,-0.055725098,0.89398193
1601392584496,2130,-0.40625,-0.057678223,0.89178467
1601392584496,2131,-0.40478516,-0.05718994,0.8961792
1601392584496,2132,-0.40551758,-0.055725098,0.8925171
1601392584513,2133,-0.40625,-0.057678223,0.89178467
1601392584514,2134,-0.40625,-0.057678223,0.89178467
1601392584515,2135,-0.40478516,-0.05718994,0.8961792
1601392584515,2136,-0.40478516,-0.05718994,0.8961792
1601392584516,2137,-0.40478516,-0.05718994,0.8961792
1601392584517,2138,-0.40356445,-0.057678223,0.8915405
1601392584517,2139,-0.40478516,-0.05718994,0.8961792
1601392584518,2140,-0.40356445,-0.057678223,0.8915405
1601392584519,2141,-0.40356445,-0.057678223,0.8915405
1601392584520,2142,-0.4025879,-0.055725098,0.89398193
1601392584522,2143,-0.40161133,-0.055725098,0.8932495
1601392584523,2144,-0.40161133,-0.055725098,0.8932495
1601392584523,2145,-0.40356445,-0.057678223,0.8915405
1601392584523,2146,-0.40161133,-0.055725098,0.8932495
1601392584523,2147,-0.40625,-0.057678223,0.89178467
1601392584523,2148,-0.40356445,-0.057678223,0.8915405
1601392584529,2149,-0.40454102,-0.05645752,0.8937378
1601392584529,2150,-0.40454102,-0.05645752,0.8937378
1601392584530,2151,-0.40161133,-0.055725098,0.8932495
1601392584530,2152,-0.40454102,-0.05645752,0.8937378
1601392584531,2153,-0.40478516,-0.05718994,0.8961792
1601392584532,2154,-0.40454102,-0.05645752,0.8937378
1601392584532,2155,-0.40551758,-0.05645752,0.89178467
1601392584535,2156,-0.40161133,-0.055725098,0.8932495
1601392584543,2157,-0.40356445,-0.057678223,0.8915405
1601392584543,2158,-0.40551758,-0.05645752,0.89178467
1601392584544,2159,-0.40551758,-0.05645752,0.89178467
1601392584545,2160,-0.40600586,-0.05596924,0.8920288
1601392584545,2161,-0.40551758,-0.05645752,0.89178467
1601392584546,2162,-0.40454102,-0.05645752,0.8937378
1601392584547,2163,-0.40600586,-0.05596924,0.8920288
1601392584549,2164,-0.40600586,-0.05596924,0.8920288
1601392584551,2165,-0.39916992,-0.054748535,0.8956909
1601392584552,2166,-0.40600586,-0.05596924,0.8920288
1601392584554,2167,-0.39916992,-0.054748535,0.8956909
1601392584560,2168,-0.40161133,-0.055725098,0.8932495
1601392584560,2169,-0.40551758,-0.05645752,0.89178467
1601392584561,2170,-0.39916992,-0.054748535,0.8956909
1601392584561,2171,-0.40405273,-0.050109863,0.8942261
1601392584562,2172,-0.39916992,-0.054748535,0.8956909
1601392584563,2173,-0.40405273,-0.050109863,0.8942261
1601392584565,2174,-0.40454102,-0.05645752,0.8937378
1601392584566,2175,-0.40551758,-0.05645752,0.89178467
1601392584568,2176,-0.40600586,-0.05596924,0.8920288
1601392584574,2177,-0.40600586,-0.05596924,0.8920288
1601392584574,2178,-0.40405273,-0.051818848,0.89471436
1601392584575,2179,-0.40405273,-0.050109863,0.8942261
1601392584575,2180,-0.40405273,-0.050109863,0.8942261
1601392584576,2181,-0.40112305,-0.051574707,0.8966675
1601392584577,2182,-0.39916992,-0.054748535,0.8956909
1601392584582,2183,-0.39916992,-0.054748535,0.8956909
1601392584582,2184,-0.40405273,-0.051818848,0.89471436
1601392584583,2185,-0.40405273,-0.051818848,0.89471436
1601392584584,2186,-0.4033203,-0.054504395,0.89593506
1601392584584,2187,-0.40112305,-0.051574707,0.8966675
1601392584585,2188,-0.40405273,-0.050109863,0.8942261
1601392584586,2189,-0.40405273,-0.050109863,0.8942261
1601392584596,2190,-0.40112305,-0.051574707,0.8966675
1601392584596,2191,-0.4033203,-0.054504395,0.89593506
1601392584596,2192,-0.40405273,-0.051818848,0.89471436
1601392584597,2193,-0.4013672,-0.053527832,0.8956909
1601392584597,2194,-0.40405273,-0.051818848,0.89471436
1601392584597,2195,-0.40405273,-0.051818848,0.89471436
1601392584597,2196,-0.40112305,-0.051574707,0.8966675
1601392584597,2197,-0.4033203,-0.054504395,0.89593506
1601392584598,2198,-0.4013672,-0.053527832,0.8956909
1601392584598,2199,-0.40551758,-0.053771973,0.89227295
1601392584598,2200,-0.40112305,-0.051574707,0.8966675
1601392584598,2201,-0.4033203,-0.054504395,0.89593506
1601392584599,2202,-0.40112305,-0.051574707,0.8966675
1601392584599,2203,-0.40844727,-0.046936035,0.89349365
1601392584599,2204,-0.40551758,-0.053771973,0.89227295
1601392584599,2205,-0.4013672,-0.053527832,0.8956909
1601392584600,2206,-0.40844727,-0.046936035,0.89349365
1601392584600,2207,-0.40551758,-0.053771973,0.89227295
1601392584608,2208,-0.4033203,-0.054504395,0.89593506
1601392584608,2209,-0.390625,-0.050842285,0.8949585
1601392584609,2210,-0.4013672,-0.053527832,0.8956909
1601392584609,2211,-0.4033203,-0.054504395,0.89593506
1601392584610,2212,-0.390625,-0.050842285,0.8949585
1601392584611,2213,-0.40844727,-0.046936035,0.89349365
1601392584611,2214,-0.4013672,-0.053527832,0.8956909
1601392584611,2215,-0.4013672,-0.053527832,0.8956909
1601392584612,2216,-0.40551758,-0.053771973,0.89227295
1601392584612,2217,-0.39624023,-0.054504395,0.89837646
1601392584614,2218,-0.39624023,-0.054504395,0.89837646
1601392584618,2219,-0.41845703,-0.05621338,0.8878784
1601392584619,2220,-0.40844727,-0.046936035,0.89349365
1601392584626,2221,-0.390625,-0.050842285,0.8949585
1601392584627,2222,-0.40551758,-0.053771973,0.89227295
1601392584628,2223,-0.40551758,-0.053771973,0.89227295
1601392584629,2224,-0.40429688,-0.059387207,0.8890991
1601392584629,2225,-0.41845703,-0.05621338,0.8878784
1601392584631,2226,-0.390625,-0.050842285,0.8949585
1601392584632,2227,-0.40844727,-0.046936035,0.89349365
1601392584636,2228,-0.390625,-0.050842285,0.8949585
1601392584638,2229,-0.40429688,-0.059387207,0.8890991
1601392584638,2230,-0.40551758,-0.050354004,0.90008545
1601392584641,2231,-0.39624023,-0.054504395,0.89837646
1601392584654,2232,-0.39624023,-0.054504395,0.89837646
1601392584654,2233,-0.39624023,-0.054504395,0.89837646
1601392584654,2234,-0.41845703,-0.05621338,0.8878784
1601392584656,2235,-0.4038086,-0.058166504,0.8915405
1601392584656,2236,-0.40844727,-0.046936035,0.89349365
1601392584656,2237,-0.41845703,-0.05621338,0.8878784
1601392584657,2238,-0.41845703,-0.05621338,0.8878784
1601392584658,2239,-0.40551758,-0.050354004,0.90008545
1601392584659,2240,-0.40429688,-0.059387207,0.8890991
1601392584660,2241,-0.40551758,-0.050354004,0.90008545
1601392584660,2242,-0.40429688,-0.059387207,0.8890991
1601392584666,2243,-0.40429688,-0.059387207,0.8890991
1601392584668,2244,-0.390625,-0.050842285,0.8949585
1601392584668,2245,-0.4038086,-0.058166504,0.8915405
1601392584668,2246,-0.41381836,-0.058410645,0.8915405
1601392584669,2247,-0.4038086,-0.058166504,0.8915405
1601392584671,2248,-0.40551758,-0.050354004,0.90008545
1601392584673,2249,-0.39624023,-0.054504395,0.89837646
1601392584675,2250,-0.41845703,-0.05621338,0.8878784
1601392584686,2251,-0.40429688,-0.059387207,0.8890991
1601392584686,2252,-0.40600586,-0.061584473,0.89105225
1601392584688,2253,-0.40551758,-0.050354004,0.90008545
1601392584688,2254,-0.41381836,-0.058410645,0.8915405
1601392584689,2255,-0.41381836,-0.058410645,0.8915405
1601392584690,2256,-0.4038086,-0.058166504,0.8915405
1601392584691,2257,-0.40600586,-0.061584473,0.89105225
1601392584692,2258,-0.40478516,-0.059387207,0.89349365
1601392584692,2259,-0.4038086,-0.058166504,0.8915405
1601392584693,2260,-0.40478516,-0.059387207,0.89349365
1601392584694,2261,-0.41381836,-0.058410645,0.8915405
1601392584697,2262,-0.40600586,-0.061584473,0.89105225
1601392584699,2263,-0.40478516,-0.058654785,0.88934326
1601392584700,2264,-0.40478516,-0.058654785,0.88934326
1601392584702,2265,-0.40551758,-0.050354004,0.90008545
1601392584712,2266,-0.41381836,-0.058410645,0.8915405
1601392584712,2267,-0.40307617,-0.054260254,0.89471436
1601392584712,2268,-0.40600586,-0.061584473,0.89105225
