# Sensor position: Chest
# Sensor side: Left
# Activity type: Sitting bent forward
# Activity code: 4
# Subject id: s1746788
timestamp,seq,accel_x,accel_y,accel_z
1601387225074,0,-0.0925293,-0.99053955,0.26922607
1601387225090,1,-0.0925293,-0.99053955,0.26922607
1601387225091,2,-0.0925293,-0.99053955,0.26922607
1601387225092,3,-0.08935547,-0.99053955,0.26287842
1601387225093,4,-0.0925293,-0.99053955,0.26922607
1601387225094,5,-0.08935547,-0.99053955,0.26287842
1601387225095,6,-0.09350586,-0.99420166,0.26409912
1601387225096,7,-0.08935547,-0.99053955,0.26287842
1601387225096,8,-0.0925293,-0.99053955,0.26922607
1601387225097,9,-0.08935547,-0.99053955,0.26287842
1601387225098,10,-0.0925293,-0.99053955,0.26922607
1601387225098,11,-0.09350586,-0.99420166,0.26409912
1601387225100,12,-0.08935547,-0.99053955,0.26287842
1601387225100,13,-0.08886719,-0.99298096,0.2592163
1601387225101,14,-0.08935547,-0.99053955,0.26287842
1601387225102,15,-0.09350586,-0.99420166,0.26409912
1601387225103,16,-0.08886719,-0.99298096,0.2592163
1601387225103,17,-0.09350586,-0.99420166,0.26409912
1601387225109,18,-0.09350586,-0.99420166,0.26409912
1601387225110,19,-0.08886719,-0.99298096,0.2592163
1601387225110,20,-0.09033203,-0.99053955,0.2658081
1601387225111,21,-0.08886719,-0.99298096,0.2592163
1601387225111,22,-0.09033203,-0.99053955,0.2658081
1601387225111,23,-0.0925293,-0.99298096,0.2645874
1601387225119,24,-0.08886719,-0.99298096,0.2592163
1601387225119,25,-0.09350586,-0.99420166,0.26409912
1601387225119,26,-0.09033203,-0.99053955,0.2658081
1601387225120,27,-0.08886719,-0.99298096,0.2592163
1601387225122,28,-0.09033203,-0.99053955,0.2658081
1601387225122,29,-0.08886719,-0.98883057,0.2645874
1601387225125,30,-0.09033203,-0.99053955,0.2658081
1601387225141,31,-0.09033203,-0.99053955,0.2658081
1601387225141,32,-0.0925293,-0.99298096,0.2645874
1601387225141,33,-0.09399414,-0.99005127,0.2687378
1601387225142,34,-0.08886719,-0.98883057,0.2645874
1601387225143,35,-0.0925293,-0.99298096,0.2645874
1601387225143,36,-0.09350586,-0.99176025,0.2658081
1601387225144,37,-0.08886719,-0.98883057,0.2645874
1601387225145,38,-0.0925293,-0.99298096,0.2645874
1601387225146,39,-0.0925293,-0.99298096,0.2645874
1601387225147,40,-0.0925293,-0.99298096,0.2645874
1601387225147,41,-0.08886719,-0.98883057,0.2645874
1601387225148,42,-0.08886719,-0.98883057,0.2645874
1601387225149,43,-0.09301758,-0.991272,0.2645874
1601387225149,44,-0.08886719,-0.98883057,0.2645874
1601387225150,45,-0.09399414,-0.99005127,0.2687378
1601387225151,46,-0.09399414,-0.99005127,0.2687378
1601387225152,47,-0.09399414,-0.99005127,0.2687378
1601387225161,48,-0.09399414,-0.99005127,0.2687378
1601387225161,49,-0.09643555,-0.9932251,0.25946045
1601387225161,50,-0.09399414,-0.99005127,0.2687378
1601387225162,51,-0.09350586,-0.99176025,0.2658081
1601387225162,52,-0.09350586,-0.99176025,0.2658081
1601387225163,53,-0.09350586,-0.99176025,0.2658081
1601387225166,54,-0.09350586,-0.99176025,0.2658081
1601387225171,55,-0.09301758,-0.991272,0.2645874
1601387225172,56,-0.09301758,-0.991272,0.2645874
1601387225172,57,-0.09301758,-0.991272,0.2645874
1601387225173,58,-0.09301758,-0.991272,0.2645874
1601387225173,59,-0.09057617,-0.98931885,0.26483154
1601387225173,60,-0.09350586,-0.99176025,0.2658081
1601387225174,61,-0.09643555,-0.9932251,0.25946045
1601387225179,62,-0.09643555,-0.9932251,0.25946045
1601387225180,63,-0.09326172,-0.98931885,0.26898193
1601387225180,64,-0.09301758,-0.991272,0.2645874
1601387225181,65,-0.09643555,-0.9932251,0.25946045
1601387225182,66,-0.09643555,-0.9932251,0.25946045
1601387225188,67,-0.09057617,-0.98931885,0.26483154
1601387225190,68,-0.09057617,-0.98931885,0.26483154
1601387225190,69,-0.09057617,-0.98931885,0.26483154
1601387225191,70,-0.095458984,-0.9873657,0.26507568
1601387225192,71,-0.09643555,-0.9932251,0.25946045
1601387225192,72,-0.09057617,-0.98931885,0.26483154
1601387225196,73,-0.09326172,-0.98931885,0.26898193
1601387225196,74,-0.09326172,-0.98931885,0.26898193
1601387225200,75,-0.09057617,-0.98931885,0.26483154
1601387225202,76,-0.09692383,-0.9885864,0.2662964
1601387225212,77,-0.095458984,-0.9873657,0.26507568
1601387225213,78,-0.095458984,-0.9873657,0.26507568
1601387225213,79,-0.09326172,-0.98931885,0.26898193
1601387225214,80,-0.09326172,-0.98931885,0.26898193
1601387225214,81,-0.09667969,-0.9937134,0.26434326
1601387225215,82,-0.09326172,-0.98931885,0.26898193
1601387225215,83,-0.095458984,-0.9873657,0.26507568
1601387225215,84,-0.09692383,-0.9885864,0.2662964
1601387225215,85,-0.09692383,-0.9885864,0.2662964
1601387225215,86,-0.095458984,-0.9873657,0.26507568
1601387225215,87,-0.09716797,-0.99224854,0.26507568
1601387225216,88,-0.095458984,-0.9873657,0.26507568
1601387225230,89,-0.09667969,-0.9937134,0.26434326
1601387225230,90,-0.09667969,-0.9937134,0.26434326
1601387225230,91,-0.09692383,-0.9885864,0.2662964
1601387225230,92,-0.0949707,-0.9915161,0.26434326
1601387225230,93,-0.09716797,-0.99224854,0.26507568
1601387225230,94,-0.09692383,-0.9885864,0.2662964
1601387225232,95,-0.095703125,-0.9907837,0.2670288
1601387225232,96,-0.09716797,-0.99224854,0.26507568
1601387225232,97,-0.09692383,-0.9885864,0.2662964
1601387225232,98,-0.09667969,-0.9937134,0.26434326
1601387225233,99,-0.09667969,-0.9937134,0.26434326
1601387225233,100,-0.09716797,-0.99224854,0.26507568
1601387225233,101,-0.09716797,-0.99224854,0.26507568
1601387225233,102,-0.09667969,-0.9937134,0.26434326
1601387225233,103,-0.095214844,-0.9920044,0.26556396
1601387225241,104,-0.0949707,-0.9915161,0.26434326
1601387225242,105,-0.0949707,-0.9915161,0.26434326
1601387225255,106,-0.0949707,-0.9915161,0.26434326
1601387225255,107,-0.09716797,-0.99224854,0.26507568
1601387225255,108,-0.095703125,-0.9907837,0.2670288
1601387225255,109,-0.095214844,-0.9920044,0.26556396
1601387225256,110,-0.095703125,-0.9907837,0.2670288
1601387225256,111,-0.09716797,-0.9890747,0.26312256
1601387225256,112,-0.095214844,-0.9920044,0.26556396
1601387225256,113,-0.09716797,-0.9890747,0.26312256
1601387225256,114,-0.09716797,-0.9890747,0.26312256
1601387225257,115,-0.0949707,-0.9915161,0.26434326
1601387225257,116,-0.0949707,-0.9915161,0.26434326
1601387225259,117,-0.095703125,-0.9907837,0.2670288
1601387225260,118,-0.09472656,-0.9920044,0.26409912
1601387225267,119,-0.09472656,-0.9920044,0.26409912
1601387225268,120,-0.09472656,-0.9920044,0.26409912
1601387225268,121,-0.095703125,-0.9907837,0.2670288
1601387225268,122,-0.095214844,-0.9920044,0.26556396
1601387225268,123,-0.09277344,-0.99224854,0.26068115
1601387225268,124,-0.095703125,-0.9907837,0.2670288
1601387225269,125,-0.09301758,-0.9927368,0.25653076
1601387225269,126,-0.09277344,-0.99224854,0.26068115
1601387225269,127,-0.09277344,-0.99224854,0.26068115
1601387225269,128,-0.095214844,-0.9920044,0.26556396
1601387225269,129,-0.09716797,-0.9890747,0.26312256
1601387225271,130,-0.095214844,-0.9920044,0.26556396
1601387225279,131,-0.09301758,-0.9927368,0.25653076
1601387225279,132,-0.09301758,-0.9927368,0.25653076
1601387225280,133,-0.09716797,-0.9890747,0.26312256
1601387225280,134,-0.09472656,-0.9920044,0.26409912
1601387225280,135,-0.09472656,-0.9915161,0.26483154
1601387225280,136,-0.09716797,-0.9890747,0.26312256
1601387225281,137,-0.09033203,-0.9890747,0.26678467
1601387225281,138,-0.09472656,-0.9915161,0.26483154
1601387225281,139,-0.09472656,-0.9915161,0.26483154
1601387225281,140,-0.09033203,-0.9890747,0.26678467
1601387225281,141,-0.09033203,-0.9890747,0.26678467
1601387225290,142,-0.09472656,-0.9920044,0.26409912
1601387225290,143,-0.092041016,-0.991272,0.27508545
1601387225291,144,-0.09472656,-0.9920044,0.26409912
1601387225291,145,-0.09277344,-0.99224854,0.26068115
1601387225291,146,-0.092041016,-0.991272,0.27508545
1601387225291,147,-0.09277344,-0.99224854,0.26068115
1601387225291,148,-0.08935547,-0.9902954,0.27044678
1601387225291,149,-0.09277344,-0.99224854,0.26068115
1601387225291,150,-0.092041016,-0.991272,0.27508545
1601387225292,151,-0.08935547,-0.9902954,0.27044678
1601387225292,152,-0.08935547,-0.9902954,0.27044678
1601387225297,153,-0.09301758,-0.9927368,0.25653076
1601387225297,154,-0.09082031,-0.9885864,0.27044678
1601387225297,155,-0.09301758,-0.9927368,0.25653076
1601387225297,156,-0.09301758,-0.9927368,0.25653076
1601387225297,157,-0.09082031,-0.9885864,0.27044678
1601387225297,158,-0.09472656,-0.9915161,0.26483154
1601387225303,159,-0.09472656,-0.9915161,0.26483154
1601387225303,160,-0.091796875,-0.99005127,0.2658081
1601387225304,161,-0.09472656,-0.9915161,0.26483154
1601387225304,162,-0.091796875,-0.99005127,0.2658081
1601387225304,163,-0.09082031,-0.9885864,0.27044678
1601387225304,164,-0.09033203,-0.9890747,0.26678467
1601387225308,165,-0.09033203,-0.9890747,0.26678467
1601387225308,166,-0.091552734,-0.9902954,0.2687378
1601387225319,167,-0.091552734,-0.9902954,0.2687378
1601387225319,168,-0.091796875,-0.99005127,0.2658081
1601387225319,169,-0.092041016,-0.991272,0.27508545
1601387225319,170,-0.09033203,-0.9890747,0.26678467
1601387225319,171,-0.092041016,-0.991272,0.27508545
1601387225320,172,-0.09008789,-0.9932251,0.26287842
1601387225320,173,-0.092041016,-0.991272,0.27508545
1601387225321,174,-0.08935547,-0.9902954,0.27044678
1601387225321,175,-0.091552734,-0.9902954,0.2687378
1601387225321,176,-0.09082031,-0.9885864,0.27044678
1601387225331,177,-0.08935547,-0.9902954,0.27044678
1601387225331,178,-0.08935547,-0.9902954,0.27044678
1601387225332,179,-0.09082031,-0.9885864,0.27044678
1601387225332,180,-0.09008789,-0.9932251,0.26287842
1601387225332,181,-0.091796875,-0.99005127,0.2658081
1601387225333,182,-0.09008789,-0.9932251,0.26287842
1601387225333,183,-0.09082031,-0.9885864,0.27044678
1601387225334,184,-0.091796875,-0.99005127,0.2658081
1601387225338,185,-0.091552734,-0.9902954,0.2687378
1601387225342,186,-0.091552734,-0.9902954,0.2687378
1601387225342,187,-0.091796875,-0.99005127,0.2658081
1601387225342,188,-0.09008789,-0.9932251,0.26287842
1601387225343,189,-0.09008789,-0.9932251,0.26287842
1601387225343,190,-0.091552734,-0.9902954,0.2687378
1601387225348,191,-0.09008789,-0.9932251,0.26287842
1601387227676,192,-0.091796875,-0.9898071,0.2597046
1601387227676,193,-0.091796875,-0.9898071,0.2597046
1601387227676,194,-0.091796875,-0.9898071,0.2597046
1601387227677,195,-0.091796875,-0.9898071,0.2597046
1601387227678,196,-0.088134766,-0.99298096,0.2670288
1601387227680,197,-0.091796875,-0.9898071,0.2597046
1601387227690,198,-0.088134766,-0.99298096,0.2670288
1601387227691,199,-0.088134766,-0.99298096,0.2670288
1601387227691,200,-0.088134766,-0.99298096,0.2670288
1601387227692,201,-0.091308594,-0.9859009,0.26727295
1601387227693,202,-0.091796875,-0.9898071,0.2597046
1601387227694,203,-0.088134766,-0.99298096,0.2670288
1601387227695,204,-0.09399414,-0.99298096,0.26556396
1601387227696,205,-0.091308594,-0.9859009,0.26727295
1601387227696,206,-0.088134766,-0.99298096,0.2670288
1601387227698,207,-0.091308594,-0.9859009,0.26727295
1601387227707,208,-0.091308594,-0.9859009,0.26727295
1601387227708,209,-0.095458984,-1.0020142,0.27630615
1601387227708,210,-0.09399414,-0.99298096,0.26556396
1601387227709,211,-0.09399414,-0.99298096,0.26556396
1601387227710,212,-0.091308594,-0.9859009,0.26727295
1601387227711,213,-0.09399414,-0.99298096,0.26556396
1601387227712,214,-0.091308594,-0.9859009,0.26727295
1601387227713,215,-0.09741211,-0.98272705,0.276062
1601387227724,216,-0.095458984,-1.0020142,0.27630615
1601387227726,217,-0.095458984,-1.0020142,0.27630615
1601387227726,218,-0.095458984,-1.0020142,0.27630615
1601387227726,219,-0.09399414,-0.99298096,0.26556396
1601387227727,220,-0.09399414,-0.99298096,0.26556396
1601387227728,221,-0.09741211,-0.98272705,0.276062
1601387227729,222,-0.09741211,-0.98272705,0.276062
1601387227729,223,-0.10205078,-0.9924927,0.28948975
1601387227729,224,-0.10205078,-0.9924927,0.28948975
1601387227730,225,-0.10205078,-0.9924927,0.28948975
1601387227731,226,-0.095458984,-1.0020142,0.27630615
1601387227733,227,-0.095458984,-1.0020142,0.27630615
1601387227736,228,-0.09741211,-0.98272705,0.276062
1601387227740,229,-0.09741211,-0.98272705,0.276062
1601387227740,230,-0.11401367,-0.9968872,0.30316162
1601387227742,231,-0.09741211,-0.98272705,0.276062
1601387227745,232,-0.10205078,-0.9924927,0.28948975
1601387227746,233,-0.10205078,-0.9924927,0.28948975
1601387227752,234,-0.11401367,-0.9968872,0.30316162
1601387227752,235,-0.09399414,-0.97369385,0.25897217
1601387227752,236,-0.11401367,-0.9968872,0.30316162
1601387227759,237,-0.11401367,-0.9968872,0.30316162
1601387227760,238,-0.10205078,-0.9924927,0.28948975
1601387227761,239,-0.11401367,-0.9968872,0.30316162
1601387227762,240,-0.09399414,-0.97369385,0.25897217
1601387227763,241,-0.09399414,-0.97369385,0.25897217
1601387227764,242,-0.09399414,-0.97369385,0.25897217
1601387227765,243,-0.09399414,-0.97369385,0.25897217
1601387227773,244,-0.05810547,-1.0064087,0.18695068
1601387227773,245,-0.05810547,-1.0064087,0.18695068
1601387227774,246,-0.05810547,-1.0064087,0.18695068
1601387227775,247,-0.05810547,-1.0064087,0.18695068
1601387227776,248,-0.0637207,-1.0288696,0.15740967
1601387227777,249,-0.05810547,-1.0064087,0.18695068
1601387227779,250,-0.0637207,-1.0288696,0.15740967
1601387227782,251,-0.05517578,-1.0303345,0.12567139
1601387227784,252,-0.0637207,-1.0288696,0.15740967
1601387227787,253,-0.05517578,-1.0303345,0.12567139
1601387227788,254,-0.05517578,-1.0303345,0.12567139
1601387227788,255,-0.0637207,-1.0288696,0.15740967
1601387227796,256,-0.0637207,-1.0288696,0.15740967
1601387227797,257,-0.11401367,-0.9968872,0.30316162
1601387227798,258,-0.044189453,-1.0352173,0.078552246
1601387227799,259,-0.05517578,-1.0303345,0.12567139
1601387227800,260,-0.044189453,-1.0352173,0.078552246
1601387227801,261,-0.044189453,-1.0352173,0.078552246
1601387227801,262,-0.09399414,-0.97369385,0.25897217
1601387227802,263,-0.05517578,-1.0303345,0.12567139
1601387227810,264,-0.041015625,-1.0193481,0.034851074
1601387227811,265,-0.05810547,-1.0064087,0.18695068
1601387227812,266,-0.044189453,-1.0352173,0.078552246
1601387227812,267,-0.0637207,-1.0288696,0.15740967
1601387227813,268,-0.041015625,-1.0193481,0.034851074
1601387227814,269,-0.041015625,-1.0193481,0.034851074
1601387227815,270,-0.05517578,-1.0303345,0.12567139
1601387227815,271,-0.016601562,-1.0337524,-0.0064086914
1601387227816,272,-0.044189453,-1.0352173,0.078552246
1601387227817,273,-0.041015625,-1.0193481,0.034851074
1601387227822,274,-0.016601562,-1.0337524,-0.0064086914
1601387227823,275,-0.044189453,-1.0352173,0.078552246
1601387227824,276,-0.016601562,-1.0337524,-0.0064086914
1601387227825,277,-0.049804688,-1.0230103,-0.022277832
1601387227825,278,-0.049804688,-1.0230103,-0.022277832
1601387227826,279,-0.041015625,-1.0193481,0.034851074
1601387227827,280,-0.049804688,-1.0230103,-0.022277832
1601387227828,281,-0.041015625,-1.0193481,0.034851074
1601387227830,282,-0.016601562,-1.0337524,-0.0064086914
1601387227832,283,-0.022705078,-1.0374146,-0.06085205
1601387227833,284,-0.022705078,-1.0374146,-0.06085205
1601387227835,285,-0.049804688,-1.0230103,-0.022277832
1601387227843,286,-0.016601562,-1.0337524,-0.0064086914
1601387227844,287,-0.022705078,-1.0374146,-0.06085205
1601387227845,288,-0.016601562,-1.0337524,-0.0064086914
1601387227845,289,-0.011474609,-1.022522,-0.1026001
1601387227846,290,-0.022705078,-1.0374146,-0.06085205
1601387227848,291,-0.011474609,-1.022522,-0.1026001
1601387227850,292,-0.049804688,-1.0230103,-0.022277832
1601387227852,293,-0.022705078,-1.0374146,-0.06085205
1601387227853,294,-0.011474609,-1.022522,-0.1026001
1601387227888,295,-0.018798828,-1.0120239,-0.14752197
1601387227888,296,-0.018798828,-1.0120239,-0.14752197
1601387227889,297,-0.049804688,-1.0230103,-0.022277832
1601387227890,298,-0.011474609,-1.022522,-0.1026001
1601387227891,299,-0.018798828,-1.0120239,-0.14752197
1601387227891,300,-0.011474609,-1.022522,-0.1026001
1601387227892,301,-0.0087890625,-1.0393677,-0.15533447
1601387227894,302,-0.018798828,-1.0120239,-0.14752197
1601387227894,303,-0.0087890625,-1.0393677,-0.15533447
1601387227895,304,-0.0087890625,-1.0393677,-0.15533447
1601387227896,305,-0.0087890625,-1.0393677,-0.15533447
1601387227896,306,-0.018798828,-1.0120239,-0.14752197
1601387227897,307,-0.0234375,-1.0349731,-0.15093994
1601387227898,308,-0.0234375,-1.0349731,-0.15093994
1601387227901,309,-0.022705078,-1.0374146,-0.06085205
1601387227901,310,-0.0234375,-1.0349731,-0.15093994
1601387227901,311,-0.03564453,-1.0029907,-0.1716919
1601387227901,312,-0.0087890625,-1.0393677,-0.15533447
1601387227902,313,0.0063476562,-1.0701294,-0.21661377
1601387227902,314,-0.0234375,-1.0349731,-0.15093994
1601387227903,315,-0.03564453,-1.0029907,-0.1716919
1601387227904,316,-0.03564453,-1.0029907,-0.1716919
1601387227905,317,-0.011474609,-1.022522,-0.1026001
1601387227906,318,-0.03564453,-1.0029907,-0.1716919
1601387227907,319,-0.018798828,-1.0120239,-0.14752197
1601387227908,320,-0.0234375,-1.0349731,-0.15093994
1601387227908,321,0.0063476562,-1.0701294,-0.21661377
1601387227909,322,0.0073242188,-0.9553833,-0.27716064
1601387227910,323,0.0063476562,-1.0701294,-0.21661377
1601387227911,324,0.0073242188,-0.9553833,-0.27716064
1601387227912,325,-0.0087890625,-1.0393677,-0.15533447
1601387227912,326,0.0063476562,-1.0701294,-0.21661377
1601387227914,327,-0.03564453,-1.0029907,-0.1716919
1601387227915,328,0.0073242188,-0.9553833,-0.27716064
1601387227922,329,0.0,-0.97076416,-0.31036377
1601387227924,330,0.0,-0.97076416,-0.31036377
1601387227924,331,0.0073242188,-0.9553833,-0.27716064
1601387227925,332,0.0063476562,-1.0701294,-0.21661377
1601387227925,333,-0.0234375,-1.0349731,-0.15093994
1601387227926,334,0.0,-0.97076416,-0.31036377
1601387227928,335,-0.008300781,-0.991272,-0.33062744
1601387227930,336,-0.022460938,-1.0161743,-0.32452393
1601387227932,337,-0.016357422,-1.0261841,-0.34454346
1601387227934,338,-0.018554688,-0.98760986,-0.3340454
1601387227935,339,0.0073242188,-0.9553833,-0.27716064
1601387227941,340,-0.008300781,-0.991272,-0.33062744
1601387227941,341,0.0,-0.97076416,-0.31036377
1601387227941,342,-0.008300781,-0.991272,-0.33062744
1601387227942,343,0.0075683594,-0.9841919,-0.34332275
1601387227942,344,-0.008300781,-0.991272,-0.33062744
1601387227942,345,0.008544922,-0.9783325,-0.3447876
1601387227943,346,-0.022460938,-1.0161743,-0.32452393
1601387227945,347,0.0,-0.97076416,-0.31036377
1601387227946,348,-0.022460938,-1.0161743,-0.32452393
1601387227951,349,-0.022460938,-1.0161743,-0.32452393
1601387227951,350,-0.016357422,-1.0261841,-0.34454346
1601387227952,351,-0.03564453,-1.0029907,-0.1716919
1601387227952,352,-0.008300781,-0.991272,-0.33062744
1601387227952,353,0.046875,-0.958313,-0.37554932
1601387227952,354,0.0063476562,-1.0701294,-0.21661377
1601387227953,355,-0.016357422,-1.0261841,-0.34454346
1601387227964,356,-0.016357422,-1.0261841,-0.34454346
1601387227965,357,-0.022460938,-1.0161743,-0.32452393
1601387227966,358,-0.016357422,-1.0261841,-0.34454346
1601387227966,359,0.0073242188,-0.9553833,-0.27716064
1601387227967,360,-0.018554688,-0.98760986,-0.3340454
1601387227967,361,-0.018554688,-0.98760986,-0.3340454
1601387227968,362,-0.018554688,-0.98760986,-0.3340454
1601387227969,363,-0.018554688,-0.98760986,-0.3340454
1601387227971,364,0.0,-0.97076416,-0.31036377
1601387227972,365,-0.008300781,-0.991272,-0.33062744
1601387227983,366,0.0075683594,-0.9841919,-0.34332275
1601387227985,367,0.0075683594,-0.9841919,-0.34332275
1601387227985,368,0.0075683594,-0.9841919,-0.34332275
1601387227986,369,0.0075683594,-0.9841919,-0.34332275
1601387227987,370,-0.022460938,-1.0161743,-0.32452393
1601387227989,371,0.008544922,-0.9783325,-0.3447876
1601387227989,372,0.008544922,-0.9783325,-0.3447876
1601387227989,373,0.008544922,-0.9783325,-0.3447876
1601387227996,374,-0.016357422,-1.0261841,-0.34454346
1601387227996,375,0.008544922,-0.9783325,-0.3447876
1601387227996,376,0.046875,-0.958313,-0.37554932
1601387227997,377,0.046875,-0.958313,-0.37554932
1601387228001,378,0.046875,-0.958313,-0.37554932
1601387228001,379,0.046875,-0.958313,-0.37554932
1601387228004,380,-0.018554688,-0.98760986,-0.3340454
1601387228012,381,0.0075683594,-0.9841919,-0.34332275
1601387228014,382,0.008544922,-0.9783325,-0.3447876
1601387228016,383,0.046875,-0.958313,-0.37554932
1601387230270,384,0.0769043,-0.9812622,-0.35601807
1601387230281,385,0.0769043,-0.9812622,-0.35601807
1601387230281,386,0.0769043,-0.9812622,-0.35601807
1601387230282,387,0.04736328,-0.9819946,-0.3526001
1601387230282,388,0.0769043,-0.9812622,-0.35601807
1601387230284,389,0.0769043,-0.9812622,-0.35601807
1601387230284,390,0.03540039,-0.9690552,-0.34014893
1601387230285,391,0.04736328,-0.9819946,-0.3526001
1601387230286,392,0.04736328,-0.9819946,-0.3526001
1601387230287,393,0.0769043,-0.9812622,-0.35601807
1601387230288,394,0.03540039,-0.9690552,-0.34014893
1601387230308,395,0.04736328,-0.9819946,-0.3526001
1601387230308,396,0.033935547,-0.9854126,-0.33477783
1601387230309,397,0.03540039,-0.9690552,-0.34014893
1601387230310,398,0.04736328,-0.9819946,-0.3526001
1601387230312,399,0.04736328,-0.9819946,-0.3526001
1601387230312,400,0.033935547,-0.9854126,-0.33477783
1601387230312,401,0.03540039,-0.9690552,-0.34014893
1601387230313,402,0.03540039,-0.9690552,-0.34014893
1601387230314,403,0.03540039,-0.9690552,-0.34014893
1601387230315,404,0.033935547,-0.9854126,-0.33477783
1601387230315,405,0.052978516,-0.9859009,-0.33258057
1601387230316,406,0.052978516,-0.9859009,-0.33258057
1601387230316,407,0.111572266,-0.97247314,-0.37261963
1601387230317,408,0.033935547,-0.9854126,-0.33477783
1601387230318,409,0.033935547,-0.9854126,-0.33477783
1601387230319,410,0.033935547,-0.9854126,-0.33477783
1601387230319,411,0.052978516,-0.9859009,-0.33258057
1601387230320,412,0.111572266,-0.97247314,-0.37261963
1601387230323,413,0.0871582,-0.96881104,-0.3735962
1601387230325,414,0.052978516,-0.9859009,-0.33258057
1601387230328,415,0.111572266,-0.97247314,-0.37261963
1601387230329,416,0.111572266,-0.97247314,-0.37261963
1601387230335,417,0.06347656,-0.9607544,-0.35723877
1601387230336,418,0.052978516,-0.9859009,-0.33258057
1601387230337,419,0.0871582,-0.96881104,-0.3735962
1601387230338,420,0.052978516,-0.9859009,-0.33258057
1601387230339,421,0.0871582,-0.96881104,-0.3735962
1601387230339,422,0.0871582,-0.96881104,-0.3735962
1601387230351,423,0.07910156,-0.9846802,-0.3526001
1601387230351,424,0.111572266,-0.97247314,-0.37261963
1601387230353,425,0.06347656,-0.9607544,-0.35723877
1601387230353,426,0.111572266,-0.97247314,-0.37261963
1601387230355,427,0.06347656,-0.9607544,-0.35723877
1601387230355,428,0.07910156,-0.9846802,-0.3526001
1601387230357,429,0.06347656,-0.9607544,-0.35723877
1601387230357,430,0.07910156,-0.9846802,-0.3526001
1601387230359,431,0.0871582,-0.96881104,-0.3735962
1601387230360,432,0.0871582,-0.96881104,-0.3735962
1601387230362,433,0.0859375,-0.9866333,-0.35308838
1601387230362,434,0.0859375,-0.9866333,-0.35308838
1601387230381,435,0.07910156,-0.9846802,-0.3526001
1601387230381,436,0.0859375,-0.9866333,-0.35308838
1601387230381,437,0.06347656,-0.9607544,-0.35723877
1601387230383,438,0.068847656,-0.9685669,-0.3538208
1601387230383,439,0.07910156,-0.9846802,-0.3526001
1601387230384,440,0.087402344,-0.9651489,-0.3562622
1601387230384,441,0.0859375,-0.9866333,-0.35308838
1601387230386,442,0.0859375,-0.9866333,-0.35308838
1601387230386,443,0.068847656,-0.9685669,-0.3538208
1601387230387,444,0.068847656,-0.9685669,-0.3538208
1601387230388,445,0.06347656,-0.9607544,-0.35723877
1601387230389,446,0.068847656,-0.9685669,-0.3538208
1601387230389,447,0.07324219,-0.9783325,-0.35943604
1601387230390,448,0.087402344,-0.9651489,-0.3562622
1601387230392,449,0.09106445,-0.96588135,-0.35528564
1601387230392,450,0.07324219,-0.9783325,-0.35943604
1601387230392,451,0.07910156,-0.9846802,-0.3526001
1601387230393,452,0.087402344,-0.9651489,-0.3562622
1601387230397,453,0.09667969,-0.9651489,-0.3550415
1601387230402,454,0.087402344,-0.9651489,-0.3562622
1601387230403,455,0.0859375,-0.9866333,-0.35308838
1601387230404,456,0.09106445,-0.96588135,-0.35528564
1601387230404,457,0.07324219,-0.9783325,-0.35943604
1601387230405,458,0.068847656,-0.9685669,-0.3538208
1601387230405,459,0.09667969,-0.9651489,-0.3550415
1601387230412,460,0.068847656,-0.9685669,-0.3538208
1601387230412,461,0.103271484,-0.97540283,-0.36773682
1601387230413,462,0.087402344,-0.9651489,-0.3562622
1601387230414,463,0.09106445,-0.96588135,-0.35528564
1601387230415,464,0.103271484,-0.97540283,-0.36773682
1601387230415,465,0.07324219,-0.9783325,-0.35943604
1601387230418,466,0.10668945,-0.97857666,-0.37017822
1601387230423,467,0.10668945,-0.97857666,-0.37017822
1601387230424,468,0.09106445,-0.96588135,-0.35528564
1601387230424,469,0.09667969,-0.9651489,-0.3550415
1601387230425,470,0.07324219,-0.9783325,-0.35943604
1601387230426,471,0.087402344,-0.9651489,-0.3562622
1601387230426,472,0.09106445,-0.96588135,-0.35528564
1601387230429,473,0.08300781,-0.95684814,-0.35357666
1601387230434,474,0.09667969,-0.9651489,-0.3550415
1601387230435,475,0.103271484,-0.97540283,-0.36773682
1601387230436,476,0.09667969,-0.9651489,-0.3550415
1601387230436,477,0.103271484,-0.97540283,-0.36773682
1601387230437,478,0.08300781,-0.95684814,-0.35357666
1601387230438,479,0.09399414,-0.9451294,-0.35455322
1601387230440,480,0.07324219,-0.9783325,-0.35943604
1601387230453,481,0.10668945,-0.97857666,-0.37017822
1601387230454,482,0.103271484,-0.97540283,-0.36773682
1601387230455,483,0.114990234,-0.9873657,-0.3670044
1601387230456,484,0.09399414,-0.9451294,-0.35455322
1601387230457,485,0.10668945,-0.97857666,-0.37017822
1601387230458,486,0.09106445,-0.96588135,-0.35528564
1601387230458,487,0.11254883,-0.97662354,-0.3501587
1601387230459,488,0.09667969,-0.9651489,-0.3550415
1601387230460,489,0.10668945,-0.97857666,-0.37017822
1601387230460,490,0.08300781,-0.95684814,-0.35357666
1601387230461,491,0.08300781,-0.95684814,-0.35357666
1601387230462,492,0.09399414,-0.9451294,-0.35455322
1601387230463,493,0.114990234,-0.9873657,-0.3670044
1601387230463,494,0.114990234,-0.9873657,-0.3670044
1601387230463,495,0.103271484,-0.97540283,-0.36773682
1601387230464,496,0.08300781,-0.95684814,-0.35357666
1601387230470,497,0.111328125,-0.9614868,-0.34918213
1601387230471,498,0.09399414,-0.9451294,-0.35455322
1601387230471,499,0.11254883,-0.97662354,-0.3501587
1601387230471,500,0.111328125,-0.9614868,-0.34918213
1601387230471,501,0.12133789,-0.9573364,-0.36187744
1601387230472,502,0.12133789,-0.9573364,-0.36187744
1601387230477,503,0.114990234,-0.9873657,-0.3670044
1601387230478,504,0.10668945,-0.97857666,-0.37017822
1601387230478,505,0.11254883,-0.97662354,-0.3501587
1601387230479,506,0.09399414,-0.9451294,-0.35455322
1601387230479,507,0.111328125,-0.9614868,-0.34918213
1601387230480,508,0.11401367,-0.96173096,-0.35894775
1601387230496,509,0.11254883,-0.97662354,-0.3501587
1601387230496,510,0.08300781,-0.95684814,-0.35357666
1601387230497,511,0.114990234,-0.9873657,-0.3670044
1601387230498,512,0.11401367,-0.96173096,-0.35894775
1601387230498,513,0.12133789,-0.9573364,-0.36187744
1601387230499,514,0.09790039,-0.96539307,-0.37091064
1601387230501,515,0.09399414,-0.9451294,-0.35455322
1601387230501,516,0.114990234,-0.9873657,-0.3670044
1601387230501,517,0.11254883,-0.97662354,-0.3501587
1601387230501,518,0.111328125,-0.9614868,-0.34918213
1601387230502,519,0.09790039,-0.96539307,-0.37091064
1601387230503,520,0.11206055,-0.9727173,-0.35968018
1601387230503,521,0.11401367,-0.96173096,-0.35894775
1601387230504,522,0.12133789,-0.9573364,-0.36187744
1601387230504,523,0.11206055,-0.9727173,-0.35968018
1601387230506,524,0.11254883,-0.97662354,-0.3501587
1601387230508,525,0.107177734,-0.96588135,-0.3567505
1601387230509,526,0.11035156,-0.9673462,-0.35968018
1601387230513,527,0.103759766,-0.9649048,-0.3694458
1601387230513,528,0.111328125,-0.9614868,-0.34918213
1601387230520,529,0.11401367,-0.96173096,-0.35894775
1601387230521,530,0.111328125,-0.9614868,-0.34918213
1601387230521,531,0.107177734,-0.96588135,-0.3567505
1601387230522,532,0.10229492,-0.9614868,-0.36968994
1601387230523,533,0.11035156,-0.9673462,-0.35968018
1601387230524,534,0.09790039,-0.96539307,-0.37091064
1601387230524,535,0.09643555,-0.97198486,-0.36114502
1601387230526,536,0.12133789,-0.9573364,-0.36187744
1601387230528,537,0.11401367,-0.96173096,-0.35894775
1601387230533,538,0.11206055,-0.9727173,-0.35968018
1601387230534,539,0.09790039,-0.97125244,-0.3604126
1601387230535,540,0.12133789,-0.9573364,-0.36187744
1601387230535,541,0.09790039,-0.96539307,-0.37091064
1601387230536,542,0.103759766,-0.9649048,-0.3694458
1601387230537,543,0.09790039,-0.96539307,-0.37091064
1601387230539,544,0.107177734,-0.96588135,-0.3567505
1601387230540,545,0.11035156,-0.9673462,-0.35968018
1601387230542,546,0.103759766,-0.9649048,-0.3694458
1601387230543,547,0.10229492,-0.9614868,-0.36968994
1601387230546,548,0.09643555,-0.97198486,-0.36114502
1601387230551,549,0.11206055,-0.9727173,-0.35968018
1601387230551,550,0.11401367,-0.96173096,-0.35894775
1601387230552,551,0.11206055,-0.9727173,-0.35968018
1601387230552,552,0.10229492,-0.9614868,-0.36968994
1601387230552,553,0.09790039,-0.97125244,-0.3604126
1601387230557,554,0.107177734,-0.96588135,-0.3567505
1601387230557,555,0.09790039,-0.96539307,-0.37091064
1601387230557,556,0.107177734,-0.96588135,-0.3567505
1601387230558,557,0.11206055,-0.9727173,-0.35968018
1601387230559,558,0.11035156,-0.9673462,-0.35968018
1601387230564,559,0.11035156,-0.9673462,-0.35968018
1601387230565,560,0.107177734,-0.96588135,-0.3567505
1601387230566,561,0.09643555,-0.97198486,-0.36114502
1601387230566,562,0.103759766,-0.9649048,-0.3694458
1601387230568,563,0.103759766,-0.9649048,-0.3694458
1601387230574,564,0.10229492,-0.9614868,-0.36968994
1601387230574,565,0.09790039,-0.97125244,-0.3604126
1601387230575,566,0.11035156,-0.9673462,-0.35968018
1601387230576,567,0.10229492,-0.9614868,-0.36968994
1601387230579,568,0.09643555,-0.97198486,-0.36114502
1601387230581,569,0.103759766,-0.9649048,-0.3694458
1601387230587,570,0.10229492,-0.9614868,-0.36968994
1601387230587,571,0.09790039,-0.97125244,-0.3604126
1601387230587,572,0.09643555,-0.97198486,-0.36114502
1601387230588,573,0.09643555,-0.97198486,-0.36114502
1601387230591,574,0.09790039,-0.97125244,-0.3604126
1601387230592,575,0.09790039,-0.97125244,-0.3604126
1601387232874,576,0.095458984,-0.97247314,-0.35772705
1601387232875,577,0.095458984,-0.97247314,-0.35772705
1601387232876,578,0.095458984,-0.97247314,-0.35772705
1601387232877,579,0.095458984,-0.97247314,-0.35772705
1601387232881,580,0.095458984,-0.97247314,-0.35772705
1601387232881,581,0.08178711,-0.9729614,-0.3567505
1601387232883,582,0.095458984,-0.97247314,-0.35772705
1601387232891,583,0.08178711,-0.9729614,-0.3567505
1601387232892,584,0.08178711,-0.9729614,-0.3567505
1601387232893,585,0.08178711,-0.9729614,-0.3567505
1601387232894,586,0.08178711,-0.9729614,-0.3567505
1601387232894,587,0.09716797,-0.9585571,-0.36676025
1601387232895,588,0.08178711,-0.9729614,-0.3567505
1601387232896,589,0.09716797,-0.9585571,-0.36676025
1601387232896,590,0.09716797,-0.9585571,-0.36676025
1601387232898,591,0.09716797,-0.9585571,-0.36676025
1601387232900,592,0.09716797,-0.9585571,-0.36676025
1601387232902,593,0.095214844,-0.96099854,-0.3633423
1601387232904,594,0.09692383,-0.98223877,-0.34991455
1601387232906,595,0.09716797,-0.9585571,-0.36676025
1601387232918,596,0.095214844,-0.96099854,-0.3633423
1601387232919,597,0.095214844,-0.96099854,-0.3633423
1601387232920,598,0.095214844,-0.96099854,-0.3633423
1601387232920,599,0.09692383,-0.98223877,-0.34991455
1601387232921,600,0.095214844,-0.96099854,-0.3633423
1601387232922,601,0.095214844,-0.96099854,-0.3633423
1601387232923,602,0.09692383,-0.98223877,-0.34991455
1601387232924,603,0.091308594,-0.9644165,-0.36309814
1601387232924,604,0.09692383,-0.98223877,-0.34991455
1601387232925,605,0.09692383,-0.98223877,-0.34991455
1601387232928,606,0.091308594,-0.9644165,-0.36309814
1601387232928,607,0.091308594,-0.9644165,-0.36309814
1601387232935,608,0.091308594,-0.9644165,-0.36309814
1601387232936,609,0.091552734,-0.97979736,-0.35968018
1601387232937,610,0.091308594,-0.9644165,-0.36309814
1601387232937,611,0.08666992,-0.9673462,-0.3555298
1601387232938,612,0.091552734,-0.97979736,-0.35968018
1601387232939,613,0.091552734,-0.97979736,-0.35968018
1601387232943,614,0.09692383,-0.98223877,-0.34991455
1601387232953,615,0.083740234,-0.96710205,-0.3640747
1601387232953,616,0.091552734,-0.97979736,-0.35968018
1601387232954,617,0.08886719,-0.96759033,-0.36309814
1601387232955,618,0.08666992,-0.9673462,-0.3555298
1601387232956,619,0.091552734,-0.97979736,-0.35968018
1601387232956,620,0.083740234,-0.96710205,-0.3640747
1601387232957,621,0.08666992,-0.9673462,-0.3555298
1601387232958,622,0.08666992,-0.9673462,-0.3555298
1601387232959,623,0.08666992,-0.9673462,-0.3555298
1601387232960,624,0.08544922,-0.97125244,-0.36090088
1601387232960,625,0.091308594,-0.9644165,-0.36309814
1601387232961,626,0.08886719,-0.96759033,-0.36309814
1601387232963,627,0.083740234,-0.96710205,-0.3640747
1601387232968,628,0.08886719,-0.96759033,-0.36309814
1601387232968,629,0.091552734,-0.97979736,-0.35968018
1601387232968,630,0.08544922,-0.97125244,-0.36090088
1601387232969,631,0.087890625,-0.9710083,-0.36114502
1601387232969,632,0.083740234,-0.96710205,-0.3640747
1601387232969,633,0.083740234,-0.96710205,-0.3640747
1601387232971,634,0.08544922,-0.97125244,-0.36090088
1601387232973,635,0.08886719,-0.96759033,-0.36309814
1601387232975,636,0.08886719,-0.96759033,-0.36309814
1601387232976,637,0.087890625,-0.9710083,-0.36114502
1601387232981,638,0.08984375,-0.96832275,-0.36309814
1601387232981,639,0.08544922,-0.97125244,-0.36090088
1601387232981,640,0.08666992,-0.9673462,-0.3555298
1601387232981,641,0.08544922,-0.97125244,-0.36090088
1601387232982,642,0.087890625,-0.9710083,-0.36114502
1601387232982,643,0.08984375,-0.96832275,-0.36309814
1601387232989,644,0.08935547,-0.96881104,-0.36236572
1601387232989,645,0.087890625,-0.9710083,-0.36114502
1601387232989,646,0.083740234,-0.96710205,-0.3640747
1601387232991,647,0.087890625,-0.9710083,-0.36114502
1601387232991,648,0.08984375,-0.96832275,-0.36309814
1601387232992,649,0.08935547,-0.96881104,-0.36236572
1601387233000,650,0.08935547,-0.9656372,-0.37017822
1601387233000,651,0.08984375,-0.96832275,-0.36309814
1601387233000,652,0.08886719,-0.96759033,-0.36309814
1601387233001,653,0.08984375,-0.96832275,-0.36309814
1601387233001,654,0.08935547,-0.9656372,-0.37017822
1601387233001,655,0.08935547,-0.96881104,-0.36236572
1601387233014,656,0.08544922,-0.97125244,-0.36090088
1601387233015,657,0.08935547,-0.96881104,-0.36236572
1601387233016,658,0.09033203,-0.9746704,-0.35650635
1601387233016,659,0.08935547,-0.96881104,-0.36236572
1601387233017,660,0.09033203,-0.9746704,-0.35650635
1601387233018,661,0.08935547,-0.9656372,-0.37017822
1601387233019,662,0.08935547,-0.9656372,-0.37017822
1601387233019,663,0.09033203,-0.9746704,-0.35650635
1601387233021,664,0.087890625,-0.9710083,-0.36114502
1601387233021,665,0.09033203,-0.9612427,-0.37335205
1601387233025,666,0.09033203,-0.9612427,-0.37335205
1601387233026,667,0.08935547,-0.9656372,-0.37017822
1601387233033,668,0.09033203,-0.9746704,-0.35650635
1601387233034,669,0.09106445,-0.96099854,-0.37213135
1601387233035,670,0.08984375,-0.96832275,-0.36309814
1601387233035,671,0.0925293,-0.96221924,-0.37213135
1601387233036,672,0.08935547,-0.96881104,-0.36236572
1601387233037,673,0.09033203,-0.9746704,-0.35650635
1601387233038,674,0.09033203,-0.9612427,-0.37335205
1601387233041,675,0.09033203,-0.9612427,-0.37335205
1601387233042,676,0.08935547,-0.9656372,-0.37017822
1601387233044,677,0.09033203,-0.9612427,-0.37335205
1601387233054,678,0.09106445,-0.96099854,-0.37213135
1601387233054,679,0.09106445,-0.96099854,-0.37213135
1601387233056,680,0.092285156,-0.9663696,-0.37335205
1601387233056,681,0.0925293,-0.96221924,-0.37213135
1601387233057,682,0.09106445,-0.96099854,-0.37213135
1601387233058,683,0.09106445,-0.96099854,-0.37213135
1601387233060,684,0.09033203,-0.9746704,-0.35650635
1601387233060,685,0.092285156,-0.9663696,-0.37335205
1601387233064,686,0.072753906,-0.9763794,-0.36187744
1601387233065,687,0.0925293,-0.96221924,-0.37213135
1601387233066,688,0.072753906,-0.9763794,-0.36187744
1601387233074,689,0.09033203,-0.9612427,-0.37335205
1601387233074,690,0.0925293,-0.96221924,-0.37213135
1601387233074,691,0.08520508,-0.958313,-0.36724854
1601387233074,692,0.0925293,-0.96221924,-0.37213135
1601387233075,693,0.092285156,-0.9663696,-0.37335205
1601387233075,694,0.08520508,-0.958313,-0.36724854
1601387233078,695,0.08129883,-0.9717407,-0.3706665
1601387233078,696,0.092285156,-0.9663696,-0.37335205
1601387233090,697,0.092285156,-0.9663696,-0.37335205
1601387233091,698,0.072753906,-0.9763794,-0.36187744
1601387233091,699,0.08129883,-0.9717407,-0.3706665
1601387233091,700,0.07299805,-0.96881104,-0.37261963
1601387233092,701,0.09106445,-0.96099854,-0.37213135
1601387233092,702,0.076171875,-0.96588135,-0.37335205
1601387233092,703,0.0925293,-0.96221924,-0.37213135
1601387233093,704,0.072753906,-0.9763794,-0.36187744
1601387233093,705,0.072753906,-0.9763794,-0.36187744
1601387233093,706,0.07299805,-0.96881104,-0.37261963
1601387233094,707,0.08520508,-0.958313,-0.36724854
1601387233102,708,0.080566406,-0.9649048,-0.3789673
1601387233104,709,0.08520508,-0.958313,-0.36724854
1601387233104,710,0.08520508,-0.958313,-0.36724854
1601387233105,711,0.076171875,-0.96588135,-0.37335205
1601387233106,712,0.08129883,-0.9717407,-0.3706665
1601387233106,713,0.08129883,-0.9717407,-0.3706665
1601387233108,714,0.08129883,-0.9717407,-0.3706665
1601387233108,715,0.07739258,-0.9685669,-0.37017822
1601387233110,716,0.080566406,-0.9649048,-0.3789673
1601387233118,717,0.07739258,-0.9685669,-0.37017822
1601387233119,718,0.07299805,-0.96881104,-0.37261963
1601387233120,719,0.07299805,-0.96881104,-0.37261963
1601387233122,720,0.07739258,-0.9649048,-0.3633423
1601387233124,721,0.07299805,-0.96881104,-0.37261963
1601387233124,722,0.08251953,-0.97198486,-0.36749268
1601387233134,723,0.07739258,-0.9649048,-0.3633423
1601387233134,724,0.092285156,-0.9663696,-0.37335205
1601387233134,725,0.076171875,-0.96588135,-0.37335205
1601387233135,726,0.072753906,-0.9763794,-0.36187744
1601387233135,727,0.080566406,-0.9649048,-0.3789673
1601387233136,728,0.08520508,-0.958313,-0.36724854
1601387233136,729,0.07739258,-0.9685669,-0.37017822
1601387233149,730,0.076171875,-0.96588135,-0.37335205
1601387233149,731,0.076171875,-0.96588135,-0.37335205
1601387233150,732,0.080566406,-0.97003174,-0.36260986
1601387233151,733,0.08129883,-0.9717407,-0.3706665
1601387233151,734,0.08251953,-0.97198486,-0.36749268
1601387233153,735,0.07739258,-0.9649048,-0.3633423
1601387233159,736,0.080566406,-0.97003174,-0.36260986
1601387233159,737,0.08251953,-0.97198486,-0.36749268
1601387233161,738,0.083496094,-0.96832275,-0.36602783
1601387233167,739,0.080078125,-0.9673462,-0.36920166
1601387233167,740,0.080566406,-0.9649048,-0.3789673
1601387233167,741,0.080566406,-0.97003174,-0.36260986
1601387233168,742,0.080566406,-0.9649048,-0.3789673
1601387233168,743,0.07299805,-0.96881104,-0.37261963
1601387233169,744,0.07739258,-0.9685669,-0.37017822
1601387233181,745,0.076171875,-0.96588135,-0.37335205
1601387233182,746,0.083496094,-0.96832275,-0.36602783
1601387233183,747,0.083496094,-0.96832275,-0.36602783
1601387233183,748,0.080078125,-0.9673462,-0.36920166
1601387233184,749,0.07739258,-0.9685669,-0.37017822
1601387233185,750,0.07739258,-0.9649048,-0.3633423
1601387233185,751,0.080566406,-0.9649048,-0.3789673
1601387233186,752,0.07739258,-0.9649048,-0.3633423
1601387233187,753,0.07739258,-0.9685669,-0.37017822
1601387233187,754,0.08251953,-0.97198486,-0.36749268
1601387233188,755,0.07739258,-0.9649048,-0.3633423
1601387233189,756,0.08251953,-0.97198486,-0.36749268
1601387233189,757,0.08251953,-0.97198486,-0.36749268
1601387233189,758,0.080566406,-0.97003174,-0.36260986
1601387233191,759,0.080566406,-0.97003174,-0.36260986
1601387233201,760,0.083496094,-0.96832275,-0.36602783
1601387233203,761,0.080078125,-0.9673462,-0.36920166
1601387233204,762,0.083496094,-0.96832275,-0.36602783
1601387233204,763,0.080078125,-0.9673462,-0.36920166
1601387233206,764,0.080566406,-0.97003174,-0.36260986
1601387233206,765,0.080078125,-0.9673462,-0.36920166
1601387233207,766,0.083496094,-0.96832275,-0.36602783
1601387233212,767,0.080078125,-0.9673462,-0.36920166
1601387235373,768,0.088378906,-0.9673462,-0.364563
1601387235373,769,0.088378906,-0.9673462,-0.364563
1601387235373,770,0.088378906,-0.9673462,-0.364563
1601387235374,771,0.088378906,-0.9673462,-0.364563
1601387235382,772,0.088378906,-0.9673462,-0.364563
1601387235382,773,0.08569336,-0.9727173,-0.36676025
1601387235383,774,0.088378906,-0.9673462,-0.364563
1601387235383,775,0.08569336,-0.9727173,-0.36676025
1601387235386,776,0.08569336,-0.9727173,-0.36676025
1601387235387,777,0.08569336,-0.9727173,-0.36676025
1601387235387,778,0.08569336,-0.9727173,-0.36676025
1601387235389,779,0.08569336,-0.96832275,-0.36749268
1601387235391,780,0.08569336,-0.9727173,-0.36676025
1601387235393,781,0.08569336,-0.96832275,-0.36749268
1601387235395,782,0.08496094,-0.96881104,-0.36505127
1601387235397,783,0.08569336,-0.96832275,-0.36749268
1601387235400,784,0.08496094,-0.96881104,-0.36505127
1601387235402,785,0.08496094,-0.9661255,-0.36871338
1601387235405,786,0.08227539,-0.9692993,-0.364563
1601387235406,787,0.08618164,-0.96710205,-0.36968994
1601387235423,788,0.08496094,-0.9661255,-0.36871338
1601387235424,789,0.08569336,-0.96832275,-0.36749268
1601387235424,790,0.08569336,-0.96832275,-0.36749268
1601387235425,791,0.08569336,-0.96832275,-0.36749268
1601387235426,792,0.08496094,-0.96881104,-0.36505127
1601387235427,793,0.08569336,-0.97003174,-0.36895752
1601387235428,794,0.08496094,-0.96881104,-0.36505127
1601387235429,795,0.08520508,-0.9639282,-0.37017822
1601387235429,796,0.08496094,-0.96881104,-0.36505127
1601387235430,797,0.08496094,-0.9661255,-0.36871338
1601387235431,798,0.08496094,-0.9661255,-0.36871338
1601387235432,799,0.08227539,-0.9692993,-0.364563
1601387235433,800,0.08496094,-0.96881104,-0.36505127
1601387235434,801,0.08227539,-0.9692993,-0.364563
1601387235437,802,0.08496094,-0.9661255,-0.36871338
1601387235445,803,0.08227539,-0.9692993,-0.364563
1601387235445,804,0.083984375,-0.9685669,-0.37042236
1601387235447,805,0.08496094,-0.9661255,-0.36871338
1601387235448,806,0.08618164,-0.96710205,-0.36968994
1601387235449,807,0.08227539,-0.9692993,-0.364563
1601387235449,808,0.08618164,-0.96710205,-0.36968994
1601387235450,809,0.08618164,-0.96710205,-0.36968994
1601387235457,810,0.083740234,-0.9656372,-0.36993408
1601387235458,811,0.08642578,-0.96759033,-0.36602783
1601387235459,812,0.08618164,-0.96710205,-0.36968994
1601387235460,813,0.08569336,-0.97003174,-0.36895752
1601387235461,814,0.08569336,-0.97003174,-0.36895752
1601387235462,815,0.08227539,-0.9692993,-0.364563
1601387235464,816,0.08569336,-0.97003174,-0.36895752
1601387235467,817,0.08520508,-0.9639282,-0.37017822
1601387235473,818,0.083984375,-0.9685669,-0.37042236
1601387235474,819,0.08618164,-0.96710205,-0.36968994
1601387235474,820,0.08520508,-0.96832275,-0.37017822
1601387235474,821,0.08520508,-0.9639282,-0.37017822
1601387235475,822,0.08520508,-0.9639282,-0.37017822
1601387235475,823,0.08569336,-0.97003174,-0.36895752
1601387235483,824,0.083740234,-0.9656372,-0.36993408
1601387235483,825,0.08569336,-0.97003174,-0.36895752
1601387235483,826,0.0847168,-0.9692993,-0.37017822
1601387235483,827,0.083984375,-0.9685669,-0.37042236
1601387235484,828,0.08520508,-0.9639282,-0.37017822
1601387235484,829,0.083984375,-0.9685669,-0.37042236
1601387235503,830,0.08642578,-0.96759033,-0.36602783
1601387235504,831,0.08520508,-0.9639282,-0.37017822
1601387235504,832,0.08886719,-0.96710205,-0.36846924
1601387235505,833,0.083984375,-0.9685669,-0.37042236
1601387235505,834,0.083740234,-0.9656372,-0.36993408
1601387235505,835,0.083740234,-0.9656372,-0.36993408
1601387235506,836,0.08642578,-0.96759033,-0.36602783
1601387235506,837,0.08642578,-0.96759033,-0.36602783
1601387235506,838,0.083984375,-0.9685669,-0.37042236
1601387235506,839,0.08227539,-0.9717407,-0.36724854
1601387235507,840,0.083740234,-0.9656372,-0.36993408
1601387235507,841,0.08642578,-0.96759033,-0.36602783
1601387235508,842,0.08520508,-0.96832275,-0.37017822
1601387235508,843,0.08520508,-0.96832275,-0.37017822
1601387235508,844,0.0847168,-0.9692993,-0.37017822
1601387235508,845,0.083740234,-0.9656372,-0.36993408
1601387235509,846,0.08544922,-0.96661377,-0.36749268
1601387235509,847,0.08642578,-0.96759033,-0.36602783
1601387235510,848,0.08520508,-0.96832275,-0.37017822
1601387235519,849,0.08520508,-0.96832275,-0.37017822
1601387235520,850,0.08886719,-0.96710205,-0.36846924
1601387235521,851,0.083984375,-0.9697876,-0.37139893
1601387235521,852,0.08520508,-0.96832275,-0.37017822
1601387235521,853,0.0847168,-0.9692993,-0.37017822
1601387235522,854,0.08227539,-0.9717407,-0.36724854
1601387235524,855,0.0847168,-0.9692993,-0.37017822
1601387235524,856,0.0847168,-0.9692993,-0.37017822
1601387235526,857,0.08886719,-0.96710205,-0.36846924
1601387235535,858,0.0847168,-0.9692993,-0.37017822
1601387235535,859,0.08544922,-0.96661377,-0.36749268
1601387235536,860,0.08886719,-0.96710205,-0.36846924
1601387235537,861,0.08886719,-0.96710205,-0.36846924
1601387235538,862,0.08227539,-0.9717407,-0.36724854
1601387235538,863,0.08227539,-0.9717407,-0.36724854
1601387235538,864,0.08227539,-0.9717407,-0.36724854
1601387235539,865,0.08886719,-0.96710205,-0.36846924
1601387235540,866,0.083984375,-0.9697876,-0.37139893
1601387235540,867,0.0859375,-0.96661377,-0.3682251
1601387235541,868,0.08544922,-0.96661377,-0.36749268
1601387235543,869,0.08544922,-0.96661377,-0.36749268
1601387235546,870,0.08227539,-0.9717407,-0.36724854
1601387235552,871,0.083984375,-0.96881104,-0.3711548
1601387235553,872,0.083984375,-0.9697876,-0.37139893
1601387235553,873,0.08544922,-0.96661377,-0.36749268
1601387235553,874,0.083984375,-0.9697876,-0.37139893
1601387235554,875,0.0859375,-0.96661377,-0.3682251
1601387235554,876,0.0859375,-0.96661377,-0.3682251
1601387235556,877,0.0859375,-0.96661377,-0.3682251
1601387235557,878,0.08569336,-0.9636841,-0.37701416
1601387235561,879,0.08544922,-0.96661377,-0.36749268
1601387235561,880,0.083984375,-0.96881104,-0.3711548
1601387235562,881,0.083984375,-0.9697876,-0.37139893
1601387235562,882,0.083984375,-0.9697876,-0.37139893
1601387235568,883,0.0871582,-0.96343994,-0.37823486
1601387235569,884,0.083984375,-0.96881104,-0.3711548
1601387235570,885,0.08569336,-0.9636841,-0.37701416
1601387235570,886,0.083984375,-0.96881104,-0.3711548
1601387235571,887,0.0859375,-0.96661377,-0.3682251
1601387235572,888,0.0859375,-0.96661377,-0.3682251
1601387235574,889,0.0871582,-0.96343994,-0.37823486
1601387235576,890,0.08569336,-0.9636841,-0.37701416
1601387235581,891,0.083984375,-0.96881104,-0.3711548
1601387235582,892,0.083984375,-0.96881104,-0.3711548
1601387235582,893,0.08569336,-0.9636841,-0.37701416
1601387235586,894,0.08154297,-0.9624634,-0.378479
1601387235595,895,0.08154297,-0.9624634,-0.378479
1601387235596,896,0.08569336,-0.9636841,-0.37701416
1601387235597,897,0.0871582,-0.96343994,-0.37823486
1601387235597,898,0.08569336,-0.9636841,-0.37701416
1601387235598,899,0.0871582,-0.96343994,-0.37823486
1601387235599,900,0.084228516,-0.9619751,-0.3826294
1601387235600,901,0.08154297,-0.9624634,-0.378479
1601387235602,902,0.084228516,-0.9619751,-0.3826294
1601387235602,903,0.0871582,-0.96343994,-0.37823486
1601387235602,904,0.08154297,-0.9624634,-0.378479
1601387235603,905,0.0871582,-0.96343994,-0.37823486
1601387235605,906,0.080566406,-0.9661255,-0.38043213
1601387235607,907,0.080566406,-0.9661255,-0.38043213
1601387235609,908,0.08154297,-0.9624634,-0.378479
1601387235611,909,0.084228516,-0.9619751,-0.3826294
1601387235614,910,0.08154297,-0.9624634,-0.378479
1601387235625,911,0.084228516,-0.9619751,-0.3826294
1601387235625,912,0.084228516,-0.9619751,-0.3826294
1601387235625,913,0.084472656,-0.96661377,-0.37921143
1601387235626,914,0.080566406,-0.9661255,-0.38043213
1601387235626,915,0.080566406,-0.9661255,-0.38043213
1601387235627,916,0.084228516,-0.9619751,-0.3826294
1601387235629,917,0.080566406,-0.9661255,-0.38043213
1601387235631,918,0.084472656,-0.96661377,-0.37921143
1601387235631,919,0.084472656,-0.96661377,-0.37921143
1601387235631,920,0.084472656,-0.96661377,-0.37921143
1601387235636,921,0.083984375,-0.96099854,-0.38531494
1601387235637,922,0.080566406,-0.9661255,-0.38043213
1601387235637,923,0.084472656,-0.96661377,-0.37921143
1601387235639,924,0.083984375,-0.96099854,-0.38531494
1601387235640,925,0.083984375,-0.96099854,-0.38531494
1601387235640,926,0.080078125,-0.9585571,-0.38580322
1601387235648,927,0.080078125,-0.9585571,-0.38580322
1601387235648,928,0.084472656,-0.96661377,-0.37921143
1601387235649,929,0.083984375,-0.96099854,-0.38531494
1601387235650,930,0.08984375,-0.9636841,-0.38360596
1601387235650,931,0.080078125,-0.9585571,-0.38580322
1601387235652,932,0.083984375,-0.96099854,-0.38531494
1601387235668,933,0.08984375,-0.9636841,-0.38360596
1601387235669,934,0.083984375,-0.96099854,-0.38531494
1601387235670,935,0.080078125,-0.9585571,-0.38580322
1601387235671,936,0.083984375,-0.96588135,-0.37872314
1601387235672,937,0.08984375,-0.9636841,-0.38360596
1601387235672,938,0.080078125,-0.9585571,-0.38580322
1601387235673,939,0.083984375,-0.96588135,-0.37872314
1601387235674,940,0.08984375,-0.9636841,-0.38360596
1601387235675,941,0.08984375,-0.9636841,-0.38360596
1601387235675,942,0.08251953,-0.95928955,-0.37750244
1601387235676,943,0.08251953,-0.95928955,-0.37750244
1601387235677,944,0.080078125,-0.9585571,-0.38580322
1601387235678,945,0.07714844,-0.9639282,-0.37677002
1601387235679,946,0.083984375,-0.96588135,-0.37872314
1601387235680,947,0.08251953,-0.95928955,-0.37750244
1601387235680,948,0.08984375,-0.9636841,-0.38360596
1601387235681,949,0.07714844,-0.9639282,-0.37677002
1601387235682,950,0.07714844,-0.9639282,-0.37677002
1601387235684,951,0.083984375,-0.96588135,-0.37872314
1601387235685,952,0.083984375,-0.96588135,-0.37872314
1601387235688,953,0.083984375,-0.96588135,-0.37872314
1601387235693,954,0.08251953,-0.95928955,-0.37750244
1601387235693,955,0.08251953,-0.95928955,-0.37750244
1601387235695,956,0.08251953,-0.95928955,-0.37750244
1601387235697,957,0.07714844,-0.9639282,-0.37677002
1601387235700,958,0.07714844,-0.9639282,-0.37677002
1601387235704,959,0.07714844,-0.9639282,-0.37677002
1601387237970,960,0.079589844,-0.9649048,-0.380188
1601387237972,961,0.079589844,-0.9649048,-0.380188
1601387237973,962,0.079589844,-0.9649048,-0.380188
1601387237982,963,0.079589844,-0.9649048,-0.380188
1601387237983,964,0.076171875,-0.9651489,-0.37579346
1601387237984,965,0.079589844,-0.9649048,-0.380188
1601387237985,966,0.076171875,-0.9651489,-0.37579346
1601387237986,967,0.079589844,-0.9649048,-0.380188
1601387237988,968,0.07446289,-0.96417236,-0.37799072
1601387237988,969,0.076171875,-0.9651489,-0.37579346
1601387237989,970,0.07446289,-0.96417236,-0.37799072
1601387238006,971,0.076171875,-0.9651489,-0.37579346
1601387238008,972,0.076171875,-0.9651489,-0.37579346
1601387238008,973,0.076171875,-0.9651489,-0.37579346
1601387238008,974,0.07788086,-0.97052,-0.37554932
1601387238010,975,0.07446289,-0.96417236,-0.37799072
1601387238010,976,0.07788086,-0.97052,-0.37554932
1601387238010,977,0.07446289,-0.96417236,-0.37799072
1601387238010,978,0.07446289,-0.96417236,-0.37799072
1601387238012,979,0.072265625,-0.9656372,-0.37701416
1601387238012,980,0.07446289,-0.96417236,-0.37799072
1601387238013,981,0.07348633,-0.9649048,-0.3748169
1601387238014,982,0.07788086,-0.97052,-0.37554932
1601387238015,983,0.07543945,-0.9690552,-0.37335205
1601387238015,984,0.072265625,-0.9656372,-0.37701416
1601387238015,985,0.07519531,-0.96539307,-0.3735962
1601387238023,986,0.07788086,-0.97052,-0.37554932
1601387238024,987,0.07788086,-0.97052,-0.37554932
1601387238025,988,0.07788086,-0.97052,-0.37554932
1601387238026,989,0.072265625,-0.9656372,-0.37701416
1601387238027,990,0.07348633,-0.9649048,-0.3748169
1601387238028,991,0.07348633,-0.96954346,-0.3665161
1601387238031,992,0.072265625,-0.9656372,-0.37701416
1601387238033,993,0.072265625,-0.9656372,-0.37701416
1601387238043,994,0.076660156,-0.96588135,-0.36724854
1601387238044,995,0.07348633,-0.9649048,-0.3748169
1601387238044,996,0.072265625,-0.9656372,-0.37701416
1601387238044,997,0.07348633,-0.9649048,-0.3748169
1601387238045,998,0.07543945,-0.9690552,-0.37335205
1601387238045,999,0.07348633,-0.9649048,-0.3748169
1601387238045,1000,0.07543945,-0.9690552,-0.37335205
1601387238046,1001,0.0715332,-0.9741821,-0.3657837
1601387238046,1002,0.07348633,-0.9649048,-0.3748169
1601387238046,1003,0.07519531,-0.96539307,-0.3735962
1601387238047,1004,0.07543945,-0.9690552,-0.37335205
1601387238050,1005,0.07519531,-0.96539307,-0.3735962
1601387238052,1006,0.07543945,-0.9690552,-0.37335205
1601387238053,1007,0.07519531,-0.96539307,-0.3735962
1601387238059,1008,0.0703125,-0.96099854,-0.36260986
1601387238060,1009,0.07543945,-0.9690552,-0.37335205
1601387238061,1010,0.07348633,-0.96954346,-0.3665161
1601387238061,1011,0.07348633,-0.96954346,-0.3665161
1601387238062,1012,0.07519531,-0.96539307,-0.3735962
1601387238064,1013,0.076660156,-0.96588135,-0.36724854
1601387238075,1014,0.071777344,-0.97247314,-0.3665161
1601387238076,1015,0.07348633,-0.96954346,-0.3665161
1601387238076,1016,0.07519531,-0.96539307,-0.3735962
1601387238077,1017,0.07104492,-0.96881104,-0.3652954
1601387238078,1018,0.0715332,-0.9741821,-0.3657837
1601387238080,1019,0.07324219,-0.9727173,-0.364563
1601387238080,1020,0.076660156,-0.96588135,-0.36724854
1601387238080,1021,0.07348633,-0.96954346,-0.3665161
1601387238081,1022,0.07348633,-0.96954346,-0.3665161
1601387238082,1023,0.076660156,-0.96588135,-0.36724854
1601387238083,1024,0.0703125,-0.96099854,-0.36260986
1601387238084,1025,0.076660156,-0.96588135,-0.36724854
1601387238084,1026,0.0715332,-0.9741821,-0.3657837
1601387238087,1027,0.07446289,-0.9702759,-0.3640747
1601387238095,1028,0.0715332,-0.9741821,-0.3657837
1601387238096,1029,0.071777344,-0.97247314,-0.3665161
1601387238097,1030,0.0703125,-0.96099854,-0.36260986
1601387238097,1031,0.0703125,-0.96099854,-0.36260986
1601387238098,1032,0.0715332,-0.9741821,-0.3657837
1601387238099,1033,0.07324219,-0.97125244,-0.362854
1601387238100,1034,0.07104492,-0.96881104,-0.3652954
1601387238100,1035,0.071777344,-0.97247314,-0.3665161
1601387238101,1036,0.07324219,-0.9727173,-0.364563
1601387238101,1037,0.071777344,-0.97247314,-0.3665161
1601387238102,1038,0.0703125,-0.96099854,-0.36260986
1601387238103,1039,0.076660156,-0.96588135,-0.36724854
1601387238104,1040,0.07397461,-0.972229,-0.36358643
1601387238105,1041,0.07104492,-0.96881104,-0.3652954
1601387238107,1042,0.07324219,-0.9727173,-0.364563
1601387238108,1043,0.07446289,-0.9702759,-0.3640747
1601387238110,1044,0.07104492,-0.96881104,-0.3652954
1601387238111,1045,0.07324219,-0.9727173,-0.364563
1601387238113,1046,0.071777344,-0.9714966,-0.36383057
1601387238115,1047,0.07446289,-0.9702759,-0.3640747
1601387238125,1048,0.0715332,-0.9741821,-0.3657837
1601387238126,1049,0.07446289,-0.9702759,-0.3640747
1601387238126,1050,0.07324219,-0.97125244,-0.362854
1601387238126,1051,0.07543945,-0.9717407,-0.36016846
1601387238126,1052,0.071777344,-0.97247314,-0.3665161
1601387238127,1053,0.07324219,-0.97125244,-0.362854
1601387238127,1054,0.07836914,-0.96881104,-0.36358643
1601387238127,1055,0.07397461,-0.972229,-0.36358643
1601387238127,1056,0.0703125,-0.96099854,-0.36260986
1601387238127,1057,0.07397461,-0.972229,-0.36358643
1601387238162,1058,0.07104492,-0.96881104,-0.3652954
1601387238162,1059,0.072753906,-0.97247314,-0.36602783
1601387238164,1060,0.07324219,-0.97125244,-0.362854
1601387238164,1061,0.071777344,-0.9714966,-0.36383057
1601387238164,1062,0.07397461,-0.972229,-0.36358643
1601387238166,1063,0.071777344,-0.97247314,-0.3665161
1601387238167,1064,0.071777344,-0.9714966,-0.36383057
1601387238167,1065,0.07348633,-0.9729614,-0.3579712
1601387238169,1066,0.07104492,-0.96881104,-0.3652954
1601387238169,1067,0.07543945,-0.9717407,-0.36016846
1601387238170,1068,0.07324219,-0.9727173,-0.364563
1601387238171,1069,0.07543945,-0.9717407,-0.36016846
1601387238171,1070,0.07446289,-0.9702759,-0.3640747
1601387238172,1071,0.071777344,-0.9714966,-0.36383057
1601387238173,1072,0.07324219,-0.9727173,-0.364563
1601387238173,1073,0.07836914,-0.96881104,-0.36358643
1601387238175,1074,0.07910156,-0.97613525,-0.36090088
1601387238175,1075,0.072753906,-0.97247314,-0.36602783
1601387238180,1076,0.07836914,-0.96881104,-0.36358643
1601387238180,1077,0.07348633,-0.9729614,-0.3579712
1601387238180,1078,0.07543945,-0.9717407,-0.36016846
1601387238180,1079,0.072509766,-0.9741821,-0.3574829
1601387238181,1080,0.07910156,-0.97613525,-0.36090088
1601387238181,1081,0.07324219,-0.97125244,-0.362854
1601387238181,1082,0.072509766,-0.9741821,-0.3574829
1601387238181,1083,0.072753906,-0.97247314,-0.36602783
1601387238181,1084,0.06982422,-0.9685669,-0.36383057
1601387238181,1085,0.06982422,-0.9685669,-0.36383057
1601387238183,1086,0.07446289,-0.9702759,-0.3640747
1601387238200,1087,0.07324219,-0.97125244,-0.362854
1601387238200,1088,0.07348633,-0.9729614,-0.3579712
1601387238200,1089,0.07543945,-0.96881104,-0.37139893
1601387238200,1090,0.07543945,-0.96881104,-0.37139893
1601387238201,1091,0.07397461,-0.972229,-0.36358643
1601387238201,1092,0.07836914,-0.96881104,-0.36358643
1601387238201,1093,0.072265625,-0.9678345,-0.3633423
1601387238201,1094,0.07397461,-0.972229,-0.36358643
1601387238201,1095,0.071777344,-0.9714966,-0.36383057
1601387238201,1096,0.07910156,-0.97613525,-0.36090088
1601387238201,1097,0.071777344,-0.9714966,-0.36383057
1601387238201,1098,0.072265625,-0.9678345,-0.3633423
1601387238202,1099,0.07543945,-0.9717407,-0.36016846
1601387238202,1100,0.07714844,-0.9673462,-0.36724854
1601387238202,1101,0.07836914,-0.96881104,-0.36358643
1601387238202,1102,0.07543945,-0.9717407,-0.36016846
1601387238202,1103,0.072509766,-0.9741821,-0.3574829
1601387238203,1104,0.07836914,-0.96881104,-0.36358643
1601387238203,1105,0.072753906,-0.97247314,-0.36602783
1601387238207,1106,0.079589844,-0.97442627,-0.3652954
1601387238208,1107,0.072753906,-0.97247314,-0.36602783
1601387238208,1108,0.07714844,-0.9673462,-0.36724854
1601387238208,1109,0.06982422,-0.9685669,-0.36383057
1601387238208,1110,0.072753906,-0.97247314,-0.36602783
1601387238208,1111,0.07348633,-0.9729614,-0.3579712
1601387238214,1112,0.076660156,-0.96832275,-0.3682251
1601387238214,1113,0.07543945,-0.96881104,-0.37139893
1601387238214,1114,0.079589844,-0.97442627,-0.3652954
1601387238214,1115,0.07348633,-0.9729614,-0.3579712
1601387238214,1116,0.07348633,-0.9729614,-0.3579712
1601387238214,1117,0.07910156,-0.97613525,-0.36090088
1601387238223,1118,0.0769043,-0.97076416,-0.36773682
1601387238223,1119,0.072265625,-0.9678345,-0.3633423
1601387238223,1120,0.076660156,-0.96832275,-0.3682251
1601387238223,1121,0.07910156,-0.97613525,-0.36090088
1601387238224,1122,0.07910156,-0.97613525,-0.36090088
1601387238224,1123,0.072509766,-0.9741821,-0.3574829
1601387238224,1124,0.072509766,-0.9741821,-0.3574829
1601387238225,1125,0.07714844,-0.9673462,-0.36724854
1601387238225,1126,0.072509766,-0.9741821,-0.3574829
1601387238225,1127,0.079589844,-0.97442627,-0.3652954
1601387238226,1128,0.0769043,-0.97076416,-0.36773682
1601387238226,1129,0.06982422,-0.9685669,-0.36383057
1601387238230,1130,0.06982422,-0.9685669,-0.36383057
1601387238236,1131,0.076660156,-0.96832275,-0.3682251
1601387238236,1132,0.07543945,-0.96881104,-0.37139893
1601387238237,1133,0.0769043,-0.97076416,-0.36773682
1601387238237,1134,0.06982422,-0.9685669,-0.36383057
1601387238237,1135,0.072265625,-0.9678345,-0.3633423
1601387238238,1136,0.07543945,-0.96881104,-0.37139893
1601387238238,1137,0.072265625,-0.9678345,-0.3633423
1601387238240,1138,0.07543945,-0.96881104,-0.37139893
1601387238241,1139,0.07714844,-0.9673462,-0.36724854
1601387238243,1140,0.07714844,-0.9673462,-0.36724854
1601387238247,1141,0.079589844,-0.97442627,-0.3652954
1601387238247,1142,0.072265625,-0.9678345,-0.3633423
1601387238247,1143,0.076660156,-0.96832275,-0.3682251
1601387238249,1144,0.07714844,-0.9673462,-0.36724854
1601387238250,1145,0.0769043,-0.97076416,-0.36773682
1601387238251,1146,0.079589844,-0.97442627,-0.3652954
1601387238253,1147,0.076660156,-0.96832275,-0.3682251
1601387238256,1148,0.0769043,-0.97076416,-0.36773682
1601387238258,1149,0.079589844,-0.97442627,-0.3652954
1601387238260,1150,0.076660156,-0.96832275,-0.3682251
1601387238263,1151,0.0769043,-0.97076416,-0.36773682
1601387240578,1152,0.07788086,-0.9714966,-0.36505127
1601387240578,1153,0.07788086,-0.9714966,-0.36505127
1601387240580,1154,0.07788086,-0.9714966,-0.36505127
1601387240581,1155,0.07861328,-0.9714966,-0.3616333
1601387240582,1156,0.07788086,-0.9714966,-0.36505127
1601387240584,1157,0.07861328,-0.9714966,-0.3616333
1601387240584,1158,0.07788086,-0.9714966,-0.36505127
1601387240586,1159,0.07788086,-0.9714966,-0.36505127
1601387240598,1160,0.07861328,-0.9714966,-0.3616333
1601387240599,1161,0.07910156,-0.9685669,-0.364563
1601387240600,1162,0.07861328,-0.9714966,-0.3616333
1601387240601,1163,0.07714844,-0.9717407,-0.36358643
1601387240601,1164,0.07861328,-0.9714966,-0.3616333
1601387240601,1165,0.07910156,-0.9685669,-0.364563
1601387240602,1166,0.07910156,-0.9685669,-0.364563
1601387240603,1167,0.07910156,-0.9685669,-0.364563
1601387240603,1168,0.07861328,-0.9714966,-0.3616333
1601387240604,1169,0.07714844,-0.9717407,-0.36358643
1601387240605,1170,0.07910156,-0.9685669,-0.364563
1601387240605,1171,0.078125,-0.9673462,-0.35211182
1601387240606,1172,0.07910156,-0.9685669,-0.364563
1601387240607,1173,0.07714844,-0.9717407,-0.36358643
1601387240610,1174,0.078125,-0.9673462,-0.35211182
1601387240612,1175,0.07714844,-0.9717407,-0.36358643
1601387240615,1176,0.083496094,-0.9702759,-0.36383057
1601387240616,1177,0.08227539,-0.9710083,-0.35430908
1601387240622,1178,0.07714844,-0.9717407,-0.36358643
1601387240622,1179,0.078125,-0.9673462,-0.35211182
1601387240623,1180,0.078125,-0.9673462,-0.35211182
1601387240624,1181,0.078125,-0.9673462,-0.35211182
1601387240625,1182,0.083496094,-0.9702759,-0.36383057
1601387240626,1183,0.08276367,-0.9710083,-0.35601807
1601387240636,1184,0.07714844,-0.9717407,-0.36358643
1601387240637,1185,0.083496094,-0.9702759,-0.36383057
1601387240637,1186,0.08227539,-0.9710083,-0.35430908
1601387240638,1187,0.083496094,-0.9702759,-0.36383057
1601387240639,1188,0.08227539,-0.9710083,-0.35430908
1601387240640,1189,0.083496094,-0.9714966,-0.35845947
1601387240641,1190,0.078125,-0.9673462,-0.35211182
1601387240642,1191,0.08276367,-0.9710083,-0.35601807
1601387240660,1192,0.083496094,-0.9702759,-0.36383057
1601387240661,1193,0.08227539,-0.9710083,-0.35430908
1601387240663,1194,0.08276367,-0.9710083,-0.35601807
1601387240664,1195,0.08203125,-0.9702759,-0.35845947
1601387240664,1196,0.083496094,-0.9702759,-0.36383057
1601387240666,1197,0.083496094,-0.9714966,-0.35845947
1601387240670,1198,0.083496094,-0.9714966,-0.35845947
1601387240670,1199,0.08227539,-0.9710083,-0.35430908
1601387240671,1200,0.08276367,-0.9710083,-0.35601807
1601387240671,1201,0.08276367,-0.9710083,-0.35601807
1601387240671,1202,0.08227539,-0.9710083,-0.35430908
1601387240671,1203,0.083496094,-0.9714966,-0.35845947
1601387240671,1204,0.08203125,-0.9702759,-0.35845947
1601387240672,1205,0.08203125,-0.9702759,-0.35845947
1601387240673,1206,0.083496094,-0.9714966,-0.35845947
1601387240673,1207,0.08325195,-0.97125244,-0.35699463
1601387240674,1208,0.08276367,-0.9710083,-0.35601807
1601387240677,1209,0.08325195,-0.97125244,-0.35699463
1601387240686,1210,0.08325195,-0.97125244,-0.35699463
1601387240687,1211,0.08203125,-0.9702759,-0.35845947
1601387240687,1212,0.083740234,-0.9751587,-0.35845947
1601387240687,1213,0.083496094,-0.9714966,-0.35845947
1601387240687,1214,0.08203125,-0.9702759,-0.35845947
1601387240688,1215,0.08569336,-0.9727173,-0.3591919
1601387240690,1216,0.083740234,-0.9751587,-0.35845947
1601387240697,1217,0.08325195,-0.97125244,-0.35699463
1601387240697,1218,0.083740234,-0.9751587,-0.35845947
1601387240697,1219,0.08203125,-0.9702759,-0.35845947
1601387240697,1220,0.08569336,-0.9727173,-0.3591919
1601387240698,1221,0.08325195,-0.97125244,-0.35699463
1601387240698,1222,0.08569336,-0.9727173,-0.3591919
1601387240700,1223,0.083740234,-0.9751587,-0.35845947
1601387240706,1224,0.08325195,-0.97125244,-0.35699463
1601387240706,1225,0.083740234,-0.9751587,-0.35845947
1601387240708,1226,0.08642578,-0.97247314,-0.3604126
1601387240708,1227,0.083740234,-0.9751587,-0.35845947
1601387240709,1228,0.083984375,-0.97076416,-0.36016846
1601387240710,1229,0.08569336,-0.9727173,-0.3591919
1601387240716,1230,0.08569336,-0.9727173,-0.3591919
1601387240717,1231,0.08642578,-0.97247314,-0.3604126
1601387240717,1232,0.08642578,-0.97247314,-0.3604126
1601387240719,1233,0.08569336,-0.9727173,-0.3591919
1601387240719,1234,0.083984375,-0.97076416,-0.36016846
1601387240721,1235,0.08642578,-0.97247314,-0.3604126
1601387240723,1236,0.08642578,-0.97247314,-0.3604126
1601387240727,1237,0.083984375,-0.97076416,-0.36016846
1601387240728,1238,0.08642578,-0.9714966,-0.35992432
1601387240728,1239,0.08642578,-0.9714966,-0.35992432
1601387240742,1240,0.083984375,-0.97076416,-0.36016846
1601387240742,1241,0.08642578,-0.97247314,-0.3604126
1601387240743,1242,0.08642578,-0.9714966,-0.35992432
1601387240743,1243,0.083984375,-0.97076416,-0.36016846
1601387240743,1244,0.0871582,-0.97369385,-0.35845947
1601387240743,1245,0.0871582,-0.97369385,-0.35845947
1601387240744,1246,0.08642578,-0.9714966,-0.35992432
1601387240744,1247,0.08642578,-0.9714966,-0.35992432
1601387240744,1248,0.083984375,-0.97076416,-0.36016846
1601387240744,1249,0.0871582,-0.97369385,-0.35845947
1601387240745,1250,0.08642578,-0.97247314,-0.36090088
1601387240745,1251,0.08642578,-0.97247314,-0.36090088
1601387240745,1252,0.08544922,-0.972229,-0.3657837
1601387240745,1253,0.0871582,-0.97369385,-0.35845947
1601387240745,1254,0.088378906,-0.9702759,-0.35943604
1601387240746,1255,0.08642578,-0.9714966,-0.35992432
1601387240746,1256,0.08642578,-0.97247314,-0.36090088
1601387240746,1257,0.08544922,-0.972229,-0.3657837
1601387240751,1258,0.0871582,-0.97369385,-0.35845947
1601387240751,1259,0.08642578,-0.97247314,-0.36090088
1601387240752,1260,0.08520508,-0.97247314,-0.36016846
1601387240752,1261,0.0871582,-0.97369385,-0.35845947
1601387240752,1262,0.08544922,-0.972229,-0.3657837
1601387240753,1263,0.088378906,-0.9702759,-0.35943604
1601387240764,1264,0.08642578,-0.97247314,-0.36090088
1601387240764,1265,0.08691406,-0.9717407,-0.36090088
1601387240764,1266,0.08544922,-0.972229,-0.3657837
1601387240765,1267,0.088134766,-0.97125244,-0.36114502
1601387240765,1268,0.08642578,-0.96832275,-0.35943604
1601387240765,1269,0.08642578,-0.97247314,-0.36090088
1601387240765,1270,0.08544922,-0.97198486,-0.35992432
1601387240765,1271,0.088378906,-0.9702759,-0.35943604
1601387240766,1272,0.0871582,-0.96661377,-0.3652954
1601387240767,1273,0.08520508,-0.97247314,-0.36016846
1601387240767,1274,0.088378906,-0.9702759,-0.35943604
1601387240767,1275,0.08691406,-0.9717407,-0.36090088
1601387240767,1276,0.08520508,-0.97247314,-0.36016846
1601387240775,1277,0.08544922,-0.972229,-0.3657837
1601387240775,1278,0.087646484,-0.9717407,-0.36480713
1601387240775,1279,0.08544922,-0.972229,-0.3657837
1601387240776,1280,0.0859375,-0.9697876,-0.36602783
1601387240776,1281,0.08520508,-0.97247314,-0.36016846
1601387240776,1282,0.08691406,-0.9717407,-0.36090088
1601387240777,1283,0.088134766,-0.97125244,-0.36114502
1601387240777,1284,0.088378906,-0.9702759,-0.35943604
1601387240777,1285,0.088378906,-0.9702759,-0.35943604
1601387240777,1286,0.083984375,-0.96759033,-0.362854
1601387240786,1287,0.08691406,-0.9717407,-0.36090088
1601387240786,1288,0.088134766,-0.97125244,-0.36114502
1601387240786,1289,0.08642578,-0.96832275,-0.35943604
1601387240787,1290,0.08642578,-0.96832275,-0.35943604
1601387240787,1291,0.08520508,-0.97247314,-0.36016846
1601387240787,1292,0.084472656,-0.9692993,-0.3652954
1601387240788,1293,0.08691406,-0.9717407,-0.36090088
1601387240788,1294,0.088134766,-0.97125244,-0.36114502
1601387240789,1295,0.08520508,-0.97247314,-0.36016846
1601387240789,1296,0.08544922,-0.97198486,-0.35992432
1601387240789,1297,0.08544922,-0.97198486,-0.35992432
1601387240795,1298,0.084472656,-0.97125244,-0.36505127
1601387240795,1299,0.088134766,-0.97125244,-0.36114502
1601387240795,1300,0.08691406,-0.9717407,-0.36090088
1601387240796,1301,0.0871582,-0.96661377,-0.3652954
1601387240796,1302,0.088134766,-0.97125244,-0.36114502
1601387240797,1303,0.08642578,-0.96832275,-0.35943604
1601387240803,1304,0.083496094,-0.9697876,-0.3670044
1601387240803,1305,0.08642578,-0.96832275,-0.35943604
1601387240803,1306,0.0871582,-0.96661377,-0.3652954
1601387240803,1307,0.087646484,-0.9717407,-0.36480713
1601387240804,1308,0.08642578,-0.96832275,-0.35943604
1601387240804,1309,0.087646484,-0.9717407,-0.36480713
1601387240811,1310,0.08544922,-0.97198486,-0.35992432
1601387240811,1311,0.0859375,-0.9697876,-0.36602783
1601387240812,1312,0.08544922,-0.97198486,-0.35992432
1601387240812,1313,0.0871582,-0.96661377,-0.3652954
1601387240812,1314,0.0859375,-0.9697876,-0.36602783
1601387240813,1315,0.0871582,-0.96661377,-0.3652954
1601387240813,1316,0.08544922,-0.97198486,-0.35992432
1601387240813,1317,0.087646484,-0.9717407,-0.36480713
1601387240816,1318,0.083984375,-0.96759033,-0.362854
1601387240816,1319,0.087646484,-0.9717407,-0.36480713
1601387240817,1320,0.083984375,-0.96759033,-0.362854
1601387240822,1321,0.0859375,-0.9697876,-0.36602783
1601387240822,1322,0.084472656,-0.9692993,-0.3652954
1601387240824,1323,0.0871582,-0.96661377,-0.3652954
1601387240824,1324,0.0859375,-0.9697876,-0.36602783
1601387240825,1325,0.084472656,-0.9692993,-0.3652954
1601387240827,1326,0.083984375,-0.96759033,-0.362854
1601387240829,1327,0.087646484,-0.9717407,-0.36480713
1601387240836,1328,0.084472656,-0.97125244,-0.36505127
1601387240836,1329,0.084472656,-0.97125244,-0.36505127
1601387240837,1330,0.084472656,-0.9692993,-0.3652954
1601387240837,1331,0.083496094,-0.9697876,-0.3670044
1601387240837,1332,0.084472656,-0.97125244,-0.36505127
1601387240838,1333,0.083496094,-0.9697876,-0.3670044
1601387240838,1334,0.0859375,-0.9697876,-0.36602783
1601387240839,1335,0.083984375,-0.96759033,-0.362854
1601387240843,1336,0.083496094,-0.9697876,-0.3670044
1601387240843,1337,0.083984375,-0.96759033,-0.362854
1601387240844,1338,0.084472656,-0.9692993,-0.3652954
1601387240846,1339,0.084472656,-0.9692993,-0.3652954
1601387240846,1340,0.084472656,-0.97125244,-0.36505127
1601387240850,1341,0.084472656,-0.97125244,-0.36505127
1601387240851,1342,0.083496094,-0.9697876,-0.3670044
1601387240851,1343,0.083496094,-0.9697876,-0.3670044
1601387243181,1344,0.08227539,-0.9690552,-0.36505127
1601387243182,1345,0.08227539,-0.9690552,-0.36505127
1601387243182,1346,0.08227539,-0.9690552,-0.36505127
1601387243183,1347,0.08227539,-0.9690552,-0.36505127
1601387243183,1348,0.079833984,-0.96832275,-0.36090088
1601387243185,1349,0.079833984,-0.96832275,-0.36090088
1601387243185,1350,0.08227539,-0.9690552,-0.36505127
1601387243185,1351,0.07836914,-0.9661255,-0.37017822
1601387243186,1352,0.07836914,-0.9661255,-0.37017822
1601387243187,1353,0.079833984,-0.96832275,-0.36090088
1601387243192,1354,0.079833984,-0.96832275,-0.36090088
1601387243192,1355,0.08227539,-0.9690552,-0.36505127
1601387243193,1356,0.07836914,-0.9661255,-0.37017822
1601387243194,1357,0.07861328,-0.97784424,-0.362854
1601387243194,1358,0.07861328,-0.97784424,-0.362854
1601387243195,1359,0.07836914,-0.9661255,-0.37017822
1601387243197,1360,0.079833984,-0.96832275,-0.36090088
1601387243199,1361,0.075927734,-0.96661377,-0.36358643
1601387243208,1362,0.075927734,-0.96661377,-0.36358643
1601387243209,1363,0.07861328,-0.97784424,-0.362854
1601387243209,1364,0.07861328,-0.97784424,-0.362854
1601387243210,1365,0.07836914,-0.9661255,-0.37017822
1601387243211,1366,0.079833984,-0.96832275,-0.36090088
1601387243212,1367,0.075927734,-0.9714966,-0.36212158
1601387243212,1368,0.07836914,-0.9661255,-0.37017822
1601387243213,1369,0.07348633,-0.96832275,-0.3604126
1601387243213,1370,0.075927734,-0.96661377,-0.36358643
1601387243214,1371,0.08276367,-0.97320557,-0.36090088
1601387243215,1372,0.07861328,-0.97784424,-0.362854
1601387243217,1373,0.075927734,-0.9714966,-0.36212158
1601387243218,1374,0.075927734,-0.96661377,-0.36358643
1601387243220,1375,0.075927734,-0.96661377,-0.36358643
1601387243222,1376,0.075927734,-0.9714966,-0.36212158
1601387243224,1377,0.07348633,-0.96832275,-0.3604126
1601387243225,1378,0.08276367,-0.97320557,-0.36090088
1601387243231,1379,0.075927734,-0.97125244,-0.36187744
1601387243232,1380,0.075927734,-0.97125244,-0.36187744
1601387243233,1381,0.075927734,-0.9714966,-0.36212158
1601387243233,1382,0.07788086,-0.97003174,-0.36309814
1601387243234,1383,0.07861328,-0.97784424,-0.362854
1601387243235,1384,0.07348633,-0.96832275,-0.3604126
1601387243237,1385,0.075927734,-0.9714966,-0.36212158
1601387243239,1386,0.080566406,-0.97003174,-0.3633423
1601387243246,1387,0.075927734,-0.96661377,-0.36358643
1601387243247,1388,0.08276367,-0.97320557,-0.36090088
1601387243248,1389,0.07348633,-0.96832275,-0.3604126
1601387243248,1390,0.07348633,-0.96832275,-0.3604126
1601387243249,1391,0.075927734,-0.97125244,-0.36187744
1601387243250,1392,0.08276367,-0.97320557,-0.36090088
1601387243250,1393,0.075927734,-0.9714966,-0.36212158
1601387243251,1394,0.075927734,-0.97125244,-0.36187744
1601387243268,1395,0.08276367,-0.97320557,-0.36090088
1601387243268,1396,0.07788086,-0.97003174,-0.36309814
1601387243269,1397,0.0769043,-0.9702759,-0.36016846
1601387243270,1398,0.07348633,-0.96832275,-0.3604126
1601387243271,1399,0.07788086,-0.97003174,-0.36309814
1601387243272,1400,0.07788086,-0.97003174,-0.36309814
1601387243272,1401,0.075927734,-0.97125244,-0.36187744
1601387243273,1402,0.080566406,-0.97003174,-0.3633423
1601387243274,1403,0.07910156,-0.9710083,-0.36260986
1601387243274,1404,0.080566406,-0.97003174,-0.3633423
1601387243275,1405,0.08276367,-0.97320557,-0.36090088
1601387243276,1406,0.07788086,-0.97003174,-0.36309814
1601387243276,1407,0.080566406,-0.97003174,-0.3633423
1601387243277,1408,0.0769043,-0.9702759,-0.36016846
1601387243278,1409,0.0769043,-0.9702759,-0.36016846
1601387243279,1410,0.083740234,-0.9702759,-0.36236572
1601387243279,1411,0.0769043,-0.9702759,-0.36016846
1601387243280,1412,0.080566406,-0.97003174,-0.3633423
1601387243281,1413,0.075927734,-0.97125244,-0.36187744
1601387243282,1414,0.07910156,-0.9710083,-0.36260986
1601387243284,1415,0.083740234,-0.9702759,-0.36236572
1601387243286,1416,0.07910156,-0.9710083,-0.36260986
1601387243287,1417,0.083740234,-0.9702759,-0.36236572
1601387243289,1418,0.0769043,-0.9702759,-0.36016846
1601387243294,1419,0.08227539,-0.9702759,-0.36358643
1601387243295,1420,0.07910156,-0.9710083,-0.36260986
1601387243295,1421,0.07788086,-0.97003174,-0.36309814
1601387243296,1422,0.08227539,-0.9702759,-0.36358643
1601387243296,1423,0.08227539,-0.9702759,-0.36358643
1601387243297,1424,0.07861328,-0.9710083,-0.36749268
1601387243306,1425,0.07861328,-0.9710083,-0.36749268
1601387243306,1426,0.083740234,-0.9702759,-0.36236572
1601387243307,1427,0.080566406,-0.97003174,-0.3633423
1601387243308,1428,0.07861328,-0.9710083,-0.36749268
1601387243308,1429,0.07910156,-0.9710083,-0.36260986
1601387243309,1430,0.08544922,-0.9680786,-0.35723877
1601387243310,1431,0.08544922,-0.9680786,-0.35723877
1601387243313,1432,0.08227539,-0.9702759,-0.36358643
1601387243319,1433,0.07861328,-0.9710083,-0.36749268
1601387243320,1434,0.083740234,-0.9702759,-0.36236572
1601387243320,1435,0.08276367,-0.97247314,-0.36236572
1601387243321,1436,0.08544922,-0.9680786,-0.35723877
1601387243322,1437,0.08227539,-0.9702759,-0.36358643
1601387243324,1438,0.08544922,-0.9680786,-0.35723877
1601387243335,1439,0.08276367,-0.97247314,-0.36236572
1601387243335,1440,0.0769043,-0.9702759,-0.36016846
1601387243336,1441,0.08203125,-0.96832275,-0.35943604
1601387243338,1442,0.08203125,-0.96832275,-0.35943604
1601387243338,1443,0.07861328,-0.9710083,-0.36749268
1601387243338,1444,0.084472656,-0.96954346,-0.36212158
1601387243339,1445,0.08544922,-0.9680786,-0.35723877
1601387243340,1446,0.08276367,-0.97247314,-0.36236572
1601387243341,1447,0.084472656,-0.96954346,-0.36212158
1601387243342,1448,0.08276367,-0.97247314,-0.36236572
1601387243344,1449,0.080322266,-0.96881104,-0.362854
1601387243350,1450,0.080322266,-0.96881104,-0.362854
1601387243351,1451,0.07910156,-0.9710083,-0.36260986
1601387243352,1452,0.08203125,-0.96832275,-0.35943604
1601387243352,1453,0.08203125,-0.96832275,-0.35943604
1601387243352,1454,0.07861328,-0.97003174,-0.3604126
1601387243353,1455,0.08276367,-0.97247314,-0.36236572
1601387243359,1456,0.07861328,-0.97003174,-0.3604126
1601387243360,1457,0.084472656,-0.96954346,-0.36212158
1601387243361,1458,0.083740234,-0.9702759,-0.36236572
1601387243361,1459,0.08081055,-0.96759033,-0.36187744
1601387243361,1460,0.084472656,-0.96954346,-0.36212158
1601387243362,1461,0.08203125,-0.96832275,-0.35943604
1601387243364,1462,0.08081055,-0.96759033,-0.36187744
1601387243367,1463,0.08325195,-0.97247314,-0.3616333
1601387243373,1464,0.08325195,-0.97247314,-0.3616333
1601387243373,1465,0.080322266,-0.96881104,-0.362854
1601387243373,1466,0.08227539,-0.9702759,-0.36358643
1601387243374,1467,0.080322266,-0.96881104,-0.362854
1601387243374,1468,0.08325195,-0.972229,-0.36260986
1601387243374,1469,0.07861328,-0.97003174,-0.3604126
1601387243375,1470,0.08325195,-0.972229,-0.36260986
1601387243383,1471,0.07861328,-0.9710083,-0.36749268
1601387243384,1472,0.07861328,-0.97003174,-0.3604126
1601387243384,1473,0.08300781,-0.97198486,-0.36260986
1601387243384,1474,0.084472656,-0.96954346,-0.36212158
1601387243385,1475,0.08081055,-0.96759033,-0.36187744
1601387243386,1476,0.08300781,-0.97198486,-0.36260986
1601387243388,1477,0.08544922,-0.9680786,-0.35723877
1601387243398,1478,0.08081055,-0.96759033,-0.36187744
1601387243400,1479,0.083496094,-0.9692993,-0.36187744
1601387243401,1480,0.080322266,-0.96881104,-0.362854
1601387243401,1481,0.08325195,-0.97247314,-0.3616333
1601387243401,1482,0.08276367,-0.97247314,-0.36236572
1601387243402,1483,0.083496094,-0.9692993,-0.36187744
1601387243403,1484,0.08325195,-0.972229,-0.36260986
1601387243403,1485,0.08325195,-0.97247314,-0.3616333
1601387243405,1486,0.084472656,-0.97320557,-0.35894775
1601387243405,1487,0.08203125,-0.96832275,-0.35943604
1601387243406,1488,0.084472656,-0.97320557,-0.35894775
1601387243414,1489,0.08300781,-0.97198486,-0.36260986
1601387243414,1490,0.08325195,-0.972229,-0.36260986
1601387243414,1491,0.083496094,-0.9692993,-0.36187744
1601387243416,1492,0.07861328,-0.97003174,-0.3604126
1601387243416,1493,0.0859375,-0.9702759,-0.35943604
1601387243416,1494,0.084472656,-0.96954346,-0.36212158
1601387243420,1495,0.08300781,-0.97198486,-0.36260986
1601387243422,1496,0.084472656,-0.97320557,-0.35894775
1601387243422,1497,0.08081055,-0.96759033,-0.36187744
1601387243429,1498,0.080322266,-0.96881104,-0.362854
1601387243429,1499,0.0859375,-0.9702759,-0.35943604
1601387243429,1500,0.083496094,-0.9692993,-0.36187744
1601387243430,1501,0.084228516,-0.9692993,-0.36114502
1601387243430,1502,0.0859375,-0.9702759,-0.35943604
1601387243430,1503,0.08544922,-0.9714966,-0.35723877
1601387243432,1504,0.07861328,-0.97003174,-0.3604126
1601387243434,1505,0.084472656,-0.97320557,-0.35894775
1601387243436,1506,0.084228516,-0.9692993,-0.36114502
1601387243437,1507,0.08081055,-0.96759033,-0.36187744
1601387243440,1508,0.084228516,-0.9692993,-0.36114502
1601387243440,1509,0.0859375,-0.9702759,-0.35943604
1601387243445,1510,0.08544922,-0.9714966,-0.35723877
1601387243446,1511,0.08325195,-0.97247314,-0.3616333
1601387243446,1512,0.088134766,-0.96954346,-0.35406494
1601387243446,1513,0.088134766,-0.96954346,-0.35406494
1601387243446,1514,0.08544922,-0.9714966,-0.35723877
1601387243446,1515,0.084228516,-0.9692993,-0.36114502
1601387243450,1516,0.08325195,-0.97247314,-0.3616333
1601387243457,1517,0.088134766,-0.96954346,-0.35406494
1601387243457,1518,0.08544922,-0.9714966,-0.35723877
1601387243457,1519,0.08325195,-0.972229,-0.36260986
1601387243458,1520,0.08325195,-0.972229,-0.36260986
1601387243465,1521,0.088134766,-0.96954346,-0.35406494
1601387243465,1522,0.08300781,-0.97198486,-0.36260986
1601387243465,1523,0.08300781,-0.97198486,-0.36260986
1601387243466,1524,0.083496094,-0.9692993,-0.36187744
1601387243468,1525,0.083496094,-0.9692993,-0.36187744
1601387243469,1526,0.084472656,-0.97320557,-0.35894775
1601387243471,1527,0.0859375,-0.9702759,-0.35943604
1601387243471,1528,0.084472656,-0.97320557,-0.35894775
1601387243475,1529,0.0859375,-0.9702759,-0.35943604
1601387243475,1530,0.084228516,-0.9692993,-0.36114502
1601387243476,1531,0.084228516,-0.9692993,-0.36114502
1601387243478,1532,0.08544922,-0.9714966,-0.35723877
1601387243478,1533,0.08544922,-0.9714966,-0.35723877
1601387243481,1534,0.088134766,-0.96954346,-0.35406494
1601387243484,1535,0.088134766,-0.96954346,-0.35406494
1601387245674,1536,0.08886719,-0.97003174,-0.36920166
1601387245675,1537,0.08886719,-0.97003174,-0.36920166
1601387245676,1538,0.08886719,-0.97003174,-0.36920166
1601387245676,1539,0.08520508,-0.97320557,-0.3587036
1601387245678,1540,0.08520508,-0.97320557,-0.3587036
1601387245694,1541,0.08520508,-0.97320557,-0.3587036
1601387245695,1542,0.08886719,-0.97003174,-0.36920166
1601387245696,1543,0.08569336,-0.9685669,-0.35845947
1601387245696,1544,0.08569336,-0.9685669,-0.35845947
1601387245697,1545,0.08886719,-0.97003174,-0.36920166
1601387245697,1546,0.08886719,-0.97003174,-0.36920166
1601387245699,1547,0.08520508,-0.97320557,-0.3587036
1601387245699,1548,0.08569336,-0.9685669,-0.35845947
1601387245700,1549,0.08520508,-0.97320557,-0.3587036
1601387245701,1550,0.08544922,-0.9714966,-0.36090088
1601387245702,1551,0.08544922,-0.9714966,-0.36090088
1601387245702,1552,0.08520508,-0.97320557,-0.3587036
1601387245703,1553,0.08544922,-0.97052,-0.36138916
1601387245703,1554,0.08544922,-0.9714966,-0.36090088
1601387245705,1555,0.08569336,-0.9685669,-0.35845947
1601387245705,1556,0.08618164,-0.972229,-0.36212158
1601387245706,1557,0.08544922,-0.97052,-0.36138916
1601387245707,1558,0.08642578,-0.9697876,-0.3633423
1601387245709,1559,0.08569336,-0.9685669,-0.35845947
1601387245716,1560,0.08569336,-0.9685669,-0.35845947
1601387245716,1561,0.08618164,-0.972229,-0.36212158
1601387245717,1562,0.08544922,-0.9714966,-0.36090088
1601387245718,1563,0.087646484,-0.97125244,-0.362854
1601387245719,1564,0.08544922,-0.97052,-0.36138916
1601387245720,1565,0.08544922,-0.9714966,-0.36090088
1601387245721,1566,0.08984375,-0.9741821,-0.36016846
1601387245723,1567,0.08642578,-0.9697876,-0.3633423
1601387245724,1568,0.08544922,-0.97052,-0.36138916
1601387245726,1569,0.08618164,-0.972229,-0.36212158
1601387245728,1570,0.08544922,-0.97052,-0.36138916
1601387245731,1571,0.08618164,-0.972229,-0.36212158
1601387245732,1572,0.08618164,-0.972229,-0.36212158
1601387245732,1573,0.084472656,-0.96221924,-0.3657837
1601387245733,1574,0.08642578,-0.9697876,-0.3633423
1601387245735,1575,0.08544922,-0.9714966,-0.36090088
1601387245737,1576,0.092041016,-0.96881104,-0.36431885
1601387245738,1577,0.08642578,-0.9697876,-0.3633423
1601387245740,1578,0.087646484,-0.97125244,-0.362854
1601387245741,1579,0.087646484,-0.97125244,-0.362854
1601387245742,1580,0.08642578,-0.9697876,-0.3633423
1601387245744,1581,0.087646484,-0.97125244,-0.362854
1601387245745,1582,0.08984375,-0.9741821,-0.36016846
1601387245746,1583,0.084472656,-0.96221924,-0.3657837
1601387245749,1584,0.092041016,-0.96881104,-0.36431885
1601387245749,1585,0.091796875,-0.9678345,-0.364563
1601387245751,1586,0.08911133,-0.9678345,-0.3604126
1601387245756,1587,0.091796875,-0.9678345,-0.364563
1601387245756,1588,0.091308594,-0.9692993,-0.36236572
1601387245757,1589,0.087646484,-0.97125244,-0.362854
1601387245757,1590,0.08544922,-0.97052,-0.36138916
1601387245758,1591,0.08984375,-0.9741821,-0.36016846
1601387245760,1592,0.08984375,-0.9741821,-0.36016846
1601387245761,1593,0.08984375,-0.9741821,-0.36016846
1601387245762,1594,0.08935547,-0.96881104,-0.36676025
1601387245764,1595,0.08911133,-0.9678345,-0.3604126
1601387245765,1596,0.08618164,-0.972229,-0.36212158
1601387245768,1597,0.084472656,-0.96221924,-0.3657837
1601387245768,1598,0.09472656,-0.9710083,-0.36236572
1601387245773,1599,0.091308594,-0.9692993,-0.36236572
1601387245773,1600,0.084472656,-0.96221924,-0.3657837
1601387245773,1601,0.08642578,-0.9697876,-0.3633423
1601387245773,1602,0.084472656,-0.96221924,-0.3657837
1601387245773,1603,0.08935547,-0.96881104,-0.36676025
1601387245773,1604,0.09008789,-0.9697876,-0.36358643
1601387245773,1605,0.09472656,-0.9710083,-0.36236572
1601387245775,1606,0.092041016,-0.96881104,-0.36431885
1601387245776,1607,0.092041016,-0.96881104,-0.36431885
1601387245778,1608,0.09008789,-0.9697876,-0.36358643
1601387245779,1609,0.087646484,-0.97125244,-0.362854
1601387245780,1610,0.092041016,-0.96881104,-0.36431885
1601387245781,1611,0.091796875,-0.9673462,-0.36114502
1601387245782,1612,0.091796875,-0.9678345,-0.364563
1601387245796,1613,0.091796875,-0.9678345,-0.364563
1601387245797,1614,0.091796875,-0.9678345,-0.364563
1601387245797,1615,0.091796875,-0.9673462,-0.36114502
1601387245798,1616,0.091552734,-0.97076416,-0.3579712
1601387245798,1617,0.091552734,-0.97076416,-0.3579712
1601387245799,1618,0.08911133,-0.9678345,-0.3604126
1601387245799,1619,0.09301758,-0.96881104,-0.36187744
1601387245800,1620,0.08911133,-0.9678345,-0.3604126
1601387245801,1621,0.08911133,-0.9678345,-0.3604126
1601387245801,1622,0.09301758,-0.96881104,-0.36187744
1601387245802,1623,0.091308594,-0.9692993,-0.36236572
1601387245803,1624,0.091308594,-0.9692993,-0.36236572
1601387245803,1625,0.09106445,-0.9710083,-0.3587036
1601387245804,1626,0.09106445,-0.9710083,-0.3587036
1601387245805,1627,0.091308594,-0.9692993,-0.36236572
1601387245806,1628,0.08984375,-0.9741821,-0.36016846
1601387245807,1629,0.08935547,-0.96881104,-0.36676025
1601387245813,1630,0.091308594,-0.97003174,-0.36016846
1601387245813,1631,0.08935547,-0.96881104,-0.36676025
1601387245814,1632,0.091308594,-0.97003174,-0.36016846
1601387245815,1633,0.08935547,-0.96881104,-0.36676025
1601387245816,1634,0.09472656,-0.9710083,-0.36236572
1601387245817,1635,0.084472656,-0.96221924,-0.3657837
1601387245818,1636,0.09399414,-0.97052,-0.36187744
1601387245820,1637,0.09472656,-0.9710083,-0.36236572
1601387245821,1638,0.09008789,-0.9697876,-0.36358643
1601387245823,1639,0.09399414,-0.97052,-0.36187744
1601387245824,1640,0.09008789,-0.9697876,-0.36358643
1601387245826,1641,0.092041016,-0.96881104,-0.36431885
1601387245827,1642,0.091796875,-0.9678345,-0.364563
1601387245829,1643,0.09472656,-0.9710083,-0.36236572
1601387245830,1644,0.09008789,-0.9697876,-0.36358643
1601387245832,1645,0.091796875,-0.9673462,-0.36114502
1601387245833,1646,0.091796875,-0.9673462,-0.36114502
1601387245835,1647,0.087890625,-0.9690552,-0.36260986
1601387245837,1648,0.08959961,-0.9685669,-0.36260986
1601387245839,1649,0.091796875,-0.9673462,-0.36114502
1601387245840,1650,0.091552734,-0.97076416,-0.3579712
1601387245842,1651,0.091552734,-0.97076416,-0.3579712
1601387245848,1652,0.09301758,-0.96881104,-0.36187744
1601387245848,1653,0.087890625,-0.9690552,-0.36260986
1601387245848,1654,0.08911133,-0.9678345,-0.3604126
1601387245848,1655,0.09301758,-0.96881104,-0.36187744
1601387245849,1656,0.09033203,-0.9678345,-0.36016846
1601387245849,1657,0.09106445,-0.9710083,-0.3587036
1601387245862,1658,0.09106445,-0.9710083,-0.3587036
1601387245862,1659,0.08959961,-0.9685669,-0.36260986
1601387245863,1660,0.091308594,-0.9692993,-0.36236572
1601387245864,1661,0.091552734,-0.97076416,-0.3579712
1601387245864,1662,0.08984375,-0.9685669,-0.3633423
1601387245865,1663,0.091308594,-0.97003174,-0.36016846
1601387245865,1664,0.08935547,-0.9685669,-0.36260986
1601387245866,1665,0.091308594,-0.97003174,-0.36016846
1601387245867,1666,0.088378906,-0.9692993,-0.364563
1601387245868,1667,0.08935547,-0.96881104,-0.36676025
1601387245868,1668,0.09301758,-0.96881104,-0.36187744
1601387245869,1669,0.08666992,-0.97076416,-0.36260986
1601387245869,1670,0.09399414,-0.97052,-0.36187744
1601387245870,1671,0.08862305,-0.972229,-0.3633423
1601387245871,1672,0.09033203,-0.9678345,-0.36016846
1601387245873,1673,0.09106445,-0.9710083,-0.3587036
1601387245874,1674,0.09399414,-0.97052,-0.36187744
1601387245876,1675,0.087890625,-0.9690552,-0.36260986
1601387245877,1676,0.09472656,-0.9710083,-0.36236572
1601387245882,1677,0.087890625,-0.9690552,-0.36260986
1601387245883,1678,0.08300781,-0.96466064,-0.36798096
1601387245884,1679,0.08984375,-0.9685669,-0.3633423
1601387245884,1680,0.08959961,-0.9685669,-0.36260986
1601387245885,1681,0.091308594,-0.97003174,-0.36016846
1601387245885,1682,0.09008789,-0.9697876,-0.36358643
1601387245887,1683,0.09033203,-0.9678345,-0.36016846
1601387245889,1684,0.08984375,-0.9685669,-0.3633423
1601387245892,1685,0.091796875,-0.9673462,-0.36114502
1601387245893,1686,0.09399414,-0.97052,-0.36187744
1601387245895,1687,0.087890625,-0.9690552,-0.36260986
1601387245896,1688,0.091552734,-0.97076416,-0.3579712
1601387245898,1689,0.09301758,-0.96881104,-0.36187744
1601387245900,1690,0.09106445,-0.9710083,-0.3587036
1601387245901,1691,0.091308594,-0.97003174,-0.36016846
1601387245907,1692,0.09399414,-0.97052,-0.36187744
1601387245908,1693,0.08959961,-0.9685669,-0.36260986
1601387245909,1694,0.08935547,-0.9685669,-0.36260986
1601387245909,1695,0.08935547,-0.9685669,-0.36260986
1601387245910,1696,0.08959961,-0.9685669,-0.36260986
1601387245911,1697,0.087890625,-0.9690552,-0.36260986
1601387245914,1698,0.09033203,-0.9678345,-0.36016846
1601387245914,1699,0.088378906,-0.9692993,-0.364563
1601387245915,1700,0.088378906,-0.9692993,-0.364563
1601387245918,1701,0.08959961,-0.9685669,-0.36260986
1601387245918,1702,0.08984375,-0.9685669,-0.3633423
1601387245919,1703,0.09033203,-0.9678345,-0.36016846
1601387245921,1704,0.08666992,-0.97076416,-0.36260986
1601387245922,1705,0.08666992,-0.97076416,-0.36260986
1601387245924,1706,0.08984375,-0.9685669,-0.3633423
1601387245925,1707,0.08862305,-0.972229,-0.3633423
1601387245927,1708,0.09033203,-0.9678345,-0.36016846
1601387245928,1709,0.08935547,-0.9685669,-0.36260986
1601387245937,1710,0.08862305,-0.972229,-0.3633423
1601387245938,1711,0.08300781,-0.96466064,-0.36798096
1601387245940,1712,0.088378906,-0.9692993,-0.364563
1601387245941,1713,0.08984375,-0.9685669,-0.3633423
1601387245944,1714,0.08666992,-0.97076416,-0.36260986
1601387245945,1715,0.08935547,-0.9685669,-0.36260986
1601387245947,1716,0.08300781,-0.96466064,-0.36798096
1601387245949,1717,0.08862305,-0.972229,-0.3633423
1601387245950,1718,0.088378906,-0.9692993,-0.364563
1601387245954,1719,0.08300781,-0.96466064,-0.36798096
1601387245954,1720,0.08935547,-0.9685669,-0.36260986
1601387245955,1721,0.08666992,-0.97076416,-0.36260986
1601387245956,1722,0.088378906,-0.9692993,-0.364563
1601387245959,1723,0.08666992,-0.97076416,-0.36260986
1601387245960,1724,0.08862305,-0.972229,-0.3633423
1601387245961,1725,0.08862305,-0.972229,-0.3633423
1601387245962,1726,0.08300781,-0.96466064,-0.36798096
1601387245966,1727,0.08300781,-0.96466064,-0.36798096
1601387248369,1728,0.08251953,-0.9734497,-0.35772705
1601387248371,1729,0.08251953,-0.9734497,-0.35772705
1601387248373,1730,0.08227539,-0.97003174,-0.36138916
1601387248375,1731,0.08178711,-0.9717407,-0.36236572
1601387248377,1732,0.08227539,-0.97003174,-0.36138916
1601387248380,1733,0.08178711,-0.9717407,-0.36236572
1601387248381,1734,0.08178711,-0.96710205,-0.36138916
1601387248389,1735,0.08251953,-0.9734497,-0.35772705
1601387248390,1736,0.08251953,-0.9734497,-0.35772705
1601387248391,1737,0.08251953,-0.9734497,-0.35772705
1601387248392,1738,0.08251953,-0.9734497,-0.35772705
1601387248393,1739,0.08178711,-0.96710205,-0.36138916
1601387248394,1740,0.08691406,-0.9741821,-0.3574829
1601387248395,1741,0.08227539,-0.97003174,-0.36138916
1601387248396,1742,0.08227539,-0.97003174,-0.36138916
1601387248399,1743,0.08227539,-0.97003174,-0.36138916
1601387248408,1744,0.08544922,-0.97125244,-0.35845947
1601387248409,1745,0.08178711,-0.9717407,-0.36236572
1601387248411,1746,0.08227539,-0.97003174,-0.36138916
1601387248411,1747,0.08178711,-0.9717407,-0.36236572
1601387248412,1748,0.08691406,-0.9741821,-0.3574829
1601387248412,1749,0.08178711,-0.9717407,-0.36236572
1601387248413,1750,0.08178711,-0.96710205,-0.36138916
1601387248414,1751,0.08496094,-0.9678345,-0.36114502
1601387248415,1752,0.08691406,-0.9741821,-0.3574829
1601387248416,1753,0.08544922,-0.97125244,-0.35845947
1601387248417,1754,0.08544922,-0.97125244,-0.35845947
1601387248428,1755,0.08178711,-0.96710205,-0.36138916
1601387248428,1756,0.08178711,-0.9717407,-0.36236572
1601387248429,1757,0.08178711,-0.96710205,-0.36138916
1601387248430,1758,0.08666992,-0.9710083,-0.3657837
1601387248431,1759,0.08178711,-0.96710205,-0.36138916
1601387248431,1760,0.08496094,-0.9678345,-0.36114502
1601387248432,1761,0.08691406,-0.9741821,-0.3574829
1601387248433,1762,0.08691406,-0.9741821,-0.3574829
1601387248434,1763,0.08691406,-0.9741821,-0.3574829
1601387248434,1764,0.08496094,-0.9678345,-0.36114502
1601387248436,1765,0.0871582,-0.96832275,-0.36187744
1601387248438,1766,0.08544922,-0.97125244,-0.35845947
1601387248440,1767,0.08544922,-0.97125244,-0.35845947
1601387248442,1768,0.08666992,-0.9710083,-0.3657837
1601387248444,1769,0.08544922,-0.97125244,-0.35845947
1601387248445,1770,0.08496094,-0.9678345,-0.36114502
1601387248447,1771,0.08666992,-0.9710083,-0.3657837
1601387248449,1772,0.0871582,-0.96832275,-0.36187744
1601387248451,1773,0.08496094,-0.9678345,-0.36114502
1601387248453,1774,0.0871582,-0.96832275,-0.36187744
1601387248455,1775,0.08666992,-0.9710083,-0.3657837
1601387248456,1776,0.08691406,-0.9729614,-0.3604126
1601387248458,1777,0.08496094,-0.9678345,-0.36114502
1601387248460,1778,0.08666992,-0.9710083,-0.3657837
1601387248462,1779,0.0871582,-0.96832275,-0.36187744
1601387248464,1780,0.08691406,-0.9729614,-0.3604126
1601387248466,1781,0.08935547,-0.97198486,-0.36090088
1601387248468,1782,0.088134766,-0.9729614,-0.3587036
1601387248470,1783,0.09106445,-0.9697876,-0.3591919
1601387248472,1784,0.08666992,-0.9697876,-0.3616333
1601387248474,1785,0.092285156,-0.97198486,-0.35943604
1601387248481,1786,0.0871582,-0.96832275,-0.36187744
1601387248481,1787,0.08666992,-0.9710083,-0.3657837
1601387248481,1788,0.08935547,-0.97198486,-0.36090088
1601387248482,1789,0.08691406,-0.9729614,-0.3604126
1601387248482,1790,0.08691406,-0.9729614,-0.3604126
1601387248482,1791,0.09814453,-0.9714966,-0.3665161
1601387248483,1792,0.08691406,-0.9729614,-0.3604126
1601387248488,1793,0.08935547,-0.97198486,-0.36090088
1601387248489,1794,0.088134766,-0.9729614,-0.3587036
1601387248489,1795,0.08935547,-0.97198486,-0.36090088
1601387248490,1796,0.0871582,-0.96832275,-0.36187744
1601387248490,1797,0.0847168,-0.9661255,-0.34869385
1601387248491,1798,0.08935547,-0.97198486,-0.36090088
1601387248499,1799,0.088134766,-0.9729614,-0.3587036
1601387248499,1800,0.09106445,-0.9697876,-0.3591919
1601387248500,1801,0.088134766,-0.9729614,-0.3587036
1601387248500,1802,0.08691406,-0.9729614,-0.3604126
1601387248500,1803,0.088134766,-0.9729614,-0.3587036
1601387248501,1804,0.08544922,-0.9846802,-0.34429932
1601387248502,1805,0.08666992,-0.9697876,-0.3616333
1601387248502,1806,0.09106445,-0.9697876,-0.3591919
1601387248503,1807,0.09106445,-0.9697876,-0.3591919
1601387248504,1808,0.08935547,-0.97198486,-0.36090088
1601387248509,1809,0.09692383,-0.9595337,-0.36138916
1601387248510,1810,0.092285156,-0.97198486,-0.35943604
1601387248510,1811,0.09106445,-0.9697876,-0.3591919
1601387248510,1812,0.08666992,-0.9697876,-0.3616333
1601387248510,1813,0.08666992,-0.9697876,-0.3616333
1601387248511,1814,0.088134766,-0.9729614,-0.3587036
1601387248511,1815,0.088378906,-0.9751587,-0.35064697
1601387248512,1816,0.09814453,-0.9714966,-0.3665161
1601387248513,1817,0.092285156,-0.97198486,-0.35943604
1601387248518,1818,0.09106445,-0.9697876,-0.3591919
1601387248518,1819,0.092285156,-0.97198486,-0.35943604
1601387248518,1820,0.08666992,-0.9697876,-0.3616333
1601387248519,1821,0.0847168,-0.9661255,-0.34869385
1601387248519,1822,0.08544922,-0.97906494,-0.32281494
1601387248519,1823,0.09814453,-0.9714966,-0.3665161
1601387248525,1824,0.08666992,-0.9697876,-0.3616333
1601387248525,1825,0.09814453,-0.9714966,-0.3665161
1601387248526,1826,0.092285156,-0.97198486,-0.35943604
1601387248526,1827,0.08544922,-0.9846802,-0.34429932
1601387248526,1828,0.0847168,-0.9661255,-0.34869385
1601387248527,1829,0.06567383,-1.013977,-0.33746338
1601387248530,1830,0.0847168,-0.9661255,-0.34869385
1601387248540,1831,0.092285156,-0.97198486,-0.35943604
1601387248541,1832,0.09692383,-0.9595337,-0.36138916
1601387248541,1833,0.08544922,-0.9846802,-0.34429932
1601387248541,1834,0.09399414,-0.9644165,-0.33868408
1601387248542,1835,0.09814453,-0.9714966,-0.3665161
1601387248542,1836,0.08544922,-0.9846802,-0.34429932
1601387248542,1837,0.08325195,-0.97369385,-0.35211182
1601387248542,1838,0.09814453,-0.9714966,-0.3665161
1601387248543,1839,0.088378906,-0.9751587,-0.35064697
1601387248543,1840,0.09692383,-0.9595337,-0.36138916
1601387248543,1841,0.0847168,-0.9661255,-0.34869385
1601387248545,1842,0.09692383,-0.9595337,-0.36138916
1601387248559,1843,0.0847168,-0.9661255,-0.34869385
1601387248559,1844,0.08544922,-0.97906494,-0.32281494
1601387248560,1845,0.088378906,-0.9751587,-0.35064697
1601387248560,1846,0.08544922,-0.9846802,-0.34429932
1601387248561,1847,0.07836914,-0.97540283,-0.33502197
1601387248562,1848,0.088378906,-0.9751587,-0.35064697
1601387248563,1849,0.08544922,-0.97906494,-0.32281494
1601387248563,1850,0.06567383,-1.013977,-0.33746338
1601387248564,1851,0.088134766,-0.96466064,-0.33624268
1601387248565,1852,0.06567383,-1.013977,-0.33746338
1601387248565,1853,0.08544922,-0.97906494,-0.32281494
1601387248566,1854,0.09399414,-0.9644165,-0.33868408
1601387248567,1855,0.08544922,-0.9846802,-0.34429932
1601387248568,1856,0.09399414,-0.9644165,-0.33868408
1601387248568,1857,0.087402344,-0.986145,-0.33062744
1601387248571,1858,0.06567383,-1.013977,-0.33746338
1601387248572,1859,0.08325195,-0.97369385,-0.35211182
1601387248575,1860,0.07836914,-0.97540283,-0.33502197
1601387248577,1861,0.088134766,-0.96466064,-0.33624268
1601387248586,1862,0.087402344,-0.986145,-0.33062744
1601387248587,1863,0.08325195,-0.97369385,-0.35211182
1601387248588,1864,0.08129883,-0.986145,-0.32403564
1601387248589,1865,0.09692383,-0.9595337,-0.36138916
1601387248590,1866,0.07836914,-0.97540283,-0.33502197
1601387248591,1867,0.09692383,-0.9595337,-0.36138916
1601387248592,1868,0.088134766,-0.96466064,-0.33624268
1601387248592,1869,0.09399414,-0.9644165,-0.33868408
1601387248594,1870,0.07348633,-0.991272,-0.31524658
1601387248595,1871,0.08129883,-0.986145,-0.32403564
1601387248596,1872,0.088378906,-0.9751587,-0.35064697
1601387248601,1873,0.088378906,-0.9751587,-0.35064697
1601387248602,1874,0.087402344,-0.986145,-0.33062744
1601387248602,1875,0.076416016,-0.9776001,-0.31817627
1601387248602,1876,0.07348633,-0.991272,-0.31524658
1601387248603,1877,0.08325195,-0.97369385,-0.35211182
1601387248603,1878,0.08544922,-0.97906494,-0.32281494
1601387248604,1879,0.076416016,-0.9776001,-0.31817627
1601387248605,1880,0.08129883,-0.986145,-0.32403564
1601387248607,1881,0.07836914,-0.97540283,-0.33502197
1601387248609,1882,0.083496094,-0.97540283,-0.33502197
1601387248617,1883,0.06567383,-1.013977,-0.33746338
1601387248617,1884,0.07348633,-0.991272,-0.31524658
1601387248617,1885,0.08544922,-0.97906494,-0.32281494
1601387248617,1886,0.088134766,-0.96466064,-0.33624268
1601387248618,1887,0.083496094,-0.97540283,-0.33502197
1601387248618,1888,0.08081055,-0.9817505,-0.3320923
1601387248619,1889,0.08081055,-0.9817505,-0.3320923
1601387248620,1890,0.076416016,-0.9776001,-0.31817627
1601387248621,1891,0.087402344,-0.986145,-0.33062744
1601387248627,1892,0.09399414,-0.9644165,-0.33868408
1601387248628,1893,0.06567383,-1.013977,-0.33746338
1601387248628,1894,0.083496094,-0.97540283,-0.33502197
1601387248629,1895,0.08081055,-0.9817505,-0.3320923
1601387248634,1896,0.08325195,-0.97369385,-0.35211182
1601387248635,1897,0.09399414,-0.9644165,-0.33868408
1601387248636,1898,0.08129883,-0.986145,-0.32403564
1601387248641,1899,0.07836914,-0.97540283,-0.33502197
1601387248642,1900,0.07348633,-0.991272,-0.31524658
1601387248642,1901,0.08325195,-0.97369385,-0.35211182
1601387248642,1902,0.088134766,-0.96466064,-0.33624268
1601387248646,1903,0.076416016,-0.9776001,-0.31817627
1601387248648,1904,0.083496094,-0.97540283,-0.33502197
1601387248649,1905,0.087402344,-0.986145,-0.33062744
1601387248649,1906,0.07836914,-0.97540283,-0.33502197
1601387248652,1907,0.08081055,-0.9817505,-0.3320923
1601387248652,1908,0.08129883,-0.986145,-0.32403564
1601387248654,1909,0.088134766,-0.96466064,-0.33624268
1601387248657,1910,0.087402344,-0.986145,-0.33062744
1601387248658,1911,0.07348633,-0.991272,-0.31524658
1601387248659,1912,0.08129883,-0.986145,-0.32403564
1601387248661,1913,0.076416016,-0.9776001,-0.31817627
1601387248663,1914,0.07348633,-0.991272,-0.31524658
1601387248664,1915,0.083496094,-0.97540283,-0.33502197
1601387248666,1916,0.076416016,-0.9776001,-0.31817627
1601387248667,1917,0.08081055,-0.9817505,-0.3320923
1601387248669,1918,0.083496094,-0.97540283,-0.33502197
1601387248672,1919,0.08081055,-0.9817505,-0.3320923
1601387250967,1920,0.07495117,-0.98321533,-0.333313
1601387250970,1921,0.07495117,-0.98321533,-0.333313
1601387250971,1922,0.072509766,-0.9824829,-0.33258057
1601387250973,1923,0.07495117,-0.98321533,-0.333313
1601387250976,1924,0.07495117,-0.98321533,-0.333313
1601387250979,1925,0.07495117,-0.98321533,-0.333313
1601387250980,1926,0.0703125,-0.97735596,-0.33795166
1601387250981,1927,0.072509766,-0.9824829,-0.33258057
1601387250988,1928,0.072509766,-0.9824829,-0.33258057
1601387250989,1929,0.072509766,-0.9824829,-0.33258057
1601387250990,1930,0.072509766,-0.9824829,-0.33258057
1601387250991,1931,0.0703125,-0.97735596,-0.33795166
1601387250991,1932,0.07495117,-0.98321533,-0.333313
1601387250992,1933,0.0703125,-0.97735596,-0.33795166
1601387250993,1934,0.07470703,-0.97320557,-0.34014893
1601387250996,1935,0.07470703,-0.97320557,-0.34014893
1601387250996,1936,0.0703125,-0.97735596,-0.33795166
1601387250999,1937,0.072509766,-0.9824829,-0.33258057
1601387251001,1938,0.0703125,-0.97735596,-0.33795166
1601387251014,1939,0.07470703,-0.97320557,-0.34014893
1601387251015,1940,0.07470703,-0.97320557,-0.34014893
1601387251015,1941,0.072509766,-0.986145,-0.33795166
1601387251017,1942,0.0703125,-0.97735596,-0.33795166
1601387251017,1943,0.072509766,-0.986145,-0.33795166
1601387251023,1944,0.07470703,-0.97320557,-0.34014893
1601387251023,1945,0.07470703,-0.97320557,-0.34014893
1601387251024,1946,0.072509766,-0.986145,-0.33795166
1601387251024,1947,0.072509766,-0.986145,-0.33795166
1601387251024,1948,0.075683594,-0.97979736,-0.33648682
1601387251024,1949,0.072509766,-0.986145,-0.33795166
1601387251024,1950,0.075683594,-0.97979736,-0.33648682
1601387251024,1951,0.075683594,-0.97979736,-0.33648682
1601387251025,1952,0.072509766,-0.986145,-0.33795166
1601387251025,1953,0.075683594,-0.97979736,-0.33648682
1601387251044,1954,0.072021484,-0.9783325,-0.33917236
1601387251046,1955,0.072021484,-0.9783325,-0.33917236
1601387251046,1956,0.075683594,-0.97979736,-0.33648682
1601387251047,1957,0.07128906,-0.97906494,-0.33721924
1601387251048,1958,0.072021484,-0.9783325,-0.33917236
1601387251049,1959,0.07128906,-0.97906494,-0.33721924
1601387251049,1960,0.072021484,-0.9783325,-0.33917236
1601387251049,1961,0.072021484,-0.9783325,-0.33917236
1601387251050,1962,0.075683594,-0.97979736,-0.33648682
1601387251051,1963,0.07128906,-0.9768677,-0.33746338
1601387251052,1964,0.07128906,-0.97906494,-0.33721924
1601387251053,1965,0.07788086,-0.98150635,-0.33795166
1601387251054,1966,0.07128906,-0.9768677,-0.33746338
1601387251055,1967,0.07128906,-0.9768677,-0.33746338
1601387251056,1968,0.07128906,-0.97906494,-0.33721924
1601387251057,1969,0.07788086,-0.98150635,-0.33795166
1601387251057,1970,0.072021484,-0.9783325,-0.33917236
1601387251059,1971,0.07495117,-0.98272705,-0.34136963
1601387251062,1972,0.07128906,-0.97906494,-0.33721924
1601387251062,1973,0.07788086,-0.98150635,-0.33795166
1601387251063,1974,0.07128906,-0.9768677,-0.33746338
1601387251075,1975,0.07788086,-0.98150635,-0.33795166
1601387251075,1976,0.076660156,-0.97662354,-0.3340454
1601387251075,1977,0.07128906,-0.9768677,-0.33746338
1601387251076,1978,0.07495117,-0.98272705,-0.34136963
1601387251077,1979,0.07495117,-0.98272705,-0.34136963
1601387251077,1980,0.07128906,-0.97906494,-0.33721924
1601387251078,1981,0.07788086,-0.98150635,-0.33795166
1601387251079,1982,0.07495117,-0.98272705,-0.34136963
1601387251080,1983,0.07788086,-0.9849243,-0.32940674
1601387251080,1984,0.076660156,-0.97662354,-0.3340454
1601387251080,1985,0.08251953,-0.9768677,-0.33380127
1601387251081,1986,0.07788086,-0.9849243,-0.32940674
1601387251081,1987,0.07373047,-0.9800415,-0.33258057
1601387251082,1988,0.07495117,-0.98272705,-0.34136963
1601387251084,1989,0.07128906,-0.9768677,-0.33746338
1601387251085,1990,0.076660156,-0.97662354,-0.3340454
1601387251086,1991,0.08081055,-0.98150635,-0.3394165
1601387251092,1992,0.076660156,-0.97662354,-0.3340454
1601387251092,1993,0.07788086,-0.98150635,-0.33795166
1601387251093,1994,0.08251953,-0.9768677,-0.33380127
1601387251093,1995,0.07788086,-0.9849243,-0.32940674
1601387251093,1996,0.07495117,-0.98272705,-0.34136963
1601387251094,1997,0.076660156,-0.97857666,-0.33892822
1601387251098,1998,0.076660156,-0.97662354,-0.3340454
1601387251099,1999,0.07373047,-0.9800415,-0.33258057
1601387251099,2000,0.07788086,-0.9849243,-0.32940674
1601387251100,2001,0.08251953,-0.9768677,-0.33380127
1601387251100,2002,0.076660156,-0.97662354,-0.3340454
1601387251101,2003,0.07495117,-0.975647,-0.34088135
1601387251102,2004,0.07788086,-0.9849243,-0.32940674
1601387251104,2005,0.07788086,-0.9849243,-0.32940674
1601387251109,2006,0.07373047,-0.9800415,-0.33258057
1601387251109,2007,0.08081055,-0.98150635,-0.3394165
1601387251110,2008,0.08251953,-0.9768677,-0.33380127
1601387251110,2009,0.08251953,-0.9768677,-0.33380127
1601387251110,2010,0.08325195,-0.98272705,-0.33917236
1601387251111,2011,0.08251953,-0.9768677,-0.33380127
1601387251112,2012,0.076660156,-0.97857666,-0.33892822
1601387251115,2013,0.07373047,-0.9800415,-0.33258057
1601387251116,2014,0.07373047,-0.9800415,-0.33258057
1601387251121,2015,0.07495117,-0.975647,-0.34088135
1601387251122,2016,0.08081055,-0.98150635,-0.3394165
1601387251122,2017,0.07373047,-0.9800415,-0.33258057
1601387251123,2018,0.08081055,-0.98150635,-0.3394165
1601387251123,2019,0.080566406,-0.9783325,-0.34136963
1601387251123,2020,0.08081055,-0.98150635,-0.3394165
1601387251128,2021,0.076660156,-0.97857666,-0.33892822
1601387251128,2022,0.08325195,-0.98272705,-0.33917236
1601387251129,2023,0.08081055,-0.98150635,-0.3394165
1601387251129,2024,0.080566406,-0.9783325,-0.34136963
1601387251129,2025,0.076660156,-0.97857666,-0.33892822
1601387251130,2026,0.08129883,-0.97735596,-0.34014893
1601387251135,2027,0.076660156,-0.97857666,-0.33892822
1601387251135,2028,0.07495117,-0.975647,-0.34088135
1601387251135,2029,0.076660156,-0.97857666,-0.33892822
1601387251136,2030,0.07495117,-0.975647,-0.34088135
1601387251136,2031,0.08129883,-0.97735596,-0.34014893
1601387251136,2032,0.08520508,-0.9795532,-0.34283447
1601387251142,2033,0.08520508,-0.9795532,-0.34283447
1601387251142,2034,0.08325195,-0.98272705,-0.33917236
1601387251143,2035,0.07495117,-0.975647,-0.34088135
1601387251143,2036,0.08251953,-0.97540283,-0.34161377
1601387251143,2037,0.08251953,-0.97540283,-0.34161377
1601387251143,2038,0.07495117,-0.975647,-0.34088135
1601387251148,2039,0.08325195,-0.98272705,-0.33917236
1601387251148,2040,0.08325195,-0.98272705,-0.33917236
1601387251149,2041,0.080566406,-0.9783325,-0.34136963
1601387251149,2042,0.08691406,-0.98028564,-0.34088135
1601387251149,2043,0.08325195,-0.98272705,-0.33917236
1601387251150,2044,0.08691406,-0.98028564,-0.34088135
1601387251157,2045,0.08129883,-0.97735596,-0.34014893
1601387251157,2046,0.080566406,-0.9783325,-0.34136963
1601387251157,2047,0.080566406,-0.9783325,-0.34136963
1601387251159,2048,0.080566406,-0.9783325,-0.34136963
1601387251160,2049,0.0859375,-0.98272705,-0.33135986
1601387251160,2050,0.0859375,-0.98272705,-0.33135986
1601387251163,2051,0.08520508,-0.9795532,-0.34283447
1601387251165,2052,0.08129883,-0.97735596,-0.34014893
1601387251176,2053,0.08520508,-0.9795532,-0.34283447
1601387251176,2054,0.08862305,-0.9768677,-0.34991455
1601387251176,2055,0.08251953,-0.97540283,-0.34161377
1601387251176,2056,0.08251953,-0.97540283,-0.34161377
1601387251176,2057,0.08325195,-0.97491455,-0.34259033
1601387251177,2058,0.08129883,-0.97735596,-0.34014893
1601387251177,2059,0.08129883,-0.97735596,-0.34014893
1601387251177,2060,0.08520508,-0.9795532,-0.34283447
1601387251178,2061,0.08691406,-0.98028564,-0.34088135
1601387251178,2062,0.08251953,-0.97540283,-0.34161377
1601387251179,2063,0.087646484,-0.9727173,-0.33599854
1601387251187,2064,0.08520508,-0.9795532,-0.34283447
1601387251188,2065,0.08862305,-0.9768677,-0.34991455
1601387251189,2066,0.08691406,-0.98028564,-0.34088135
1601387251190,2067,0.0859375,-0.98272705,-0.33135986
1601387251190,2068,0.08276367,-0.9817505,-0.3411255
1601387251192,2069,0.08691406,-0.98028564,-0.34088135
1601387251204,2070,0.08251953,-0.97540283,-0.34161377
1601387251204,2071,0.08325195,-0.97491455,-0.34259033
1601387251206,2072,0.0859375,-0.98272705,-0.33135986
1601387251206,2073,0.084228516,-0.975647,-0.348938
1601387251206,2074,0.08862305,-0.9768677,-0.34991455
1601387251208,2075,0.0859375,-0.98272705,-0.33135986
1601387251208,2076,0.08325195,-0.97491455,-0.34259033
1601387251208,2077,0.08691406,-0.98028564,-0.34088135
1601387251209,2078,0.087646484,-0.9727173,-0.33599854
1601387251209,2079,0.08862305,-0.9768677,-0.34991455
1601387251210,2080,0.08081055,-0.96832275,-0.3501587
1601387251212,2081,0.08862305,-0.9768677,-0.34991455
1601387251214,2082,0.0859375,-0.98272705,-0.33135986
1601387251225,2083,0.08325195,-0.97491455,-0.34259033
1601387251225,2084,0.08959961,-0.9795532,-0.34918213
1601387251226,2085,0.087646484,-0.9727173,-0.33599854
1601387251227,2086,0.08325195,-0.97491455,-0.34259033
1601387251228,2087,0.08276367,-0.9817505,-0.3411255
1601387251228,2088,0.08862305,-0.9768677,-0.34991455
1601387251229,2089,0.087646484,-0.9727173,-0.33599854
1601387251230,2090,0.087646484,-0.9727173,-0.33599854
1601387251231,2091,0.08276367,-0.9817505,-0.3411255
1601387251234,2092,0.084228516,-0.975647,-0.348938
1601387251236,2093,0.08276367,-0.9817505,-0.3411255
1601387251238,2094,0.08276367,-0.9817505,-0.3411255
1601387251244,2095,0.084228516,-0.975647,-0.348938
1601387251244,2096,0.084228516,-0.975647,-0.348938
1601387251244,2097,0.084228516,-0.975647,-0.348938
1601387251245,2098,0.08325195,-0.97491455,-0.34259033
1601387251245,2099,0.08081055,-0.96832275,-0.3501587
1601387251245,2100,0.08081055,-0.96832275,-0.3501587
1601387251245,2101,0.08081055,-0.96832275,-0.3501587
1601387251247,2102,0.087646484,-0.9727173,-0.33599854
1601387251248,2103,0.08081055,-0.96832275,-0.3501587
1601387251250,2104,0.08959961,-0.9795532,-0.34918213
1601387251253,2105,0.08959961,-0.9795532,-0.34918213
1601387251258,2106,0.08959961,-0.9795532,-0.34918213
1601387251265,2107,0.08959961,-0.9795532,-0.34918213
1601387251265,2108,0.08276367,-0.9817505,-0.3411255
1601387251266,2109,0.084228516,-0.975647,-0.348938
1601387251268,2110,0.08081055,-0.96832275,-0.3501587
1601387251270,2111,0.08959961,-0.9795532,-0.34918213
1601387253686,2112,0.08325195,-0.97491455,-0.3526001
1601387253686,2113,0.08325195,-0.97491455,-0.3526001
1601387253689,2114,0.08325195,-0.97491455,-0.3526001
1601387253689,2115,0.08325195,-0.97491455,-0.3526001
1601387253689,2116,0.08325195,-0.97491455,-0.3526001
1601387253690,2117,0.08959961,-0.9758911,-0.34869385
1601387253690,2118,0.08959961,-0.9758911,-0.34869385
1601387253691,2119,0.08325195,-0.97491455,-0.3526001
1601387253692,2120,0.08959961,-0.9758911,-0.34869385
1601387253693,2121,0.088134766,-0.9727173,-0.35211182
1601387253694,2122,0.08959961,-0.9758911,-0.34869385
1601387253694,2123,0.088134766,-0.9727173,-0.35211182
1601387253695,2124,0.08935547,-0.9678345,-0.35699463
1601387253696,2125,0.088134766,-0.9727173,-0.35211182
1601387253697,2126,0.08959961,-0.9758911,-0.34869385
1601387253697,2127,0.08959961,-0.9758911,-0.34869385
1601387253698,2128,0.08935547,-0.9678345,-0.35699463
1601387253711,2129,0.08642578,-0.9741821,-0.3513794
1601387253713,2130,0.088134766,-0.9727173,-0.35211182
1601387253713,2131,0.08642578,-0.9741821,-0.3513794
1601387253714,2132,0.088134766,-0.9727173,-0.35211182
1601387253715,2133,0.088134766,-0.9727173,-0.35211182
1601387253717,2134,0.08935547,-0.9678345,-0.35699463
1601387253718,2135,0.08935547,-0.9678345,-0.35699463
1601387253718,2136,0.0847168,-0.9768677,-0.3496704
1601387253719,2137,0.09277344,-0.97442627,-0.34918213
1601387253719,2138,0.0847168,-0.9768677,-0.3496704
1601387253720,2139,0.08935547,-0.9678345,-0.35699463
1601387253727,2140,0.08642578,-0.9741821,-0.3513794
1601387253728,2141,0.08935547,-0.9678345,-0.35699463
1601387253728,2142,0.08642578,-0.9741821,-0.3513794
1601387253729,2143,0.0847168,-0.9768677,-0.3496704
1601387253729,2144,0.09277344,-0.97442627,-0.34918213
1601387253730,2145,0.08642578,-0.9741821,-0.3513794
1601387253731,2146,0.087890625,-0.9741821,-0.34869385
1601387253734,2147,0.0847168,-0.9768677,-0.3496704
1601387253739,2148,0.09277344,-0.97442627,-0.34918213
1601387253739,2149,0.087890625,-0.9741821,-0.34869385
1601387253740,2150,0.09008789,-0.972229,-0.35186768
1601387253740,2151,0.0847168,-0.9768677,-0.3496704
1601387253741,2152,0.09008789,-0.972229,-0.35186768
1601387253743,2153,0.09277344,-0.97442627,-0.34918213
1601387253745,2154,0.087890625,-0.9741821,-0.34869385
1601387253753,2155,0.09008789,-0.972229,-0.35186768
1601387253753,2156,0.08959961,-0.9727173,-0.34820557
1601387253753,2157,0.08959961,-0.9727173,-0.34820557
1601387253754,2158,0.087890625,-0.9741821,-0.34869385
1601387253755,2159,0.08642578,-0.9741821,-0.3513794
1601387253756,2160,0.09277344,-0.97442627,-0.34918213
1601387253773,2161,0.08959961,-0.9727173,-0.34820557
1601387253774,2162,0.08886719,-0.9727173,-0.35333252
1601387253775,2163,0.08886719,-0.9727173,-0.35333252
1601387253776,2164,0.09008789,-0.972229,-0.35186768
1601387253777,2165,0.08666992,-0.97540283,-0.34625244
1601387253777,2166,0.0847168,-0.9768677,-0.3496704
1601387253778,2167,0.087402344,-0.97613525,-0.34991455
1601387253779,2168,0.08886719,-0.9727173,-0.35333252
1601387253780,2169,0.087890625,-0.9741821,-0.34869385
1601387253780,2170,0.08666992,-0.97540283,-0.34625244
1601387253781,2171,0.08959961,-0.9727173,-0.34820557
1601387253782,2172,0.09277344,-0.97442627,-0.34918213
1601387253783,2173,0.09008789,-0.972229,-0.35186768
1601387253784,2174,0.08569336,-0.97052,-0.35772705
1601387253784,2175,0.08666992,-0.97540283,-0.34625244
1601387253785,2176,0.087890625,-0.9741821,-0.34869385
1601387253786,2177,0.08959961,-0.9727173,-0.34820557
1601387253787,2178,0.087402344,-0.97613525,-0.34991455
1601387253788,2179,0.08886719,-0.9727173,-0.35333252
1601387253796,2180,0.08325195,-0.96759033,-0.36212158
1601387253796,2181,0.087402344,-0.97613525,-0.34991455
1601387253798,2182,0.09008789,-0.972229,-0.35186768
1601387253798,2183,0.08886719,-0.9727173,-0.35333252
1601387253798,2184,0.08569336,-0.97052,-0.35772705
1601387253802,2185,0.08666992,-0.97540283,-0.34625244
1601387253802,2186,0.0847168,-0.97076416,-0.364563
1601387253803,2187,0.08666992,-0.97540283,-0.34625244
1601387253803,2188,0.08569336,-0.97052,-0.35772705
1601387253803,2189,0.08325195,-0.96759033,-0.36212158
1601387253804,2190,0.087402344,-0.97613525,-0.34991455
1601387253806,2191,0.0847168,-0.9717407,-0.36065674
1601387253815,2192,0.08227539,-0.97198486,-0.35845947
1601387253816,2193,0.0847168,-0.97076416,-0.364563
1601387253816,2194,0.08959961,-0.9727173,-0.34820557
1601387253817,2195,0.08569336,-0.97052,-0.35772705
1601387253817,2196,0.08325195,-0.96759033,-0.36212158
1601387253819,2197,0.08325195,-0.96759033,-0.36212158
1601387253819,2198,0.08300781,-0.97003174,-0.35943604
1601387253821,2199,0.0847168,-0.97076416,-0.364563
1601387253829,2200,0.08886719,-0.9727173,-0.35333252
1601387253829,2201,0.087402344,-0.97613525,-0.34991455
1601387253829,2202,0.0847168,-0.9717407,-0.36065674
1601387253830,2203,0.0847168,-0.9717407,-0.36065674
1601387253831,2204,0.0847168,-0.97076416,-0.364563
1601387253832,2205,0.08227539,-0.97198486,-0.35845947
1601387253832,2206,0.0847168,-0.9717407,-0.36065674
1601387253840,2207,0.08569336,-0.97052,-0.35772705
1601387253840,2208,0.0793457,-0.97125244,-0.3604126
1601387253840,2209,0.08227539,-0.97198486,-0.35845947
1601387253841,2210,0.08300781,-0.97003174,-0.35943604
1601387253842,2211,0.08666992,-0.97540283,-0.34625244
1601387253842,2212,0.08227539,-0.97198486,-0.35845947
1601387253849,2213,0.08325195,-0.96759033,-0.36212158
1601387253850,2214,0.08300781,-0.97003174,-0.35943604
1601387253850,2215,0.08154297,-0.97052,-0.3579712
1601387253851,2216,0.0793457,-0.97125244,-0.3604126
1601387253851,2217,0.0847168,-0.97076416,-0.364563
1601387253852,2218,0.08300781,-0.97003174,-0.35943604
1601387253854,2219,0.0793457,-0.97125244,-0.3604126
1601387253857,2220,0.08154297,-0.97052,-0.3579712
1601387253858,2221,0.08154297,-0.97052,-0.3579712
1601387253859,2222,0.0847168,-0.9717407,-0.36065674
1601387253862,2223,0.087402344,-0.97613525,-0.34991455
1601387253868,2224,0.07495117,-0.973938,-0.35821533
1601387253869,2225,0.07495117,-0.973938,-0.35821533
1601387253869,2226,0.08227539,-0.97198486,-0.35845947
1601387253870,2227,0.0793457,-0.97125244,-0.3604126
1601387253871,2228,0.07495117,-0.973938,-0.35821533
1601387253872,2229,0.08569336,-0.97052,-0.35772705
1601387253875,2230,0.07543945,-0.97003174,-0.35943604
1601387253889,2231,0.08300781,-0.97003174,-0.35943604
1601387253889,2232,0.08154297,-0.97052,-0.3579712
1601387253890,2233,0.07543945,-0.97003174,-0.35943604
1601387253891,2234,0.08325195,-0.96759033,-0.36212158
1601387253892,2235,0.07543945,-0.97003174,-0.35943604
1601387253893,2236,0.07397461,-0.9717407,-0.35650635
1601387253894,2237,0.07397461,-0.9717407,-0.35650635
1601387253894,2238,0.07495117,-0.9710083,-0.35601807
1601387253895,2239,0.07495117,-0.9710083,-0.35601807
1601387253896,2240,0.07397461,-0.9717407,-0.35650635
1601387253897,2241,0.07495117,-0.9710083,-0.35601807
1601387253900,2242,0.0793457,-0.97125244,-0.3604126
1601387253905,2243,0.08154297,-0.97052,-0.3579712
1601387253906,2244,0.07299805,-0.973938,-0.3562622
1601387253906,2245,0.0847168,-0.97076416,-0.364563
1601387253906,2246,0.07299805,-0.973938,-0.3562622
1601387253907,2247,0.07495117,-0.973938,-0.35821533
1601387253907,2248,0.07299805,-0.973938,-0.3562622
1601387253909,2249,0.07495117,-0.973938,-0.35821533
1601387253915,2250,0.07543945,-0.97003174,-0.35943604
1601387253916,2251,0.07495117,-0.9741821,-0.35235596
1601387253916,2252,0.07543945,-0.97003174,-0.35943604
1601387253917,2253,0.07397461,-0.9717407,-0.35650635
1601387253917,2254,0.0847168,-0.9717407,-0.36065674
1601387253919,2255,0.07495117,-0.9741821,-0.35235596
1601387253929,2256,0.07495117,-0.9741821,-0.35235596
1601387253930,2257,0.08227539,-0.97198486,-0.35845947
1601387253931,2258,0.076171875,-0.97369385,-0.35528564
1601387253932,2259,0.076171875,-0.97369385,-0.35528564
1601387253933,2260,0.07495117,-0.9710083,-0.35601807
1601387253933,2261,0.07397461,-0.9717407,-0.35650635
1601387253934,2262,0.076171875,-0.97369385,-0.35528564
1601387253935,2263,0.08300781,-0.97003174,-0.35943604
1601387253936,2264,0.07836914,-0.9727173,-0.3555298
1601387253937,2265,0.07836914,-0.9727173,-0.3555298
1601387253937,2266,0.07788086,-0.97442627,-0.3526001
1601387253938,2267,0.07299805,-0.973938,-0.3562622
1601387253941,2268,0.07495117,-0.9710083,-0.35601807
