# Sensor position: Wrist
# Sensor side: Right
# Activity type: Lying down right
# Activity code: 6
# Subject id: s1715857
timestamp,seq,accel_x,accel_y,accel_z
1610640728026,0,0.2529297,-1.0237427,0.45355225
1610640728104,1,0.29101562,-0.7605591,0.3685913
1610640728183,2,0.26416016,-0.75201416,0.4833374
1610640728262,3,0.27026367,-0.8250122,0.47821045
1610640728341,4,0.2722168,-0.78253174,0.54974365
1610640728419,5,0.2619629,-0.7715454,0.5126343
1610640728498,6,0.31835938,-0.8508911,0.51068115
1610640728577,7,0.30126953,-0.862854,0.24847412
1610640728656,8,0.19555664,-1.0230103,0.35638428
1610640728734,9,0.13745117,-0.616272,0.43841553
1610640728813,10,0.22827148,-0.50909424,0.74017334
1610640728892,11,0.15942383,-0.65997314,-0.39849854
1610640728971,12,0.022949219,-0.89923096,-1.1326294
1610640729049,13,0.014892578,-0.50006104,-0.7744751
1610640729128,14,0.024414062,-0.48809814,-0.8015747
1610640729207,15,0.03125,-0.33892822,-1.0039673
1610640729286,16,0.0024414062,-0.38702393,-1.1038208
1610640729364,17,0.00390625,-0.40704346,-0.9277954
1610640729443,18,0.0087890625,-0.39971924,-0.90045166
1610640729522,19,0.012451172,-0.4414673,-0.98565674
1610640729601,20,0.017822266,-0.47125244,-0.9360962
1610640729679,21,0.024902344,-0.53619385,-0.82891846
1610640729758,22,0.025390625,-0.5015259,-0.85772705
1610640729837,23,0.032958984,-0.5684204,-0.862854
1610640729916,24,0.028808594,-0.569397,-0.8569946
1610640729994,25,0.026855469,-0.54156494,-0.86553955
1610640730073,26,0.029052734,-0.54034424,-0.88897705
1610640730152,27,0.030029297,-0.5274048,-0.8911743
1610640730231,28,0.034179688,-0.517395,-0.88360596
1610640730309,29,0.033203125,-0.5195923,-0.87945557
1610640730388,30,0.03173828,-0.5149536,-0.8904419
1610640730467,31,0.032958984,-0.5125122,-0.8892212
1610640730546,32,0.030761719,-0.51348877,-0.88897705
1610640730637,33,0.030517578,-0.51275635,-0.89019775
1610640730729,34,0.03100586,-0.5117798,-0.8909302
1610640730821,35,0.032470703,-0.5105591,-0.89068604
1610640730913,36,0.028808594,-0.5046997,-0.8911743
1610640731004,37,0.029541016,-0.50860596,-0.8909302
1610640731096,38,0.030761719,-0.5149536,-0.8875122
1610640731188,39,0.03149414,-0.5154419,-0.88531494
1610640731280,40,0.02709961,-0.5117798,-0.89068604
1610640731371,41,0.032714844,-0.5281372,-0.8833618
1610640731463,42,0.03100586,-0.52178955,-0.8777466
1610640731555,43,0.024169922,-0.5215454,-0.9024048
1610640731647,44,0.026611328,-0.5252075,-0.89727783
1610640731738,45,0.025390625,-0.50860596,-0.881897
1610640731830,46,0.025390625,-0.51031494,-0.8899536
1610640731922,47,0.028076172,-0.52008057,-0.8875122
1610640732014,48,0.028320312,-0.5147095,-0.88653564
1610640732105,49,0.027832031,-0.51275635,-0.8867798
1610640732197,50,0.02758789,-0.5198364,-0.8897095
1610640732289,51,0.029296875,-0.52130127,-0.8904419
1610640732381,52,0.027832031,-0.52301025,-0.88287354
1610640732472,53,0.030517578,-0.5264282,-0.8779907
1610640732564,54,0.033935547,-0.53375244,-0.8777466
1610640732656,55,0.029541016,-0.53302,-0.87677
1610640732748,56,0.029052734,-0.5310669,-0.87750244
1610640732839,57,0.026367188,-0.5310669,-0.8814087
1610640732931,58,0.02709961,-0.5293579,-0.8833618
1610640733023,59,0.029541016,-0.53570557,-0.8753052
1610640733115,60,0.03540039,-0.54351807,-0.8682251
1610640733206,61,0.03515625,-0.5515747,-0.86798096
1610640733298,62,0.029785156,-0.552063,-0.87335205
1610640733390,63,0.030029297,-0.5479126,-0.87286377
1610640733482,64,0.03125,-0.5515747,-0.8682251
1610640733560,65,0.031982422,-0.550354,-0.8760376
1610640733639,66,0.02734375,-0.55181885,-0.86383057
1610640733718,67,0.028808594,-0.5549927,-0.8677368
1610640733797,68,0.032958984,-0.5552368,-0.86968994
1610640733875,69,0.03173828,-0.5664673,-0.86016846
1610640733954,70,0.03100586,-0.56744385,-0.86187744
1610640734033,71,0.02734375,-0.5725708,-0.8562622
1610640734112,72,0.03881836,-0.5767212,-0.84576416
1610640734190,73,0.032958984,-0.58477783,-0.8501587
1610640734269,74,0.036376953,-0.5901489,-0.8467407
1610640734348,75,0.03466797,-0.5918579,-0.84210205
1610640734427,76,0.037841797,-0.597229,-0.83966064
1610640734505,77,0.037841797,-0.6021118,-0.83306885
1610640734584,78,0.032226562,-0.59454346,-0.8440552
1610640734663,79,0.032470703,-0.58551025,-0.85894775
1610640734742,80,0.03515625,-0.59259033,-0.848938
1610640734820,81,0.028564453,-0.5964966,-0.83673096
1610640734899,82,0.033935547,-0.6038208,-0.8286743
1610640734978,83,0.033691406,-0.60650635,-0.8374634
1610640735057,84,0.033935547,-0.6038208,-0.8477173
1610640735135,85,0.031982422,-0.598938,-0.83673096
1610640735214,86,0.032226562,-0.600647,-0.83184814
1610640735293,87,0.032714844,-0.6018677,-0.84088135
1610640735372,88,0.03515625,-0.59942627,-0.8362427
1610640735450,89,0.032714844,-0.6008911,-0.8399048
1610640735529,90,0.032470703,-0.6018677,-0.8364868
1610640735608,91,0.03515625,-0.6001587,-0.8401489
1610640735687,92,0.03515625,-0.6001587,-0.83795166
1610640735765,93,0.033691406,-0.59942627,-0.8364868
1610640735844,94,0.033203125,-0.59625244,-0.8413696
1610640735923,95,0.03100586,-0.5996704,-0.83843994
1610640736002,96,0.025878906,-0.5947876,-0.84039307
1610640736080,97,0.032226562,-0.598938,-0.84625244
1610640736159,98,0.029296875,-0.5918579,-0.8501587
1610640736238,99,0.029541016,-0.59381104,-0.84552
1610640736317,100,0.025390625,-0.614563,-0.8496704
1610640736395,101,0.025390625,-0.6026001,-0.8308716
1610640736474,102,0.03100586,-0.60235596,-0.8377075
1610640736553,103,0.032714844,-0.6021118,-0.8386841
1610640736632,104,0.030761719,-0.59942627,-0.8357544
1610640736710,105,0.020019531,-0.583313,-0.84039307
1610640736789,106,0.030517578,-0.6013794,-0.8418579
1610640736868,107,0.030029297,-0.6013794,-0.83599854
1610640736947,108,0.028808594,-0.598938,-0.83721924
1610640737025,109,0.029541016,-0.60113525,-0.84088135
1610640737104,110,0.028564453,-0.60040283,-0.8386841
1610640737183,111,0.030761719,-0.6026001,-0.8413696
1610640737262,112,0.028320312,-0.59991455,-0.8352661
1610640737340,113,0.02758789,-0.59942627,-0.8394165
1610640737419,114,0.02709961,-0.5967407,-0.8430786
1610640737498,115,0.030517578,-0.5984497,-0.8386841
1610640737577,116,0.028564453,-0.59698486,-0.84381104
1610640737655,117,0.029785156,-0.59503174,-0.8413696
1610640737734,118,0.02758789,-0.59503174,-0.8406372
1610640737813,119,0.026611328,-0.59576416,-0.8430786
1610640737892,120,0.028076172,-0.5947876,-0.8411255
1610640737970,121,0.029296875,-0.5952759,-0.84210205
1610640738049,122,0.029541016,-0.59576416,-0.8413696
1610640738128,123,0.029785156,-0.59698486,-0.84039307
1610640738207,124,0.029296875,-0.59698486,-0.8418579
1610640738285,125,0.026123047,-0.5940552,-0.84210205
1610640738364,126,0.026855469,-0.59503174,-0.8430786
1610640738443,127,0.028320312,-0.59869385,-0.84161377
1610640738522,128,0.029785156,-0.59625244,-0.8428345
1610640738600,129,0.028564453,-0.59747314,-0.84259033
1610640738679,130,0.02709961,-0.5960083,-0.84259033
1610640738758,131,0.028320312,-0.5979614,-0.8411255
1610640738837,132,0.02758789,-0.5979614,-0.8430786
1610640738915,133,0.029785156,-0.59381104,-0.8411255
1610640738994,134,0.028564453,-0.59625244,-0.84210205
1610640739073,135,0.024902344,-0.5942993,-0.8418579
1610640739152,136,0.029541016,-0.59747314,-0.8430786
1610640739230,137,0.027832031,-0.59503174,-0.8440552
1610640739309,138,0.02758789,-0.59503174,-0.8447876
1610640739388,139,0.028320312,-0.5940552,-0.8394165
1610640739467,140,0.028076172,-0.59210205,-0.8406372
1610640739545,141,0.02734375,-0.5930786,-0.84625244
1610640739624,142,0.025878906,-0.59161377,-0.8513794
1610640739703,143,0.02368164,-0.5877075,-0.8430786
1610640739782,144,0.024169922,-0.5874634,-0.847229
1610640739860,145,0.020751953,-0.58843994,-0.8513794
1610640739939,146,0.026611328,-0.58721924,-0.8491821
1610640740018,147,0.025390625,-0.5852661,-0.84552
1610640740097,148,0.021484375,-0.5889282,-0.8479614
1610640740175,149,0.024169922,-0.5881958,-0.8464966
1610640740254,150,0.02319336,-0.58917236,-0.8491821
1610640740333,151,0.022460938,-0.58966064,-0.8496704
1610640740412,152,0.024169922,-0.58721924,-0.8452759
1610640740490,153,0.024414062,-0.58966064,-0.83721924
1610640740569,154,0.022216797,-0.5877075,-0.8538208
1610640740648,155,0.02319336,-0.58551025,-0.85601807
1610640740727,156,0.02368164,-0.5877075,-0.8538208
1610640740805,157,0.0234375,-0.58599854,-0.84503174
1610640740884,158,0.02319336,-0.5899048,-0.8442993
1610640740963,159,0.02319336,-0.5877075,-0.848938
1610640741042,160,0.025634766,-0.58673096,-0.8518677
1610640741120,161,0.025390625,-0.5889282,-0.8496704
1610640741199,162,0.02368164,-0.5869751,-0.8464966
1610640741278,163,0.024902344,-0.58721924,-0.84503174
1610640741357,164,0.02709961,-0.5899048,-0.847229
1610640741435,165,0.024658203,-0.5899048,-0.847229
1610640741514,166,0.024658203,-0.585022,-0.8460083
1610640741593,167,0.027832031,-0.59161377,-0.8479614
1610640741672,168,0.021972656,-0.5940552,-0.8550415
1610640741750,169,0.020996094,-0.5852661,-0.8491821
1610640741829,170,0.025146484,-0.59210205,-0.8340454
1610640741908,171,0.024658203,-0.59332275,-0.84576416
1610640741987,172,0.021240234,-0.59088135,-0.8521118
1610640742065,173,0.022949219,-0.5918579,-0.84991455
1610640742144,174,0.024169922,-0.5940552,-0.847229
1610640742223,175,0.024169922,-0.59259033,-0.8411255
1610640742302,176,0.024902344,-0.5923462,-0.8374634
1610640742380,177,0.024169922,-0.59381104,-0.847229
1610640742459,178,0.0234375,-0.5935669,-0.847229
1610640742538,179,0.024169922,-0.5886841,-0.8413696
1610640742617,180,0.02734375,-0.5918579,-0.84210205
1610640742695,181,0.022705078,-0.5947876,-0.850647
1610640742774,182,0.020263672,-0.59088135,-0.8464966
1610640742853,183,0.023925781,-0.59088135,-0.84576416
1610640742932,184,0.025634766,-0.5947876,-0.8464966
1610640743010,185,0.025878906,-0.59454346,-0.8418579
1610640743089,186,0.024658203,-0.59332275,-0.84210205
1610640743168,187,0.025634766,-0.5928345,-0.84503174
1610640743247,188,0.024658203,-0.5911255,-0.8491821
1610640743325,189,0.02758789,-0.59161377,-0.8430786
1610640743404,190,0.024902344,-0.5935669,-0.8447876
1610640743483,191,0.02734375,-0.59088135,-0.847229
1610640743562,192,0.025390625,-0.58843994,-0.8464966
1610640743640,193,0.028076172,-0.5928345,-0.84161377
1610640743719,194,0.026855469,-0.59332275,-0.847229
1610640743798,195,0.02709961,-0.5923462,-0.8513794
1610640743877,196,0.02709961,-0.5930786,-0.8411255
1610640743955,197,0.02734375,-0.59332275,-0.84381104
1610640744034,198,0.0234375,-0.59259033,-0.84576416
1610640744113,199,0.025634766,-0.5913696,-0.8484497
1610640744192,200,0.026123047,-0.59259033,-0.8413696
1610640744270,201,0.02734375,-0.59381104,-0.8418579
1610640744349,202,0.025146484,-0.5923462,-0.84503174
1610640744428,203,0.024658203,-0.59454346,-0.84381104
1610640744507,204,0.028564453,-0.59625244,-0.8460083
1610640744585,205,0.026367188,-0.5928345,-0.8435669
1610640744664,206,0.02709961,-0.5930786,-0.8401489
1610640744743,207,0.028808594,-0.5967407,-0.84381104
1610640744822,208,0.026611328,-0.59576416,-0.84503174
1610640744900,209,0.024658203,-0.5940552,-0.8430786
1610640744979,210,0.026123047,-0.59454346,-0.84210205
1610640745058,211,0.026123047,-0.59552,-0.8440552
1610640745137,212,0.02709961,-0.5964966,-0.8440552
1610640745215,213,0.025634766,-0.5960083,-0.83843994
1610640745294,214,0.026123047,-0.5977173,-0.84210205
1610640745373,215,0.026367188,-0.5960083,-0.84454346
1610640745452,216,0.026123047,-0.597229,-0.8411255
1610640745530,217,0.027832031,-0.59698486,-0.8413696
1610640745609,218,0.02734375,-0.59625244,-0.8389282
1610640745688,219,0.024169922,-0.59869385,-0.84454346
1610640745767,220,0.025146484,-0.597229,-0.84332275
1610640745845,221,0.025390625,-0.5940552,-0.8389282
1610640745924,222,0.026367188,-0.5991821,-0.8357544
1610640746003,223,0.028564453,-0.5979614,-0.8430786
1610640746082,224,0.021972656,-0.59552,-0.84503174
1610640746160,225,0.028320312,-0.59820557,-0.8442993
1610640746239,226,0.028564453,-0.5947876,-0.8406372
1610640746318,227,0.028564453,-0.5947876,-0.8374634
1610640746397,228,0.022949219,-0.5952759,-0.84552
1610640746475,229,0.026367188,-0.5940552,-0.8442993
1610640746554,230,0.02709961,-0.5940552,-0.84381104
1610640746633,231,0.025146484,-0.5942993,-0.8440552
1610640746712,232,0.024902344,-0.5960083,-0.8430786
1610640746790,233,0.029296875,-0.5979614,-0.8418579
1610640746869,234,0.025146484,-0.5935669,-0.8418579
1610640746948,235,0.025146484,-0.5940552,-0.8418579
1610640747027,236,0.026611328,-0.5967407,-0.8423462
1610640747105,237,0.025146484,-0.59503174,-0.83795166
1610640747184,238,0.024414062,-0.59991455,-0.84332275
1610640747263,239,0.025146484,-0.59454346,-0.8423462
1610640747342,240,0.028564453,-0.59820557,-0.83966064
1610640747420,241,0.02319336,-0.5960083,-0.8413696
1610640747499,242,0.026367188,-0.59747314,-0.84381104
1610640747578,243,0.026855469,-0.59820557,-0.8394165
1610640747657,244,0.025390625,-0.5996704,-0.8401489
1610640747735,245,0.026123047,-0.59698486,-0.8401489
1610640747814,246,0.024658203,-0.59625244,-0.8406372
1610640747893,247,0.025634766,-0.5979614,-0.8381958
1610640747972,248,0.027832031,-0.5996704,-0.8423462
1610640748050,249,0.025878906,-0.59698486,-0.8381958
1610640748129,250,0.02734375,-0.6013794,-0.83843994
1610640748208,251,0.025634766,-0.5991821,-0.8394165
1610640748287,252,0.025390625,-0.59942627,-0.8411255
1610640748365,253,0.028808594,-0.5991821,-0.8423462
1610640748444,254,0.025634766,-0.60040283,-0.83795166
1610640748523,255,0.026367188,-0.5996704,-0.84039307
1610640748602,256,0.027832031,-0.59625244,-0.8406372
1610640748680,257,0.025146484,-0.59820557,-0.8401489
1610640748759,258,0.026367188,-0.5947876,-0.8423462
1610640748838,259,0.026123047,-0.5979614,-0.8435669
1610640748917,260,0.024902344,-0.59552,-0.8428345
1610640748995,261,0.026123047,-0.5979614,-0.84210205
1610640749074,262,0.025390625,-0.5964966,-0.84576416
1610640749153,263,0.024902344,-0.5928345,-0.8381958
1610640749232,264,0.026855469,-0.6001587,-0.8386841
1610640749310,265,0.025146484,-0.59625244,-0.84576416
1610640749389,266,0.023925781,-0.59576416,-0.84552
1610640749468,267,0.026123047,-0.59698486,-0.8399048
1610640749547,268,0.02709961,-0.59698486,-0.84088135
1610640749625,269,0.026611328,-0.5984497,-0.8401489
1610640749704,270,0.024658203,-0.5977173,-0.847229
1610640749783,271,0.026367188,-0.5967407,-0.8406372
1610640749862,272,0.025878906,-0.5996704,-0.8435669
1610640749940,273,0.025390625,-0.5942993,-0.8401489
1610640750019,274,0.026367188,-0.5967407,-0.8394165
1610640750098,275,0.024902344,-0.5979614,-0.84576416
1610640750177,276,0.027832031,-0.59552,-0.8428345
1610640750255,277,0.026611328,-0.59820557,-0.8394165
1610640750334,278,0.025390625,-0.5984497,-0.8394165
1610640750413,279,0.025634766,-0.5979614,-0.8374634
1610640750492,280,0.025878906,-0.59991455,-0.8428345
1610640750570,281,0.024169922,-0.59698486,-0.84381104
1610640750649,282,0.026855469,-0.60113525,-0.83673096
1610640750728,283,0.026855469,-0.60040283,-0.8377075
1610640750807,284,0.026611328,-0.59820557,-0.83966064
1610640750885,285,0.025634766,-0.59820557,-0.84039307
1610640750964,286,0.02368164,-0.59820557,-0.84161377
1610640751043,287,0.026611328,-0.59991455,-0.8406372
1610640751122,288,0.026367188,-0.5984497,-0.8411255
1610640751215,289,0.025878906,-0.5977173,-0.8389282
1610640751309,290,0.02709961,-0.5984497,-0.8447876
1610640751402,291,0.025878906,-0.5979614,-0.84039307
1610640751496,292,0.026611328,-0.59820557,-0.8406372
1610640751589,293,0.026367188,-0.59454346,-0.8447876
1610640751683,294,0.024414062,-0.5967407,-0.84332275
1610640751776,295,0.026367188,-0.59625244,-0.84039307
1610640751870,296,0.025390625,-0.5942993,-0.8435669
1610640751964,297,0.026123047,-0.5947876,-0.8423462
1610640752057,298,0.025634766,-0.5952759,-0.83795166
1610640752151,299,0.023925781,-0.598938,-0.84625244
1610640752244,300,0.022460938,-0.5935669,-0.8467407
1610640752338,301,0.024658203,-0.5942993,-0.83795166
1610640752431,302,0.026855469,-0.597229,-0.8352661
1610640752525,303,0.024902344,-0.59576416,-0.84747314
1610640752619,304,0.025390625,-0.59698486,-0.8477173
1610640752712,305,0.024658203,-0.5977173,-0.84381104
1610640752806,306,0.026367188,-0.59820557,-0.8369751
1610640752899,307,0.029052734,-0.59869385,-0.8411255
1610640752993,308,0.024169922,-0.59625244,-0.83966064
1610640753086,309,0.028564453,-0.5996704,-0.84161377
1610640753180,310,0.025634766,-0.5952759,-0.84259033
1610640753273,311,0.02734375,-0.6013794,-0.8406372
1610640753367,312,0.02368164,-0.59381104,-0.83795166
1610640753461,313,0.028076172,-0.6043091,-0.83184814
1610640753554,314,0.02758789,-0.6008911,-0.8496704
1610640753648,315,0.022705078,-0.5935669,-0.8381958
1610640753741,316,0.028564453,-0.6026001,-0.8320923
1610640753835,317,0.02758789,-0.60162354,-0.8418579
1610640753928,318,0.024169922,-0.59747314,-0.84576416
1610640754022,319,0.026855469,-0.59698486,-0.8418579
1610640754116,320,0.028808594,-0.60113525,-0.84210205
1610640754194,321,0.024169922,-0.5964966,-0.83843994
1610640754273,322,0.029296875,-0.59747314,-0.84039307
1610640754352,323,0.025390625,-0.5984497,-0.84088135
1610640754431,324,0.02368164,-0.5977173,-0.8460083
1610640754509,325,0.027832031,-0.59747314,-0.83966064
1610640754588,326,0.026855469,-0.597229,-0.84039307
1610640754667,327,0.024902344,-0.5942993,-0.8418579
1610640754746,328,0.026855469,-0.59747314,-0.84210205
1610640754824,329,0.025146484,-0.59552,-0.83917236
1610640754903,330,0.026123047,-0.5964966,-0.8418579
1610640754982,331,0.02709961,-0.5935669,-0.8413696
1610640755061,332,0.026855469,-0.5947876,-0.84161377
1610640755139,333,0.025634766,-0.59698486,-0.8442993
1610640755218,334,0.025146484,-0.59698486,-0.84454346
1610640755297,335,0.026855469,-0.5967407,-0.83966064
1610640755376,336,0.02758789,-0.5967407,-0.8411255
1610640755454,337,0.02734375,-0.59576416,-0.8411255
1610640755533,338,0.02758789,-0.5960083,-0.84161377
1610640755612,339,0.024902344,-0.59747314,-0.8428345
1610640755691,340,0.025634766,-0.598938,-0.8418579
1610640755769,341,0.025146484,-0.59747314,-0.8413696
1610640755848,342,0.024902344,-0.5979614,-0.84259033
1610640755927,343,0.026855469,-0.59820557,-0.84039307
1610640756006,344,0.026611328,-0.60040283,-0.83673096
1610640756084,345,0.025634766,-0.59942627,-0.8413696
1610640756163,346,0.024902344,-0.60162354,-0.83966064
1610640756242,347,0.026123047,-0.60040283,-0.84332275
1610640756321,348,0.02709961,-0.5967407,-0.8374634
1610640756399,349,0.028320312,-0.6050415,-0.8352661
1610640756478,350,0.026123047,-0.59625244,-0.8413696
1610640756557,351,0.02709961,-0.6001587,-0.83599854
1610640756636,352,0.02709961,-0.60040283,-0.84552
1610640756714,353,0.025146484,-0.5967407,-0.8362427
1610640756793,354,0.030273438,-0.600647,-0.8423462
1610640756872,355,0.02709961,-0.5977173,-0.84259033
1610640756951,356,0.025146484,-0.59991455,-0.8374634
1610640757029,357,0.027832031,-0.60040283,-0.8401489
1610640757108,358,0.02734375,-0.59942627,-0.8377075
1610640757187,359,0.025634766,-0.59991455,-0.8423462
1610640757266,360,0.029052734,-0.5991821,-0.83917236
1610640757344,361,0.026123047,-0.6013794,-0.8389282
1610640757423,362,0.025390625,-0.6021118,-0.8389282
1610640757502,363,0.028564453,-0.60040283,-0.8386841
1610640757581,364,0.029052734,-0.5991821,-0.8374634
1610640757659,365,0.02709961,-0.60162354,-0.84088135
1610640757738,366,0.026367188,-0.5991821,-0.8467407
1610640757817,367,0.024902344,-0.600647,-0.8377075
1610640757896,368,0.029296875,-0.60235596,-0.8357544
1610640757974,369,0.02758789,-0.59991455,-0.84259033
1610640758053,370,0.026611328,-0.60162354,-0.8377075
1610640758132,371,0.026367188,-0.60528564,-0.8389282
1610640758211,372,0.025146484,-0.59991455,-0.835022
1610640758289,373,0.026855469,-0.60357666,-0.83795166
1610640758368,374,0.023925781,-0.60235596,-0.8406372
1610640758447,375,0.024169922,-0.5984497,-0.84088135
1610640758526,376,0.02709961,-0.6057739,-0.83599854
1610640758604,377,0.025634766,-0.6018677,-0.8423462
1610640758683,378,0.026123047,-0.60479736,-0.8369751
1610640758762,379,0.02709961,-0.6045532,-0.8335571
1610640758841,380,0.025878906,-0.6033325,-0.8381958
1610640758919,381,0.02758789,-0.6050415,-0.8340454
1610640758998,382,0.026855469,-0.60406494,-0.83551025
1610640759077,383,0.029296875,-0.60284424,-0.83599854
