# Sensor position: Wrist
# Sensor side: Right
# Activity type: Sitting bent backward
# Activity code: 5
# Subject id: s1758499
timestamp,seq,accel_x,accel_y,accel_z
1602698801849,0,0.080566406,0.18060303,0.91571045
1602698801860,1,0.080566406,0.18060303,0.91571045
1602698801860,2,0.080566406,0.18060303,0.91571045
1602698801866,3,0.08227539,0.17889404,0.9147339
1602698801867,4,0.08227539,0.17889404,0.9147339
1602698801868,5,0.08129883,0.18011475,0.91693115
1602698801868,6,0.08227539,0.17889404,0.9147339
1602698801883,7,0.08129883,0.18011475,0.91693115
1602698801884,8,0.08276367,0.18084717,0.91741943
1602698801885,9,0.08129883,0.18011475,0.91693115
1602698801885,10,0.084228516,0.17913818,0.91400146
1602698801887,11,0.08276367,0.18084717,0.91741943
1602698801887,12,0.083984375,0.18182373,0.91278076
1602698801888,13,0.08276367,0.18084717,0.91741943
1602698801888,14,0.084228516,0.17913818,0.91400146
1602698801889,15,0.084228516,0.17913818,0.91400146
1602698801889,16,0.0847168,0.17572021,0.9171753
1602698801889,17,0.083984375,0.18182373,0.91278076
1602698801890,18,0.08276367,0.17889404,0.9176636
1602698801899,19,0.0847168,0.17572021,0.9171753
1602698801899,20,0.083984375,0.18182373,0.91278076
1602698801900,21,0.09423828,0.19720459,0.9398804
1602698801901,22,0.0847168,0.17572021,0.9171753
1602698801901,23,0.10424805,0.184021,0.947937
1602698801901,24,0.08276367,0.17889404,0.9176636
1602698801902,25,0.08276367,0.17889404,0.9176636
1602698801902,26,0.09423828,0.19720459,0.9398804
1602698801909,27,0.12939453,0.24407959,0.90740967
1602698801910,28,0.09423828,0.19720459,0.9398804
1602698801910,29,0.10424805,0.184021,0.947937
1602698801910,30,0.19702148,0.19476318,0.91522217
1602698801911,31,0.12939453,0.24407959,0.90740967
1602698801911,32,0.15673828,0.17791748,0.87420654
1602698801911,33,0.10424805,0.184021,0.947937
1602698801912,34,0.18139648,0.16400146,1.0106812
1602698801912,35,0.19702148,0.19476318,0.91522217
1602698801912,36,0.19702148,0.08856201,0.9411011
1602698801913,37,0.15673828,0.17791748,0.87420654
1602698801913,38,0.12939453,0.24407959,0.90740967
1602698801917,39,0.18139648,0.16400146,1.0106812
1602698801917,40,0.08227539,0.10321045,0.8978882
1602698801918,41,0.19702148,0.19476318,0.91522217
1602698801918,42,-0.056640625,0.13739014,0.78948975
1602698801918,43,0.19702148,0.08856201,0.9411011
1602698801920,44,-0.3227539,0.07562256,0.8012085
1602698801921,45,0.15673828,0.17791748,0.87420654
1602698801922,46,0.08227539,0.10321045,0.8978882
1602698801922,47,-0.23046875,0.09661865,0.8331909
1602698801924,48,-0.056640625,0.13739014,0.78948975
1602698801924,49,-0.010009766,0.08660889,0.93963623
1602698801925,50,-0.3227539,0.07562256,0.8012085
1602698801926,51,0.18139648,0.16400146,1.0106812
1602698801927,52,-0.23046875,0.09661865,0.8331909
1602698801930,53,0.19702148,0.08856201,0.9411011
1602698801930,54,0.025146484,0.13568115,0.9706421
1602698801930,55,-0.010009766,0.08660889,0.93963623
1602698801933,56,0.08227539,0.10321045,0.8978882
1602698801934,57,-0.029785156,0.19110107,0.9845581
1602698801935,58,0.025146484,0.13568115,0.9706421
1602698801935,59,-0.011962891,0.2633667,0.99823
1602698801935,60,-0.056640625,0.13739014,0.78948975
1602698801936,61,-0.029785156,0.19110107,0.9845581
1602698801939,62,-0.3227539,0.07562256,0.8012085
1602698801939,63,0.0234375,0.23284912,0.9345093
1602698801939,64,-0.011962891,0.2633667,0.99823
1602698801940,65,0.0234375,0.23284912,0.9345093
1602698801942,66,-0.23046875,0.09661865,0.8331909
1602698801942,67,0.087890625,0.1227417,0.8439331
1602698801943,68,0.087890625,0.1227417,0.8439331
1602698801945,69,-0.010009766,0.08660889,0.93963623
1602698801945,70,0.17797852,0.23016357,0.98553467
1602698801946,71,0.17797852,0.23016357,0.98553467
1602698801949,72,0.025146484,0.13568115,0.9706421
1602698801949,73,0.1550293,0.22088623,0.9977417
1602698801950,74,0.1550293,0.22088623,0.9977417
1602698801950,75,0.15039062,0.22796631,0.855896
1602698801950,76,-0.029785156,0.19110107,0.9845581
1602698801952,77,0.15039062,0.22796631,0.855896
1602698801952,78,0.15161133,0.2489624,0.87908936
1602698801953,79,-0.011962891,0.2633667,0.99823
1602698801955,80,0.15161133,0.2489624,0.87908936
1602698801955,81,0.0234375,0.23284912,0.9345093
1602698801956,82,0.18945312,0.2345581,0.88079834
1602698801958,83,0.087890625,0.1227417,0.8439331
1602698801960,84,0.20092773,0.19989014,0.888855
1602698801960,85,0.18945312,0.2345581,0.88079834
1602698801961,86,0.17797852,0.23016357,0.98553467
1602698801962,87,0.21411133,0.22259521,0.87176514
1602698801963,88,0.20092773,0.19989014,0.888855
1602698801964,89,0.1550293,0.22088623,0.9977417
1602698801965,90,0.21411133,0.22259521,0.87176514
1602698801966,91,0.15039062,0.22796631,0.855896
1602698801968,92,0.15161133,0.2489624,0.87908936
1602698801969,93,0.18945312,0.2345581,0.88079834
1602698801971,94,0.20092773,0.19989014,0.888855
1602698801972,95,0.21411133,0.22259521,0.87176514
1602698804347,96,0.21899414,0.2218628,0.87664795
1602698804351,97,0.21899414,0.2218628,0.87664795
1602698804367,98,0.22460938,0.24481201,0.8703003
1602698804367,99,0.22460938,0.24481201,0.8703003
1602698804367,100,0.21899414,0.2218628,0.87664795
1602698804368,101,0.20947266,0.25579834,0.8746948
1602698804368,102,0.22460938,0.24481201,0.8703003
1602698804368,103,0.20947266,0.25579834,0.8746948
1602698804368,104,0.2319336,0.25238037,0.8588257
1602698804375,105,0.20947266,0.25579834,0.8746948
1602698804375,106,0.21435547,0.23431396,0.8720093
1602698804376,107,0.2319336,0.25238037,0.8588257
1602698804377,108,0.16113281,0.30194092,0.8798218
1602698804378,109,0.2319336,0.25238037,0.8588257
1602698804378,110,0.1928711,0.18597412,0.8617554
1602698804383,111,0.21435547,0.23431396,0.8720093
1602698804383,112,0.055908203,0.30218506,0.90252686
1602698804383,113,0.21435547,0.23431396,0.8720093
1602698804384,114,0.09301758,0.48260498,0.809021
1602698804386,115,0.16113281,0.30194092,0.8798218
1602698804388,116,0.119140625,0.34906006,0.824646
1602698804390,117,0.1928711,0.18597412,0.8617554
1602698804391,118,-4.8828125E-4,0.33465576,0.8986206
1602698804393,119,0.055908203,0.30218506,0.90252686
1602698804399,120,0.03540039,0.3571167,0.85931396
1602698804400,121,0.16113281,0.30194092,0.8798218
1602698804400,122,0.05029297,0.35150146,0.8607788
1602698804401,123,0.09301758,0.48260498,0.809021
1602698804401,124,0.1928711,0.18597412,0.8617554
1602698804403,125,0.036132812,0.36541748,0.8551636
1602698804406,126,0.055908203,0.30218506,0.90252686
1602698804406,127,0.119140625,0.34906006,0.824646
1602698804418,128,0.048583984,0.3764038,0.8539429
1602698804418,129,0.09301758,0.48260498,0.809021
1602698804419,130,0.057617188,0.3619995,0.852478
1602698804420,131,0.119140625,0.34906006,0.824646
1602698804421,132,-4.8828125E-4,0.33465576,0.8986206
1602698804421,133,-4.8828125E-4,0.33465576,0.8986206
1602698804422,134,0.03540039,0.3571167,0.85931396
1602698804422,135,0.03540039,0.3571167,0.85931396
1602698804422,136,0.05029297,0.35150146,0.8607788
1602698804423,137,0.05029297,0.35150146,0.8607788
1602698804423,138,0.05102539,0.36444092,0.86053467
1602698804425,139,0.036132812,0.36541748,0.8551636
1602698804427,140,0.05078125,0.35198975,0.8666382
1602698804429,141,0.048583984,0.3764038,0.8539429
1602698804431,142,0.05102539,0.34979248,0.86224365
1602698804434,143,0.057617188,0.3619995,0.852478
1602698804435,144,0.036132812,0.36541748,0.8551636
1602698804436,145,0.05444336,0.35101318,0.8619995
1602698804442,146,0.07006836,0.34735107,0.85858154
1602698804442,147,0.048583984,0.3764038,0.8539429
1602698804443,148,0.05102539,0.36444092,0.86053467
1602698804443,149,0.057617188,0.3619995,0.852478
1602698804444,150,0.05078125,0.35198975,0.8666382
1602698804448,151,0.05102539,0.36444092,0.86053467
1602698804449,152,0.029541016,0.34857178,0.8695679
1602698804449,153,0.05102539,0.34979248,0.86224365
1602698804450,154,0.05078125,0.35198975,0.8666382
1602698804451,155,0.045898438,0.3451538,0.8649292
1602698804456,156,0.05102539,0.34979248,0.86224365
1602698804457,157,0.05444336,0.35101318,0.8619995
1602698804457,158,0.055664062,0.34075928,0.8656616
1602698804458,159,0.07006836,0.34735107,0.85858154
1602698804460,160,0.05444336,0.35101318,0.8619995
1602698804464,161,0.029541016,0.34857178,0.8695679
1602698804464,162,0.037841797,0.33880615,0.86712646
1602698804465,163,0.07006836,0.34735107,0.85858154
1602698804466,164,0.045898438,0.3451538,0.8649292
1602698804468,165,0.044921875,0.3439331,0.86834717
1602698804470,166,0.055664062,0.34075928,0.8656616
1602698804473,167,0.052490234,0.3390503,0.8690796
1602698804474,168,0.029541016,0.34857178,0.8695679
1602698804474,169,0.048095703,0.33807373,0.8673706
1602698804478,170,0.037841797,0.33880615,0.86712646
1602698804479,171,0.045898438,0.3451538,0.8649292
1602698804479,172,0.047851562,0.3397827,0.87127686
1602698804481,173,0.044921875,0.3439331,0.86834717
1602698804485,174,0.048095703,0.34051514,0.86346436
1602698804493,175,0.055664062,0.34075928,0.8656616
1602698804494,176,0.052490234,0.3390503,0.8690796
1602698804494,177,0.044921875,0.34246826,0.87005615
1602698804494,178,0.048095703,0.33807373,0.8673706
1602698804495,179,0.048583984,0.33953857,0.86761475
1602698804496,180,0.047851562,0.3397827,0.87127686
1602698804496,181,0.037841797,0.33880615,0.86712646
1602698804497,182,0.048095703,0.34051514,0.86346436
1602698804501,183,0.044921875,0.3439331,0.86834717
1602698804502,184,0.044921875,0.34246826,0.87005615
1602698804504,185,0.052490234,0.3390503,0.8690796
1602698804505,186,0.048583984,0.33953857,0.86761475
1602698804509,187,0.048095703,0.33807373,0.8673706
1602698804510,188,0.047851562,0.3397827,0.87127686
1602698804512,189,0.048095703,0.34051514,0.86346436
1602698804514,190,0.044921875,0.34246826,0.87005615
1602698804516,191,0.048583984,0.33953857,0.86761475
1602698807044,192,0.04663086,0.3378296,0.8710327
1602698807049,193,0.04663086,0.3378296,0.8710327
1602698807061,194,0.04663086,0.3378296,0.8710327
1602698807061,195,0.045166016,0.3427124,0.86932373
1602698807062,196,0.045166016,0.3427124,0.86932373
1602698807062,197,0.047851562,0.34002686,0.86761475
1602698807062,198,0.050048828,0.33831787,0.86932373
1602698807062,199,0.045166016,0.3427124,0.86932373
1602698807063,200,0.047851562,0.34002686,0.86761475
1602698807066,201,0.048828125,0.34002686,0.86761475
1602698807067,202,0.047851562,0.34002686,0.86761475
1602698807067,203,0.050048828,0.33831787,0.86932373
1602698807070,204,0.046875,0.34075928,0.87054443
1602698807071,205,0.050048828,0.33831787,0.86932373
1602698807071,206,0.048828125,0.34002686,0.86761475
1602698807073,207,0.048828125,0.34002686,0.86761475
1602698807078,208,0.047851562,0.34246826,0.8690796
1602698807079,209,0.046875,0.34075928,0.87054443
1602698807080,210,0.046875,0.34075928,0.87054443
1602698807081,211,0.048339844,0.3397827,0.86712646
1602698807090,212,0.047851562,0.34246826,0.8690796
1602698807091,213,0.049072266,0.3397827,0.8720093
1602698807091,214,0.047851562,0.34246826,0.8690796
1602698807091,215,0.048339844,0.34002686,0.8690796
1602698807092,216,0.048339844,0.3397827,0.86712646
1602698807092,217,0.048828125,0.3378296,0.86834717
1602698807093,218,0.048339844,0.3397827,0.86712646
1602698807093,219,0.049072266,0.3397827,0.8720093
1602698807093,220,0.05053711,0.34075928,0.86712646
1602698807098,221,0.048339844,0.34002686,0.8690796
1602698807098,222,0.049072266,0.3397827,0.8720093
1602698807099,223,0.048828125,0.3378296,0.86834717
1602698807099,224,0.048339844,0.34002686,0.8690796
1602698807099,225,0.05053711,0.34075928,0.86712646
1602698807100,226,0.049560547,0.33807373,0.86834717
1602698807105,227,0.048828125,0.3378296,0.86834717
1602698807105,228,0.049560547,0.33807373,0.86834717
1602698807106,229,0.05126953,0.33929443,0.8703003
1602698807106,230,0.05126953,0.33929443,0.8703003
1602698807106,231,0.05102539,0.34222412,0.86883545
1602698807106,232,0.05102539,0.34222412,0.86883545
1602698807107,233,0.05053711,0.34075928,0.86712646
1602698807108,234,0.05102539,0.3390503,0.8703003
1602698807109,235,0.05102539,0.3390503,0.8703003
1602698807110,236,0.05029297,0.34197998,0.8656616
1602698807113,237,0.05029297,0.34197998,0.8656616
1602698807113,238,0.049560547,0.33807373,0.86834717
1602698807114,239,0.053710938,0.33709717,0.8668823
1602698807114,240,0.053710938,0.33709717,0.8668823
1602698807115,241,0.05126953,0.33929443,0.8703003
1602698807117,242,0.05078125,0.34051514,0.8678589
1602698807117,243,0.05078125,0.34051514,0.8678589
1602698807118,244,0.05102539,0.34222412,0.86883545
1602698807121,245,0.05493164,0.33953857,0.8666382
1602698807121,246,0.05493164,0.33953857,0.8666382
1602698807122,247,0.05102539,0.3390503,0.8703003
1602698807122,248,0.049804688,0.33953857,0.869812
1602698807122,249,0.049804688,0.33953857,0.869812
1602698807123,250,0.05029297,0.34197998,0.8656616
1602698807125,251,0.05078125,0.33758545,0.8661499
1602698807126,252,0.05078125,0.33758545,0.8661499
1602698807126,253,0.051757812,0.3444214,0.8666382
1602698807129,254,0.053710938,0.33709717,0.8668823
1602698807129,255,0.051757812,0.3444214,0.8666382
1602698807129,256,0.05078125,0.34051514,0.8678589
1602698807131,257,0.05102539,0.33880615,0.8678589
1602698807132,258,0.05493164,0.33953857,0.8666382
1602698807133,259,0.05102539,0.33880615,0.8678589
1602698807133,260,0.048583984,0.34173584,0.8695679
1602698807137,261,0.049804688,0.33953857,0.869812
1602698807137,262,0.048583984,0.34173584,0.8695679
1602698807137,263,0.048583984,0.33758545,0.86932373
1602698807138,264,0.048583984,0.33758545,0.86932373
1602698807138,265,0.05078125,0.33758545,0.8661499
1602698807140,266,0.049804688,0.34222412,0.8673706
1602698807140,267,0.049804688,0.34222412,0.8673706
1602698807141,268,0.051757812,0.3444214,0.8666382
1602698807146,269,0.049316406,0.33953857,0.8703003
1602698807146,270,0.049316406,0.33953857,0.8703003
1602698807146,271,0.05102539,0.33880615,0.8678589
1602698807146,272,0.049560547,0.34051514,0.8707886
1602698807146,273,0.049560547,0.34051514,0.8707886
1602698807148,274,0.05029297,0.34051514,0.86834717
1602698807148,275,0.05029297,0.34051514,0.86834717
1602698807151,276,0.051513672,0.33685303,0.86932373
1602698807151,277,0.048583984,0.34173584,0.8695679
1602698807152,278,0.051513672,0.33685303,0.86932373
1602698807154,279,0.048828125,0.34075928,0.8685913
1602698807154,280,0.048583984,0.33758545,0.86932373
1602698807155,281,0.048828125,0.34075928,0.8685913
1602698807157,282,0.049804688,0.34222412,0.8673706
1602698807159,283,0.049316406,0.33953857,0.8703003
1602698807160,284,0.049560547,0.34051514,0.8707886
1602698807161,285,0.05029297,0.34051514,0.86834717
1602698807162,286,0.051513672,0.33685303,0.86932373
1602698807164,287,0.048828125,0.34075928,0.8685913
1602698809443,288,0.048828125,0.33880615,0.87054443
1602698809455,289,0.048828125,0.33880615,0.87054443
1602698809455,290,0.049560547,0.338562,0.8685913
1602698809456,291,0.048828125,0.33880615,0.87054443
1602698809457,292,0.049560547,0.338562,0.8685913
1602698809458,293,0.049560547,0.338562,0.8685913
1602698809459,294,0.05102539,0.33709717,0.8695679
1602698809470,295,0.05102539,0.33709717,0.8695679
1602698809471,296,0.05102539,0.33709717,0.8695679
1602698809472,297,0.048583984,0.33831787,0.87127686
1602698809473,298,0.048583984,0.33831787,0.87127686
1602698809473,299,0.052001953,0.33807373,0.86932373
1602698809474,300,0.052001953,0.33807373,0.86932373
1602698809478,301,0.048583984,0.33831787,0.87127686
1602698809481,302,0.048583984,0.340271,0.8673706
1602698809481,303,0.048583984,0.340271,0.8673706
1602698809482,304,0.052001953,0.33807373,0.86932373
1602698809482,305,0.049560547,0.34075928,0.87054443
1602698809482,306,0.049560547,0.34075928,0.87054443
1602698809486,307,0.048583984,0.340271,0.8673706
1602698809486,308,0.048583984,0.340271,0.8678589
1602698809486,309,0.048583984,0.340271,0.8678589
1602698809487,310,0.049560547,0.34075928,0.87054443
1602698809494,311,0.048828125,0.33758545,0.869812
1602698809494,312,0.048828125,0.33758545,0.869812
1602698809495,313,0.048583984,0.340271,0.8678589
1602698809495,314,0.049804688,0.34100342,0.86834717
1602698809495,315,0.048828125,0.33758545,0.869812
1602698809496,316,0.049804688,0.34100342,0.86834717
1602698809496,317,0.049804688,0.34100342,0.86834717
1602698809497,318,0.050048828,0.33929443,0.87054443
1602698809499,319,0.050048828,0.33929443,0.87054443
1602698809505,320,0.049316406,0.34417725,0.8739624
1602698809505,321,0.050048828,0.33929443,0.87054443
1602698809506,322,0.04736328,0.33587646,0.8703003
1602698809506,323,0.049316406,0.34417725,0.8739624
1602698809506,324,0.05053711,0.34197998,0.8656616
1602698809517,325,0.049316406,0.34417725,0.8739624
1602698809518,326,0.04736328,0.33587646,0.8703003
1602698809518,327,0.04736328,0.33587646,0.8703003
1602698809518,328,0.05053711,0.34197998,0.8656616
1602698809520,329,0.05053711,0.34197998,0.8656616
1602698809520,330,0.048828125,0.34124756,0.8690796
1602698809520,331,0.048828125,0.34124756,0.8690796
1602698809520,332,0.048828125,0.34124756,0.8690796
1602698809521,333,0.049316406,0.3390503,0.8695679
1602698809521,334,0.049316406,0.3390503,0.8695679
1602698809521,335,0.049316406,0.3390503,0.8695679
1602698809521,336,0.048583984,0.340271,0.8644409
1602698809521,337,0.048583984,0.340271,0.8644409
1602698809525,338,0.045898438,0.34002686,0.8685913
1602698809525,339,0.048583984,0.340271,0.8644409
1602698809525,340,0.049560547,0.3397827,0.8678589
1602698809527,341,0.045898438,0.34002686,0.8685913
1602698809528,342,0.045898438,0.34002686,0.8685913
1602698809528,343,0.05029297,0.34075928,0.87054443
1602698809529,344,0.049560547,0.3397827,0.8678589
1602698809530,345,0.049316406,0.33758545,0.86712646
1602698809536,346,0.05029297,0.34075928,0.87054443
1602698809537,347,0.049560547,0.3397827,0.8678589
1602698809537,348,0.052001953,0.3361206,0.8690796
1602698809537,349,0.05029297,0.34075928,0.87054443
1602698809537,350,0.049316406,0.33758545,0.86712646
1602698809538,351,0.051757812,0.3414917,0.8673706
1602698809538,352,0.05126953,0.33709717,0.8690796
1602698809538,353,0.049316406,0.33758545,0.86712646
1602698809539,354,0.052001953,0.3361206,0.8690796
1602698809541,355,0.05126953,0.34173584,0.8654175
1602698809541,356,0.052001953,0.3361206,0.8690796
1602698809541,357,0.052001953,0.3397827,0.86834717
1602698809543,358,0.051757812,0.3414917,0.8673706
1602698809545,359,0.049560547,0.340271,0.8690796
1602698809545,360,0.051757812,0.3414917,0.8673706
1602698809545,361,0.05126953,0.33709717,0.8690796
1602698809548,362,0.052978516,0.338562,0.8685913
1602698809548,363,0.05126953,0.33709717,0.8690796
1602698809548,364,0.05126953,0.34173584,0.8654175
1602698809553,365,0.052978516,0.34197998,0.86761475
1602698809554,366,0.05126953,0.34173584,0.8654175
1602698809554,367,0.052001953,0.3397827,0.86834717
1602698809554,368,0.052001953,0.3397827,0.86834717
1602698809555,369,0.05444336,0.33831787,0.87176514
1602698809555,370,0.049560547,0.340271,0.8690796
1602698809555,371,0.049560547,0.340271,0.8690796
1602698809555,372,0.052978516,0.338562,0.8685913
1602698809556,373,0.05419922,0.34124756,0.8673706
1602698809558,374,0.052978516,0.338562,0.8685913
1602698809558,375,0.052978516,0.34197998,0.86761475
1602698809559,376,0.052246094,0.34222412,0.869812
1602698809561,377,0.052978516,0.34197998,0.86761475
1602698809562,378,0.05444336,0.33831787,0.87176514
1602698809562,379,0.05419922,0.34124756,0.8673706
1602698809563,380,0.05444336,0.33831787,0.87176514
1602698809564,381,0.052246094,0.34222412,0.869812
1602698809566,382,0.05419922,0.34124756,0.8673706
1602698809566,383,0.052246094,0.34222412,0.869812
1602698811962,384,0.051513672,0.3378296,0.8695679
1602698811963,385,0.051513672,0.3378296,0.8695679
1602698811963,386,0.051513672,0.3378296,0.8695679
1602698811964,387,0.051757812,0.34320068,0.8673706
1602698811964,388,0.051757812,0.34320068,0.8673706
1602698811965,389,0.05029297,0.33880615,0.86761475
1602698811966,390,0.05029297,0.33880615,0.86761475
1602698811966,391,0.049316406,0.34002686,0.8666382
1602698811967,392,0.049316406,0.34002686,0.8666382
1602698811967,393,0.052001953,0.33831787,0.869812
1602698811968,394,0.052001953,0.33831787,0.869812
1602698811968,395,0.051757812,0.34320068,0.8673706
1602698811969,396,0.05029297,0.33831787,0.8695679
1602698811969,397,0.05029297,0.33880615,0.86761475
1602698811969,398,0.05029297,0.33831787,0.8695679
1602698811970,399,0.049316406,0.34002686,0.8666382
1602698811970,400,0.052490234,0.34051514,0.86761475
1602698811972,401,0.052490234,0.34051514,0.86761475
1602698811979,402,0.051757812,0.33685303,0.8685913
1602698811980,403,0.052001953,0.33831787,0.869812
1602698811980,404,0.051757812,0.33685303,0.8685913
1602698811981,405,0.051757812,0.34222412,0.8685913
1602698811981,406,0.051757812,0.34222412,0.8685913
1602698811982,407,0.05029297,0.33831787,0.8695679
1602698811997,408,0.052734375,0.34344482,0.868103
1602698811998,409,0.052734375,0.34344482,0.868103
1602698811999,410,0.051513672,0.33953857,0.86883545
1602698811999,411,0.052490234,0.34051514,0.86761475
1602698811999,412,0.049560547,0.34222412,0.86639404
1602698812000,413,0.051757812,0.33685303,0.8685913
1602698812000,414,0.048583984,0.33831787,0.86712646
1602698812001,415,0.051757812,0.34222412,0.8685913
1602698812001,416,0.047851562,0.34295654,0.8678589
1602698812001,417,0.051513672,0.33953857,0.86883545
1602698812002,418,0.049560547,0.34222412,0.86639404
1602698812003,419,0.052734375,0.34344482,0.868103
1602698812003,420,0.047851562,0.33880615,0.869812
1602698812003,421,0.048583984,0.33831787,0.86712646
1602698812008,422,0.051513672,0.33953857,0.86883545
1602698812009,423,0.05126953,0.33953857,0.8661499
1602698812009,424,0.047851562,0.34295654,0.8678589
1602698812010,425,0.048828125,0.34466553,0.8722534
1602698812012,426,0.049560547,0.34222412,0.86639404
1602698812017,427,0.052246094,0.34320068,0.8656616
1602698812017,428,0.047851562,0.33880615,0.869812
1602698812018,429,0.050048828,0.34002686,0.8637085
1602698812020,430,0.05126953,0.33953857,0.8661499
1602698812024,431,0.049560547,0.34075928,0.8668823
1602698812025,432,0.048583984,0.33831787,0.86712646
1602698812025,433,0.048828125,0.34466553,0.8722534
1602698812025,434,0.048828125,0.34124756,0.87005615
1602698812028,435,0.047851562,0.34295654,0.8678589
1602698812029,436,0.052246094,0.34320068,0.8656616
1602698812029,437,0.053466797,0.3390503,0.8668823
1602698812031,438,0.047851562,0.33880615,0.869812
1602698812034,439,0.050048828,0.34002686,0.8637085
1602698812035,440,0.04711914,0.34051514,0.8690796
1602698812042,441,0.049560547,0.34075928,0.8668823
1602698812042,442,0.05053711,0.3390503,0.8656616
1602698812043,443,0.05126953,0.33953857,0.8661499
1602698812044,444,0.050048828,0.33880615,0.868103
1602698812045,445,0.048828125,0.34124756,0.87005615
1602698812045,446,0.048828125,0.34466553,0.8722534
1602698812048,447,0.052978516,0.34051514,0.8710327
1602698812048,448,0.052246094,0.34320068,0.8656616
1602698812048,449,0.053466797,0.3390503,0.8668823
1602698812050,450,0.05102539,0.34100342,0.86590576
1602698812059,451,0.049804688,0.3414917,0.86517334
1602698812059,452,0.050048828,0.34002686,0.8637085
1602698812060,453,0.04711914,0.34051514,0.8690796
1602698812060,454,0.049560547,0.34075928,0.8668823
1602698812061,455,0.05029297,0.33953857,0.86639404
1602698812061,456,0.05053711,0.3390503,0.8656616
1602698812061,457,0.048828125,0.34124756,0.87005615
1602698812065,458,0.05102539,0.338562,0.8678589
1602698812066,459,0.050048828,0.33880615,0.868103
1602698812066,460,0.053466797,0.3390503,0.8668823
1602698812066,461,0.052978516,0.34051514,0.8710327
1602698812070,462,0.04711914,0.34051514,0.8690796
1602698812070,463,0.052978516,0.34173584,0.86932373
1602698812071,464,0.05102539,0.34100342,0.86590576
1602698812071,465,0.051513672,0.33880615,0.8673706
1602698812071,466,0.049804688,0.3414917,0.86517334
1602698812076,467,0.05053711,0.3390503,0.8656616
1602698812077,468,0.05029297,0.33953857,0.86639404
1602698812077,469,0.05102539,0.338562,0.8678589
1602698812079,470,0.050048828,0.33880615,0.868103
1602698812080,471,0.052978516,0.34173584,0.86932373
1602698812080,472,0.052978516,0.34051514,0.8710327
1602698812080,473,0.051513672,0.33880615,0.8673706
1602698812082,474,0.05102539,0.34100342,0.86590576
1602698812084,475,0.049804688,0.3414917,0.86517334
1602698812085,476,0.05029297,0.33953857,0.86639404
1602698812087,477,0.05102539,0.338562,0.8678589
1602698812088,478,0.052978516,0.34173584,0.86932373
1602698812089,479,0.051513672,0.33880615,0.8673706
1602698814650,480,0.05419922,0.3427124,0.8678589
1602698814651,481,0.05419922,0.3427124,0.8678589
1602698814651,482,0.05102539,0.34075928,0.8666382
1602698814660,483,0.05419922,0.3427124,0.8678589
1602698814661,484,0.05102539,0.34075928,0.8666382
1602698814662,485,0.052490234,0.34539795,0.8644409
1602698814662,486,0.052490234,0.34539795,0.8644409
1602698814662,487,0.050048828,0.34344482,0.8685913
1602698814663,488,0.05102539,0.34075928,0.8666382
1602698814663,489,0.050048828,0.34344482,0.8685913
1602698814668,490,0.053466797,0.340271,0.86834717
1602698814668,491,0.052490234,0.34539795,0.8644409
1602698814669,492,0.053466797,0.340271,0.86834717
1602698814669,493,0.052978516,0.340271,0.86761475
1602698814672,494,0.050048828,0.34344482,0.8685913
1602698814673,495,0.052978516,0.340271,0.86761475
1602698814673,496,0.053955078,0.34002686,0.8673706
1602698814678,497,0.053466797,0.340271,0.86834717
1602698814678,498,0.053955078,0.34002686,0.8673706
1602698814678,499,0.052001953,0.34173584,0.8673706
1602698814679,500,0.052978516,0.340271,0.86761475
1602698814683,501,0.052001953,0.34173584,0.8673706
1602698814683,502,0.052001953,0.3373413,0.8695679
1602698814683,503,0.053955078,0.34002686,0.8673706
1602698814684,504,0.052001953,0.3373413,0.8695679
1602698814688,505,0.05493164,0.3414917,0.8656616
1602698814688,506,0.052001953,0.34173584,0.8673706
1602698814688,507,0.05493164,0.3414917,0.8656616
1602698814689,508,0.052978516,0.34100342,0.86712646
1602698814695,509,0.052001953,0.3373413,0.8695679
1602698814695,510,0.052978516,0.34100342,0.86712646
1602698814696,511,0.05444336,0.3397827,0.8695679
1602698814696,512,0.05444336,0.3397827,0.8695679
1602698814696,513,0.055419922,0.33807373,0.86761475
1602698814697,514,0.05493164,0.3414917,0.8656616
1602698814698,515,0.055419922,0.338562,0.868103
1602698814699,516,0.055419922,0.33807373,0.86761475
1602698814703,517,0.055419922,0.338562,0.868103
1602698814703,518,0.052978516,0.34100342,0.86712646
1602698814704,519,0.05810547,0.3361206,0.869812
1602698814704,520,0.05444336,0.3397827,0.8695679
1602698814705,521,0.05810547,0.3361206,0.869812
1602698814707,522,0.055419922,0.33807373,0.86761475
1602698814711,523,0.056396484,0.33587646,0.8690796
1602698814711,524,0.056396484,0.33587646,0.8690796
1602698814711,525,0.055419922,0.338562,0.868103
1602698814712,526,0.057861328,0.33709717,0.8685913
1602698814713,527,0.057861328,0.33709717,0.8685913
1602698814715,528,0.057128906,0.33441162,0.8690796
1602698814721,529,0.057128906,0.33441162,0.8690796
1602698814721,530,0.05883789,0.33880615,0.86834717
1602698814722,531,0.05883789,0.33880615,0.86834717
1602698814722,532,0.056884766,0.3373413,0.8707886
1602698814725,533,0.05810547,0.3361206,0.869812
1602698814726,534,0.056884766,0.3373413,0.8707886
1602698814726,535,0.056396484,0.33587646,0.8690796
1602698814730,536,0.057617188,0.33441162,0.87127686
1602698814730,537,0.057617188,0.33441162,0.87127686
1602698814731,538,0.060058594,0.34124756,0.86761475
1602698814734,539,0.057861328,0.33709717,0.8685913
1602698814735,540,0.060058594,0.34124756,0.86761475
1602698814736,541,0.057128906,0.33441162,0.8690796
1602698814737,542,0.05908203,0.33807373,0.871521
1602698814741,543,0.05883789,0.33880615,0.86834717
1602698814741,544,0.05908203,0.33807373,0.871521
1602698814741,545,0.057373047,0.33807373,0.86883545
1602698814741,546,0.056884766,0.3373413,0.8707886
1602698814743,547,0.057373047,0.33807373,0.86883545
1602698814747,548,0.057617188,0.33441162,0.87127686
1602698814747,549,0.056396484,0.3348999,0.86932373
1602698814748,550,0.056396484,0.3348999,0.86932373
1602698814748,551,0.060058594,0.34124756,0.86761475
1602698814749,552,0.05859375,0.33636475,0.86639404
1602698814751,553,0.05908203,0.33807373,0.871521
1602698814752,554,0.05859375,0.33636475,0.86639404
1602698814752,555,0.057373047,0.33807373,0.86883545
1602698814753,556,0.057861328,0.33538818,0.8703003
1602698814755,557,0.056396484,0.3348999,0.86932373
1602698814756,558,0.057861328,0.33709717,0.86932373
1602698814756,559,0.057861328,0.33538818,0.8703003
1602698814757,560,0.057861328,0.3397827,0.8695679
1602698814758,561,0.057861328,0.33709717,0.86932373
1602698814761,562,0.056396484,0.33758545,0.86883545
1602698814762,563,0.05859375,0.33636475,0.86639404
1602698814762,564,0.057861328,0.3397827,0.8695679
1602698814762,565,0.056396484,0.33758545,0.86883545
1602698814764,566,0.057861328,0.33538818,0.8703003
1602698814765,567,0.056152344,0.3366089,0.8673706
1602698814765,568,0.056152344,0.3366089,0.8673706
1602698814765,569,0.057861328,0.33709717,0.86932373
1602698814766,570,0.057373047,0.33636475,0.86883545
1602698814769,571,0.057861328,0.3397827,0.8695679
1602698814769,572,0.057373047,0.33636475,0.86883545
1602698814770,573,0.056396484,0.33758545,0.86883545
1602698814772,574,0.056152344,0.3366089,0.8673706
1602698814773,575,0.057373047,0.33636475,0.86883545
1602698817046,576,0.057373047,0.33880615,0.86761475
1602698817054,577,0.057373047,0.33880615,0.86761475
1602698817054,578,0.057373047,0.33880615,0.86761475
1602698817055,579,0.05883789,0.33709717,0.8690796
1602698817056,580,0.05883789,0.33709717,0.8690796
1602698817057,581,0.05883789,0.33709717,0.8690796
1602698817078,582,0.05908203,0.338562,0.8707886
1602698817079,583,0.05908203,0.338562,0.8707886
1602698817080,584,0.05810547,0.33563232,0.8685913
1602698817081,585,0.05810547,0.33563232,0.8685913
1602698817081,586,0.056640625,0.338562,0.8678589
1602698817082,587,0.056640625,0.338562,0.8678589
1602698817083,588,0.057617188,0.34002686,0.8673706
1602698817085,589,0.05908203,0.338562,0.8707886
1602698817085,590,0.05810547,0.33563232,0.8685913
1602698817085,591,0.057617188,0.34002686,0.8673706
1602698817086,592,0.056640625,0.338562,0.8678589
1602698817086,593,0.055664062,0.3366089,0.8703003
1602698817087,594,0.055664062,0.3366089,0.8703003
1602698817087,595,0.057617188,0.34002686,0.8673706
1602698817088,596,0.05517578,0.3373413,0.87127686
1602698817088,597,0.05517578,0.3373413,0.87127686
1602698817092,598,0.055664062,0.3366089,0.8703003
1602698817092,599,0.05810547,0.33807373,0.8666382
1602698817092,600,0.05810547,0.33807373,0.8666382
1602698817100,601,0.05517578,0.3373413,0.87127686
1602698817101,602,0.056396484,0.33685303,0.8695679
1602698817102,603,0.05810547,0.33807373,0.8666382
1602698817102,604,0.056396484,0.33685303,0.8695679
1602698817103,605,0.05810547,0.33685303,0.86590576
1602698817103,606,0.056396484,0.33685303,0.8695679
1602698817104,607,0.05810547,0.33685303,0.86590576
1602698817104,608,0.05810547,0.33685303,0.86590576
1602698817108,609,0.05517578,0.3397827,0.8685913
1602698817108,610,0.05517578,0.3397827,0.8685913
1602698817109,611,0.05517578,0.3397827,0.8685913
1602698817109,612,0.055419922,0.3378296,0.86712646
1602698817112,613,0.055419922,0.3378296,0.86712646
1602698817113,614,0.055419922,0.3378296,0.86712646
1602698817113,615,0.056152344,0.33880615,0.8656616
1602698817114,616,0.056152344,0.33880615,0.8656616
1602698817114,617,0.056152344,0.33880615,0.8656616
1602698817114,618,0.057617188,0.33636475,0.8673706
1602698817116,619,0.057617188,0.33636475,0.8673706
1602698817120,620,0.055664062,0.338562,0.86883545
1602698817120,621,0.057617188,0.33636475,0.8673706
1602698817121,622,0.055664062,0.338562,0.86883545
1602698817121,623,0.055664062,0.338562,0.86883545
1602698817121,624,0.056884766,0.338562,0.868103
1602698817121,625,0.056884766,0.338562,0.868103
1602698817124,626,0.056152344,0.3373413,0.8666382
1602698817125,627,0.056884766,0.338562,0.868103
1602698817125,628,0.056152344,0.3373413,0.8666382
1602698817125,629,0.055419922,0.3378296,0.87005615
1602698817128,630,0.056152344,0.3373413,0.8666382
1602698817129,631,0.055419922,0.3378296,0.87005615
1602698817129,632,0.055419922,0.3378296,0.87005615
1602698817129,633,0.053466797,0.33709717,0.868103
1602698817132,634,0.053466797,0.33709717,0.868103
1602698817132,635,0.053466797,0.33709717,0.868103
1602698817132,636,0.05517578,0.34124756,0.8656616
1602698817136,637,0.05517578,0.34124756,0.8656616
1602698817136,638,0.05517578,0.34124756,0.8656616
1602698817137,639,0.05444336,0.338562,0.8668823
1602698817138,640,0.05444336,0.338562,0.8668823
1602698817138,641,0.05444336,0.338562,0.8668823
1602698817141,642,0.0546875,0.338562,0.8666382
1602698817141,643,0.0546875,0.338562,0.8666382
1602698817141,644,0.0546875,0.338562,0.8666382
1602698817141,645,0.052490234,0.3373413,0.87054443
1602698817143,646,0.052490234,0.3373413,0.87054443
1602698817145,647,0.05419922,0.33880615,0.8695679
1602698817146,648,0.052490234,0.3373413,0.87054443
1602698817146,649,0.053955078,0.3414917,0.8690796
1602698817146,650,0.05419922,0.33880615,0.8695679
1602698817148,651,0.05419922,0.33880615,0.8695679
1602698817149,652,0.053955078,0.3414917,0.8690796
1602698817150,653,0.053955078,0.3414917,0.8690796
1602698817151,654,0.05419922,0.33538818,0.8668823
1602698817153,655,0.05419922,0.33538818,0.8668823
1602698817154,656,0.05419922,0.33538818,0.8668823
1602698817154,657,0.055664062,0.3373413,0.86932373
1602698817158,658,0.055664062,0.3373413,0.86932373
1602698817158,659,0.055664062,0.3373413,0.86932373
1602698817158,660,0.055908203,0.338562,0.8690796
1602698817159,661,0.055908203,0.338562,0.8690796
1602698817159,662,0.055908203,0.338562,0.8690796
1602698817159,663,0.055419922,0.3397827,0.87249756
1602698817161,664,0.055419922,0.3397827,0.87249756
1602698817161,665,0.055419922,0.3397827,0.87249756
1602698817161,666,0.052734375,0.34124756,0.871521
1602698817163,667,0.052734375,0.34124756,0.871521
1602698817164,668,0.05419922,0.3348999,0.86883545
1602698817165,669,0.05419922,0.3348999,0.86883545
1602698817167,670,0.052734375,0.34124756,0.871521
1602698817168,671,0.05419922,0.3348999,0.86883545
1602698819649,672,0.055419922,0.33831787,0.87054443
1602698819654,673,0.055419922,0.33831787,0.87054443
1602698819655,674,0.055419922,0.33831787,0.87054443
1602698819656,675,0.05810547,0.3366089,0.86761475
1602698819661,676,0.05810547,0.3366089,0.86761475
1602698819661,677,0.05810547,0.3366089,0.86761475
1602698819662,678,0.056640625,0.3361206,0.8656616
1602698819664,679,0.056640625,0.3361206,0.8656616
1602698819668,680,0.056640625,0.3361206,0.8656616
1602698819668,681,0.057861328,0.33587646,0.869812
1602698819668,682,0.057861328,0.33587646,0.869812
1602698819670,683,0.059326172,0.33709717,0.86932373
1602698819678,684,0.059326172,0.33709717,0.86932373
1602698819678,685,0.057861328,0.33587646,0.869812
1602698819679,686,0.05493164,0.338562,0.8690796
1602698819679,687,0.059326172,0.33709717,0.86932373
1602698819679,688,0.05493164,0.338562,0.8690796
1602698819680,689,0.05908203,0.3373413,0.868103
1602698819680,690,0.05908203,0.3373413,0.868103
1602698819681,691,0.059570312,0.3397827,0.87054443
1602698819681,692,0.05493164,0.338562,0.8690796
1602698819683,693,0.059570312,0.3397827,0.87054443
1602698819686,694,0.05908203,0.3373413,0.868103
1602698819686,695,0.059326172,0.3361206,0.8695679
1602698819687,696,0.059326172,0.3361206,0.8695679
1602698819690,697,0.059570312,0.3397827,0.87054443
1602698819690,698,0.05517578,0.34173584,0.8678589
1602698819691,699,0.059326172,0.3361206,0.8695679
1602698819694,700,0.05517578,0.34173584,0.8678589
1602698819695,701,0.05883789,0.3366089,0.8654175
1602698819695,702,0.05517578,0.34173584,0.8678589
1602698819701,703,0.05883789,0.3366089,0.8654175
1602698819702,704,0.057373047,0.3366089,0.86639404
1602698819703,705,0.05883789,0.3366089,0.8654175
1602698819703,706,0.057373047,0.3373413,0.86590576
1602698819703,707,0.057373047,0.3366089,0.86639404
1602698819704,708,0.057128906,0.3390503,0.8685913
1602698819704,709,0.057373047,0.3366089,0.86639404
1602698819705,710,0.057373047,0.3373413,0.86590576
1602698819707,711,0.057373047,0.3373413,0.86590576
1602698819709,712,0.057128906,0.3390503,0.8685913
1602698819712,713,0.057128906,0.3390503,0.8685913
1602698819713,714,0.057373047,0.3366089,0.8695679
1602698819713,715,0.057373047,0.3366089,0.8695679
1602698819713,716,0.05517578,0.33587646,0.87005615
1602698819719,717,0.057373047,0.3366089,0.8695679
1602698819719,718,0.05517578,0.33587646,0.87005615
1602698819720,719,0.055419922,0.33929443,0.8661499
1602698819720,720,0.055419922,0.33929443,0.8661499
1602698819720,721,0.056884766,0.3378296,0.8690796
1602698819720,722,0.05517578,0.33587646,0.87005615
1602698819722,723,0.056884766,0.3378296,0.8690796
1602698819726,724,0.055419922,0.33929443,0.8661499
1602698819727,725,0.05493164,0.3366089,0.8678589
1602698819727,726,0.05493164,0.3366089,0.8678589
1602698819728,727,0.056884766,0.3378296,0.8690796
1602698819736,728,0.055908203,0.33758545,0.868103
1602698819736,729,0.055908203,0.33758545,0.868103
1602698819736,730,0.05493164,0.3366089,0.8678589
1602698819737,731,0.0546875,0.33709717,0.87054443
1602698819737,732,0.0546875,0.33709717,0.87054443
1602698819738,733,0.055419922,0.3390503,0.8654175
1602698819738,734,0.055419922,0.3390503,0.8654175
1602698819738,735,0.055908203,0.33758545,0.868103
1602698819741,736,0.056396484,0.3348999,0.8678589
1602698819741,737,0.056396484,0.3348999,0.8678589
1602698819742,738,0.0546875,0.33709717,0.87054443
1602698819747,739,0.055419922,0.33416748,0.87005615
1602698819748,740,0.055419922,0.33416748,0.87005615
1602698819748,741,0.055419922,0.3390503,0.8654175
1602698819749,742,0.055908203,0.33441162,0.86761475
1602698819749,743,0.056396484,0.3348999,0.8678589
1602698819749,744,0.055908203,0.33441162,0.86761475
1602698819753,745,0.053955078,0.33758545,0.8710327
1602698819754,746,0.055419922,0.33416748,0.87005615
1602698819754,747,0.053955078,0.33758545,0.8710327
1602698819755,748,0.055908203,0.33441162,0.86761475
1602698819756,749,0.056152344,0.3336792,0.86932373
1602698819759,750,0.053955078,0.33758545,0.8710327
1602698819760,751,0.056152344,0.3336792,0.86932373
1602698819760,752,0.05493164,0.33685303,0.8703003
1602698819763,753,0.056152344,0.3336792,0.86932373
1602698819764,754,0.05493164,0.33685303,0.8703003
1602698819764,755,0.05419922,0.33319092,0.868103
1602698819765,756,0.05493164,0.33685303,0.8703003
1602698819767,757,0.052490234,0.33294678,0.8695679
1602698819768,758,0.05419922,0.33319092,0.868103
1602698819771,759,0.052978516,0.33636475,0.869812
1602698819772,760,0.05419922,0.33319092,0.868103
1602698819772,761,0.052490234,0.33294678,0.8695679
1602698819774,762,0.05419922,0.33514404,0.8722534
1602698819777,763,0.052978516,0.33636475,0.869812
1602698819778,764,0.052490234,0.33294678,0.8695679
1602698819779,765,0.05419922,0.33514404,0.8722534
1602698819783,766,0.052978516,0.33636475,0.869812
1602698819784,767,0.05419922,0.33514404,0.8722534
1602698822143,768,0.05517578,0.3378296,0.87127686
1602698822155,769,0.053955078,0.33538818,0.8695679
1602698822156,770,0.05444336,0.33685303,0.8656616
1602698822157,771,0.05517578,0.3378296,0.87127686
1602698822158,772,0.05517578,0.3378296,0.87127686
1602698822158,773,0.053955078,0.33538818,0.8695679
1602698822158,774,0.057373047,0.33294678,0.8710327
1602698822160,775,0.053955078,0.33538818,0.8695679
1602698822162,776,0.052490234,0.33538818,0.8720093
1602698822171,777,0.053955078,0.33538818,0.8666382
1602698822172,778,0.05444336,0.33685303,0.8656616
1602698822172,779,0.05444336,0.33685303,0.8656616
1602698822173,780,0.052978516,0.3361206,0.8678589
1602698822173,781,0.057373047,0.33294678,0.8710327
1602698822174,782,0.057373047,0.33294678,0.8710327
1602698822175,783,0.052490234,0.33538818,0.8720093
1602698822175,784,0.05517578,0.33709717,0.8710327
1602698822176,785,0.052490234,0.33538818,0.8720093
1602698822183,786,0.053955078,0.33538818,0.8666382
1602698822186,787,0.05444336,0.33880615,0.86883545
1602698822186,788,0.053955078,0.33538818,0.8666382
1602698822188,789,0.052978516,0.3361206,0.8678589
1602698822188,790,0.053222656,0.33514404,0.87054443
1602698822189,791,0.052978516,0.3361206,0.8678589
1602698822190,792,0.05517578,0.33709717,0.8710327
1602698822190,793,0.052734375,0.33465576,0.87005615
1602698822191,794,0.05517578,0.33709717,0.8710327
1602698822199,795,0.052734375,0.33831787,0.869812
1602698822200,796,0.05444336,0.33880615,0.86883545
1602698822200,797,0.05444336,0.33880615,0.86883545
1602698822200,798,0.053222656,0.33514404,0.87054443
1602698822200,799,0.052734375,0.33465576,0.87005615
1602698822200,800,0.053222656,0.33514404,0.87054443
1602698822204,801,0.052734375,0.33831787,0.869812
1602698822204,802,0.051757812,0.3361206,0.8673706
1602698822204,803,0.052734375,0.33465576,0.87005615
1602698822206,804,0.051757812,0.3361206,0.8673706
1602698822206,805,0.053955078,0.3378296,0.8673706
1602698822227,806,0.053955078,0.3378296,0.8673706
1602698822228,807,0.052734375,0.33831787,0.869812
1602698822228,808,0.05444336,0.33685303,0.86761475
1602698822228,809,0.051757812,0.3361206,0.8673706
1602698822229,810,0.05444336,0.33685303,0.86761475
1602698822229,811,0.053955078,0.3378296,0.8673706
1602698822229,812,0.055908203,0.3373413,0.8695679
1602698822230,813,0.055908203,0.3373413,0.8695679
1602698822230,814,0.053955078,0.3378296,0.8690796
1602698822231,815,0.05444336,0.33685303,0.86761475
1602698822239,816,0.053710938,0.33441162,0.8673706
1602698822239,817,0.055908203,0.3373413,0.8695679
1602698822240,818,0.053955078,0.3378296,0.8690796
1602698822240,819,0.053466797,0.3366089,0.868103
1602698822240,820,0.053710938,0.33441162,0.8673706
1602698822240,821,0.053955078,0.3378296,0.8690796
1602698822240,822,0.05493164,0.3348999,0.871521
1602698822240,823,0.053710938,0.33441162,0.8673706
1602698822240,824,0.053466797,0.3366089,0.868103
1602698822240,825,0.055664062,0.33441162,0.8710327
1602698822240,826,0.05859375,0.33148193,0.8661499
1602698822240,827,0.057128906,0.33465576,0.868103
1602698822240,828,0.053466797,0.3366089,0.868103
1602698822240,829,0.05859375,0.33343506,0.868103
1602698822240,830,0.05493164,0.3348999,0.871521
1602698822240,831,0.05493164,0.3348999,0.871521
1602698822241,832,0.056152344,0.3366089,0.86590576
1602698822241,833,0.055664062,0.33441162,0.8710327
1602698822243,834,0.05908203,0.33441162,0.86761475
1602698822243,835,0.055664062,0.33441162,0.8710327
1602698822244,836,0.05859375,0.33148193,0.8661499
1602698822244,837,0.05859375,0.33148193,0.8661499
1602698822245,838,0.057373047,0.33441162,0.8722534
1602698822245,839,0.057128906,0.33465576,0.868103
1602698822245,840,0.055908203,0.3324585,0.8707886
1602698822245,841,0.057128906,0.33465576,0.868103
1602698822246,842,0.05859375,0.33343506,0.868103
1602698822250,843,0.05859375,0.33343506,0.868103
1602698822250,844,0.056884766,0.33563232,0.8710327
1602698822250,845,0.056152344,0.3366089,0.86590576
1602698822251,846,0.056152344,0.3366089,0.86590576
1602698822252,847,0.05908203,0.33441162,0.86761475
1602698822253,848,0.05908203,0.33441162,0.86761475
1602698822256,849,0.057373047,0.33441162,0.8722534
1602698822256,850,0.05834961,0.33221436,0.8720093
1602698822257,851,0.057373047,0.33441162,0.8722534
1602698822257,852,0.055908203,0.3324585,0.8707886
1602698822258,853,0.05883789,0.33392334,0.87054443
1602698822259,854,0.056884766,0.33563232,0.8710327
1602698822260,855,0.055908203,0.3324585,0.8707886
1602698822261,856,0.05834961,0.33221436,0.8720093
1602698822263,857,0.056884766,0.33563232,0.8710327
1602698822264,858,0.05883789,0.33392334,0.87054443
1602698822265,859,0.05834961,0.33221436,0.8720093
1602698822267,860,0.053955078,0.3324585,0.86932373
1602698822267,861,0.053955078,0.3324585,0.86932373
1602698822268,862,0.05883789,0.33392334,0.87054443
1602698822270,863,0.053955078,0.3324585,0.86932373
1602698824643,864,0.057617188,0.3336792,0.86761475
1602698824648,865,0.057617188,0.3336792,0.86761475
1602698824649,866,0.057617188,0.3336792,0.86761475
1602698824649,867,0.056884766,0.33563232,0.8673706
1602698824649,868,0.056884766,0.33563232,0.8673706
1602698824655,869,0.056884766,0.33563232,0.8673706
1602698824656,870,0.055664062,0.33392334,0.87005615
1602698824656,871,0.055664062,0.33392334,0.87005615
1602698824657,872,0.055908203,0.33465576,0.8722534
1602698824658,873,0.055664062,0.33392334,0.87005615
1602698824658,874,0.055908203,0.33465576,0.8722534
1602698824661,875,0.055908203,0.33221436,0.8685913
1602698824666,876,0.055908203,0.33221436,0.8685913
1602698824666,877,0.055908203,0.33416748,0.87005615
1602698824666,878,0.055908203,0.33465576,0.8722534
1602698824666,879,0.056396484,0.3324585,0.87127686
1602698824670,880,0.055908203,0.33221436,0.8685913
1602698824670,881,0.055908203,0.33416748,0.87005615
1602698824671,882,0.052978516,0.33514404,0.87005615
1602698824671,883,0.056396484,0.3324585,0.87127686
1602698824676,884,0.055908203,0.33416748,0.87005615
1602698824676,885,0.055908203,0.33636475,0.8695679
1602698824676,886,0.052978516,0.33514404,0.87005615
1602698824676,887,0.056396484,0.3324585,0.87127686
1602698824678,888,0.053222656,0.3348999,0.8720093
1602698824679,889,0.052978516,0.33514404,0.87005615
1602698824681,890,0.05517578,0.3348999,0.8722534
1602698824684,891,0.055908203,0.33636475,0.8695679
1602698824684,892,0.055908203,0.33636475,0.8695679
1602698824684,893,0.0546875,0.33538818,0.8710327
1602698824687,894,0.053222656,0.3348999,0.8720093
1602698824687,895,0.053222656,0.3348999,0.8720093
1602698824687,896,0.053222656,0.33514404,0.87176514
1602698824690,897,0.05517578,0.3348999,0.8722534
1602698824690,898,0.05517578,0.3348999,0.8722534
1602698824690,899,0.053710938,0.33465576,0.87005615
1602698824691,900,0.0546875,0.33538818,0.8710327
1602698824692,901,0.053466797,0.3366089,0.87249756
1602698824693,902,0.053222656,0.33514404,0.87176514
1602698824698,903,0.053710938,0.33465576,0.87005615
1602698824699,904,0.0546875,0.33538818,0.8710327
1602698824699,905,0.05493164,0.3312378,0.86517334
1602698824699,906,0.053222656,0.33514404,0.87176514
1602698824700,907,0.05444336,0.33319092,0.87054443
1602698824700,908,0.053466797,0.3366089,0.87249756
1602698824700,909,0.053955078,0.33538818,0.86932373
1602698824700,910,0.053710938,0.33465576,0.87005615
1602698824702,911,0.05493164,0.3312378,0.86517334
1602698824704,912,0.053466797,0.3366089,0.87249756
1602698824705,913,0.052978516,0.33538818,0.87176514
1602698824705,914,0.05444336,0.33319092,0.87054443
1602698824705,915,0.05493164,0.3312378,0.86517334
1602698824706,916,0.053955078,0.33416748,0.8685913
1602698824707,917,0.05444336,0.33319092,0.87054443
1602698824709,918,0.053466797,0.33441162,0.87127686
1602698824709,919,0.053955078,0.33538818,0.86932373
1602698824710,920,0.053955078,0.33538818,0.86932373
1602698824714,921,0.053222656,0.33465576,0.871521
1602698824715,922,0.052978516,0.33538818,0.87176514
1602698824715,923,0.052978516,0.33538818,0.87176514
1602698824715,924,0.053955078,0.33416748,0.8685913
1602698824715,925,0.052734375,0.33441162,0.8703003
1602698824716,926,0.053466797,0.33441162,0.87127686
1602698824718,927,0.053955078,0.33416748,0.8685913
1602698824718,928,0.05419922,0.33587646,0.8703003
1602698824718,929,0.053222656,0.33465576,0.871521
1602698824721,930,0.053466797,0.33441162,0.87127686
1602698824721,931,0.053955078,0.33221436,0.8685913
1602698824721,932,0.052734375,0.33441162,0.8703003
1602698824722,933,0.053222656,0.33465576,0.871521
1602698824724,934,0.052734375,0.33441162,0.8703003
1602698824728,935,0.05419922,0.33587646,0.8703003
1602698824729,936,0.051757812,0.3348999,0.8722534
1602698824732,937,0.05419922,0.33587646,0.8703003
1602698824732,938,0.053955078,0.33221436,0.8685913
1602698824732,939,0.055419922,0.3348999,0.87176514
1602698824732,940,0.051757812,0.3348999,0.8722534
1602698824732,941,0.053955078,0.33221436,0.8685913
1602698824737,942,0.053466797,0.33343506,0.86834717
1602698824737,943,0.055419922,0.3348999,0.87176514
1602698824738,944,0.051757812,0.3348999,0.8722534
1602698824738,945,0.053466797,0.33343506,0.86834717
1602698824738,946,0.055419922,0.3348999,0.87176514
1602698824738,947,0.055419922,0.3366089,0.86834717
1602698824738,948,0.053466797,0.33343506,0.86834717
1602698824738,949,0.055419922,0.3366089,0.86834717
1602698824739,950,0.05444336,0.33587646,0.8707886
1602698824739,951,0.055419922,0.3366089,0.86834717
1602698824740,952,0.05444336,0.33587646,0.8707886
1602698824741,953,0.05444336,0.33587646,0.8707886
1602698824742,954,0.057861328,0.33587646,0.8673706
1602698824744,955,0.057861328,0.33587646,0.8673706
1602698824744,956,0.057861328,0.33587646,0.8673706
1602698824744,957,0.05493164,0.33343506,0.8720093
1602698824745,958,0.05493164,0.33343506,0.8720093
1602698824748,959,0.05493164,0.33343506,0.8720093
1602698827345,960,0.056152344,0.33587646,0.86932373
1602698827346,961,0.056152344,0.33587646,0.86932373
1602698827351,962,0.056152344,0.33587646,0.86932373
1602698827352,963,0.056884766,0.33221436,0.8678589
1602698827353,964,0.056884766,0.33221436,0.8678589
1602698827359,965,0.05834961,0.33636475,0.8678589
1602698827361,966,0.056884766,0.33221436,0.8678589
1602698827361,967,0.05834961,0.33636475,0.8678589
1602698827362,968,0.056396484,0.33514404,0.8720093
1602698827382,969,0.056396484,0.33514404,0.8720093
1602698827382,970,0.05834961,0.33636475,0.8678589
1602698827382,971,0.06201172,0.32904053,0.871521
1602698827383,972,0.06201172,0.32904053,0.871521
1602698827384,973,0.06201172,0.3270874,0.87420654
1602698827384,974,0.056396484,0.33514404,0.8720093
1602698827385,975,0.061279297,0.32806396,0.87323
1602698827385,976,0.06201172,0.3270874,0.87420654
1602698827386,977,0.06201172,0.32904053,0.871521
1602698827386,978,0.061279297,0.32806396,0.87323
1602698827386,979,0.060302734,0.32659912,0.8734741
1602698827387,980,0.060302734,0.32659912,0.8734741
1602698827387,981,0.06201172,0.3270874,0.87420654
1602698827388,982,0.05883789,0.32757568,0.87176514
1602698827388,983,0.05883789,0.32757568,0.87176514
1602698827389,984,0.061279297,0.32806396,0.87323
1602698827391,985,0.060058594,0.3287964,0.8727417
1602698827395,986,0.060302734,0.32659912,0.8734741
1602698827395,987,0.060058594,0.3287964,0.8727417
1602698827396,988,0.060058594,0.32562256,0.87249756
1602698827396,989,0.05883789,0.32757568,0.87176514
1602698827396,990,0.060058594,0.32562256,0.87249756
1602698827401,991,0.05810547,0.32928467,0.87371826
1602698827402,992,0.060058594,0.3287964,0.8727417
1602698827403,993,0.059326172,0.32659912,0.8710327
1602698827403,994,0.060058594,0.32562256,0.87249756
1602698827404,995,0.05810547,0.32928467,0.87371826
1602698827408,996,0.057617188,0.32806396,0.87127686
1602698827418,997,0.059326172,0.32659912,0.8710327
1602698827419,998,0.05810547,0.32928467,0.87371826
1602698827419,999,0.059326172,0.32659912,0.8710327
1602698827421,1000,0.057617188,0.32806396,0.87127686
1602698827421,1001,0.0625,0.3287964,0.8744507
1602698827421,1002,0.0625,0.3287964,0.8744507
1602698827422,1003,0.057617188,0.32806396,0.87127686
1602698827423,1004,0.057617188,0.32684326,0.8759155
1602698827427,1005,0.0625,0.3287964,0.8744507
1602698827427,1006,0.057617188,0.32684326,0.8759155
1602698827428,1007,0.060058594,0.32684326,0.8734741
1602698827428,1008,0.057617188,0.32684326,0.8759155
1602698827428,1009,0.056884766,0.3270874,0.8722534
1602698827429,1010,0.060058594,0.32684326,0.8734741
1602698827430,1011,0.060058594,0.32684326,0.8734741
1602698827433,1012,0.056884766,0.3270874,0.8722534
1602698827433,1013,0.057617188,0.33050537,0.87420654
1602698827433,1014,0.056884766,0.3270874,0.8722534
1602698827434,1015,0.057617188,0.33050537,0.87420654
1602698827436,1016,0.059570312,0.32757568,0.87323
1602698827436,1017,0.057617188,0.33050537,0.87420654
1602698827436,1018,0.059570312,0.32757568,0.87323
1602698827438,1019,0.057617188,0.32757568,0.8756714
1602698827442,1020,0.057617188,0.32757568,0.8756714
1602698827442,1021,0.059570312,0.32757568,0.87323
1602698827442,1022,0.060058594,0.324646,0.8756714
1602698827443,1023,0.060058594,0.324646,0.8756714
1602698827443,1024,0.05859375,0.32757568,0.8744507
1602698827443,1025,0.05859375,0.32757568,0.8744507
1602698827443,1026,0.057617188,0.32757568,0.8756714
1602698827445,1027,0.057128906,0.32904053,0.8744507
1602698827445,1028,0.057128906,0.32904053,0.8744507
1602698827450,1029,0.060058594,0.324646,0.8756714
1602698827450,1030,0.056884766,0.32855225,0.8744507
1602698827451,1031,0.056884766,0.32855225,0.8744507
1602698827451,1032,0.055908203,0.32562256,0.8727417
1602698827451,1033,0.055908203,0.32562256,0.8727417
1602698827451,1034,0.05859375,0.32757568,0.8744507
1602698827452,1035,0.056884766,0.32684326,0.87298584
1602698827452,1036,0.057128906,0.32904053,0.8744507
1602698827453,1037,0.056884766,0.32684326,0.87298584
1602698827456,1038,0.056884766,0.32855225,0.8744507
1602698827456,1039,0.05493164,0.32611084,0.87420654
1602698827456,1040,0.05493164,0.32611084,0.87420654
1602698827460,1041,0.055908203,0.32562256,0.8727417
1602698827460,1042,0.05908203,0.3258667,0.87054443
1602698827460,1043,0.05908203,0.3258667,0.87054443
1602698827460,1044,0.057373047,0.32635498,0.87323
1602698827461,1045,0.056884766,0.32684326,0.87298584
1602698827462,1046,0.057373047,0.32635498,0.87323
1602698827464,1047,0.05493164,0.32611084,0.87420654
1602698827464,1048,0.057617188,0.32757568,0.8722534
1602698827464,1049,0.057617188,0.32757568,0.8722534
1602698827466,1050,0.05908203,0.3258667,0.87054443
1602698827467,1051,0.05810547,0.32611084,0.8756714
1602698827467,1052,0.05810547,0.32611084,0.8756714
1602698827468,1053,0.057373047,0.32635498,0.87323
1602698827469,1054,0.057617188,0.32757568,0.8722534
1602698827472,1055,0.05810547,0.32611084,0.8756714
1602698829750,1056,0.056884766,0.3287964,0.87371826
1602698829751,1057,0.056884766,0.3287964,0.87371826
1602698829751,1058,0.056884766,0.3287964,0.87371826
1602698829751,1059,0.05908203,0.3287964,0.87127686
1602698829756,1060,0.05908203,0.3287964,0.87127686
1602698829759,1061,0.056396484,0.32684326,0.8768921
1602698829762,1062,0.056396484,0.32684326,0.8768921
1602698829767,1063,0.056640625,0.324646,0.8739624
1602698829767,1064,0.05908203,0.3287964,0.87127686
1602698829768,1065,0.056640625,0.324646,0.8739624
1602698829774,1066,0.055419922,0.3287964,0.87371826
1602698829777,1067,0.056396484,0.32684326,0.8768921
1602698829780,1068,0.055419922,0.3287964,0.87371826
1602698829780,1069,0.05810547,0.32196045,0.8739624
1602698829786,1070,0.056640625,0.324646,0.8739624
1602698829787,1071,0.05810547,0.32196045,0.8739624
1602698829788,1072,0.055908203,0.32611084,0.8722534
1602698829788,1073,0.055419922,0.3287964,0.87371826
1602698829794,1074,0.055908203,0.32611084,0.8722534
1602698829794,1075,0.057861328,0.3241577,0.87127686
1602698829794,1076,0.05810547,0.32196045,0.8739624
1602698829797,1077,0.057861328,0.3241577,0.87127686
1602698829802,1078,0.056396484,0.324646,0.87298584
1602698829803,1079,0.056396484,0.324646,0.87298584
1602698829803,1080,0.055908203,0.32611084,0.8722534
1602698829810,1081,0.05810547,0.32562256,0.87371826
1602698829811,1082,0.057861328,0.3241577,0.87127686
1602698829811,1083,0.05810547,0.32562256,0.87371826
1602698829811,1084,0.056396484,0.324646,0.87298584
1602698829811,1085,0.057617188,0.3258667,0.8764038
1602698829817,1086,0.057617188,0.3258667,0.8764038
1602698829817,1087,0.05810547,0.32562256,0.87371826
1602698829818,1088,0.057617188,0.32489014,0.871521
1602698829818,1089,0.057617188,0.3258667,0.8764038
1602698829821,1090,0.057617188,0.32489014,0.871521
1602698829825,1091,0.057617188,0.32489014,0.871521
1602698829825,1092,0.05810547,0.32513428,0.8744507
1602698829826,1093,0.05810547,0.32513428,0.8744507
1602698829833,1094,0.05834961,0.3295288,0.87298584
1602698829834,1095,0.05810547,0.32513428,0.8744507
1602698829834,1096,0.05834961,0.3295288,0.87298584
1602698829835,1097,0.05834961,0.3295288,0.87298584
1602698829835,1098,0.05810547,0.3234253,0.8764038
1602698829835,1099,0.05810547,0.3234253,0.8764038
1602698829836,1100,0.05810547,0.3234253,0.8764038
1602698829836,1101,0.060546875,0.32611084,0.87298584
1602698829838,1102,0.060546875,0.32611084,0.87298584
1602698829844,1103,0.060791016,0.32318115,0.8746948
1602698829844,1104,0.060546875,0.32611084,0.87298584
1602698829845,1105,0.060791016,0.32318115,0.8746948
1602698829845,1106,0.060791016,0.32318115,0.8746948
1602698829845,1107,0.06225586,0.32562256,0.87323
1602698829846,1108,0.06225586,0.32562256,0.87323
1602698829846,1109,0.06225586,0.32562256,0.87323
1602698829848,1110,0.059814453,0.32440186,0.8720093
1602698829854,1111,0.059814453,0.32440186,0.8720093
1602698829855,1112,0.059814453,0.32440186,0.8720093
1602698829856,1113,0.061279297,0.32147217,0.87371826
1602698829856,1114,0.061279297,0.32147217,0.87371826
1602698829856,1115,0.0625,0.32318115,0.8744507
1602698829857,1116,0.061279297,0.32147217,0.87371826
1602698829857,1117,0.0625,0.32318115,0.8744507
1602698829861,1118,0.05883789,0.3222046,0.8734741
1602698829861,1119,0.05883789,0.3222046,0.8734741
1602698829861,1120,0.05908203,0.32440186,0.87176514
1602698829864,1121,0.0625,0.32318115,0.8744507
1602698829865,1122,0.05908203,0.32440186,0.87176514
1602698829865,1123,0.059326172,0.3217163,0.87615967
1602698829865,1124,0.059326172,0.3217163,0.87615967
1602698829867,1125,0.05883789,0.3222046,0.8734741
1602698829873,1126,0.060546875,0.3222046,0.8722534
1602698829873,1127,0.060546875,0.3222046,0.8722534
1602698829874,1128,0.05908203,0.32440186,0.87176514
1602698829874,1129,0.05810547,0.3217163,0.8759155
1602698829874,1130,0.05810547,0.3217163,0.8759155
1602698829875,1131,0.05908203,0.322937,0.8727417
1602698829875,1132,0.059326172,0.3217163,0.87615967
1602698829881,1133,0.05908203,0.322937,0.8727417
1602698829884,1134,0.057861328,0.32537842,0.8734741
1602698829884,1135,0.057861328,0.32537842,0.8734741
1602698829885,1136,0.05444336,0.32562256,0.8746948
1602698829885,1137,0.060546875,0.3222046,0.8722534
1602698829885,1138,0.05444336,0.32562256,0.8746948
1602698829885,1139,0.05810547,0.3217163,0.8759155
1602698829888,1140,0.057128906,0.32269287,0.87176514
1602698829888,1141,0.057128906,0.32269287,0.87176514
1602698829889,1142,0.05908203,0.322937,0.8727417
1602698829892,1143,0.057128906,0.32073975,0.8744507
1602698829893,1144,0.057128906,0.32073975,0.8744507
1602698829893,1145,0.057861328,0.32537842,0.8734741
1602698829893,1146,0.056884766,0.32537842,0.87249756
1602698829900,1147,0.05444336,0.32562256,0.8746948
1602698829900,1148,0.056884766,0.32537842,0.87249756
1602698829901,1149,0.057128906,0.32269287,0.87176514
1602698829903,1150,0.057128906,0.32073975,0.8744507
1602698829904,1151,0.056884766,0.32537842,0.87249756
