# Sensor position: Chest
# Sensor side: Left
# Activity type: Sitting bent forward
# Activity code: 4
# Subject id: s1758499
timestamp,seq,accel_x,accel_y,accel_z
1602702517745,0,-0.33251953,0.8175659,-0.44024658
1602702517750,1,-0.33251953,0.8175659,-0.44024658
1602702517760,2,-0.32617188,0.80267334,-0.4968872
1602702517762,3,-0.32617188,0.80267334,-0.4968872
1602702517762,4,-0.33251953,0.8175659,-0.44024658
1602702517763,5,-0.4074707,0.7958374,-0.4944458
1602702517764,6,-0.32617188,0.80267334,-0.4968872
1602702517765,7,-0.4074707,0.7958374,-0.4944458
1602702517770,8,-0.3684082,0.7999878,-0.47564697
1602702517771,9,-0.4074707,0.7958374,-0.4944458
1602702517772,10,-0.3684082,0.7999878,-0.47564697
1602702517773,11,-0.38476562,0.78582764,-0.46295166
1602702517776,12,-0.3684082,0.7999878,-0.47564697
1602702517783,13,-0.38476562,0.78582764,-0.46295166
1602702517784,14,-0.38476562,0.78582764,-0.46295166
1602702517784,15,-0.38916016,0.8173218,-0.43463135
1602702517789,16,-0.38916016,0.8173218,-0.43463135
1602702517790,17,-0.38916016,0.8173218,-0.43463135
1602702517790,18,-0.4013672,0.8529663,-0.41363525
1602702517793,19,-0.40649414,0.8275757,-0.4126587
1602702517799,20,-0.4013672,0.8529663,-0.41363525
1602702517799,21,-0.4013672,0.8529663,-0.41363525
1602702517800,22,-0.40649414,0.8275757,-0.4126587
1602702517802,23,-0.40649414,0.8275757,-0.4126587
1602702517803,24,-0.4111328,0.8312378,-0.46148682
1602702517803,25,-0.4111328,0.8312378,-0.46148682
1602702517804,26,-0.41455078,0.73114014,-0.43756104
1602702517805,27,-0.41455078,0.73114014,-0.43756104
1602702517806,28,-0.4272461,0.7662964,-0.46295166
1602702517808,29,-0.4272461,0.7662964,-0.46295166
1602702517814,30,-0.40844727,0.8554077,-0.48858643
1602702517814,31,-0.4111328,0.8312378,-0.46148682
1602702517814,32,-0.40844727,0.8554077,-0.48858643
1602702517814,33,-0.41455078,0.73114014,-0.43756104
1602702517815,34,-0.4375,0.7880249,-0.48712158
1602702517815,35,-0.4272461,0.7662964,-0.46295166
1602702517815,36,-0.40722656,0.8319702,-0.41363525
1602702517815,37,-0.40844727,0.8554077,-0.48858643
1602702517816,38,-0.4375,0.7880249,-0.48712158
1602702517816,39,-0.38745117,0.8348999,-0.40289307
1602702517818,40,-0.40722656,0.8319702,-0.41363525
1602702517818,41,-0.4375,0.7880249,-0.48712158
1602702517819,42,-0.38745117,0.8348999,-0.40289307
1602702517821,43,-0.4423828,0.76556396,-0.43756104
1602702517821,44,-0.40722656,0.8319702,-0.41363525
1602702517822,45,-0.4423828,0.76556396,-0.43756104
1602702517823,46,-0.43286133,0.76605225,-0.46246338
1602702517824,47,-0.43286133,0.76605225,-0.46246338
1602702517827,48,-0.4650879,0.8016968,-0.4475708
1602702517828,49,-0.38745117,0.8348999,-0.40289307
1602702517828,50,-0.4650879,0.8016968,-0.4475708
1602702517829,51,-0.36938477,0.86273193,-0.43023682
1602702517836,52,-0.36938477,0.86273193,-0.43023682
1602702517836,53,-0.46826172,0.7999878,-0.4216919
1602702517836,54,-0.46826172,0.7999878,-0.4216919
1602702517836,55,-0.4482422,0.7357788,-0.4336548
1602702517837,56,-0.4423828,0.76556396,-0.43756104
1602702517837,57,-0.4482422,0.7357788,-0.4336548
1602702517837,58,-0.43286133,0.76605225,-0.46246338
1602702517838,59,-0.46728516,0.7850952,-0.505188
1602702517838,60,-0.46728516,0.7850952,-0.505188
1602702517840,61,-0.4650879,0.8016968,-0.4475708
1602702517840,62,-0.4814453,0.7501831,-0.5147095
1602702517840,63,-0.4814453,0.7501831,-0.5147095
1602702517845,64,-0.36938477,0.86273193,-0.43023682
1602702517845,65,-0.4375,0.76483154,-0.520813
1602702517845,66,-0.4375,0.76483154,-0.520813
1602702517845,67,-0.46826172,0.7999878,-0.4216919
1602702517845,68,-0.4663086,0.7609253,-0.51690674
1602702517848,69,-0.4663086,0.7609253,-0.51690674
1602702517848,70,-0.4482422,0.7357788,-0.4336548
1602702517848,71,-0.4362793,0.7723999,-0.4998169
1602702517849,72,-0.4362793,0.7723999,-0.4998169
1602702517850,73,-0.41357422,0.76434326,-0.51812744
1602702517853,74,-0.41357422,0.76434326,-0.51812744
1602702517853,75,-0.46728516,0.7850952,-0.505188
1602702517853,76,-0.44970703,0.7665405,-0.5112915
1602702517854,77,-0.44970703,0.7665405,-0.5112915
1602702517855,78,-0.44726562,0.76312256,-0.49591064
1602702517856,79,-0.44726562,0.76312256,-0.49591064
1602702517857,80,-0.41015625,0.7826538,-0.4837036
1602702517858,81,-0.41015625,0.7826538,-0.4837036
1602702517860,82,-0.42138672,0.77874756,-0.48443604
1602702517861,83,-0.42138672,0.77874756,-0.48443604
1602702517863,84,-0.45825195,0.7704468,-0.46246338
1602702517863,85,-0.4814453,0.7501831,-0.5147095
1602702517863,86,-0.45825195,0.7704468,-0.46246338
1602702517866,87,-0.4375,0.76483154,-0.520813
1602702517868,88,-0.4663086,0.7609253,-0.51690674
1602702517869,89,-0.4362793,0.7723999,-0.4998169
1602702517870,90,-0.41357422,0.76434326,-0.51812744
1602702517871,91,-0.44970703,0.7665405,-0.5112915
1602702517873,92,-0.44726562,0.76312256,-0.49591064
1602702517874,93,-0.41015625,0.7826538,-0.4837036
1602702517875,94,-0.42138672,0.77874756,-0.48443604
1602702517877,95,-0.45825195,0.7704468,-0.46246338
1602702520149,96,-0.41357422,0.78826904,-0.47540283
1602702520157,97,-0.4501953,0.7736206,-0.47174072
1602702520158,98,-0.41357422,0.78826904,-0.47540283
1602702520159,99,-0.41357422,0.78826904,-0.47540283
1602702520168,100,-0.4501953,0.7736206,-0.47174072
1602702520172,101,-0.4501953,0.7736206,-0.47174072
1602702520172,102,-0.43164062,0.7892456,-0.47125244
1602702520173,103,-0.43164062,0.7892456,-0.47125244
1602702520180,104,-0.43164062,0.7892456,-0.47125244
1602702520181,105,-0.4350586,0.78338623,-0.46099854
1602702520181,106,-0.4350586,0.78338623,-0.46099854
1602702520182,107,-0.4194336,0.8012085,-0.4541626
1602702520182,108,-0.4350586,0.78338623,-0.46099854
1602702520183,109,-0.4194336,0.8012085,-0.4541626
1602702520183,110,-0.4194336,0.8012085,-0.4541626
1602702520185,111,-0.43041992,0.78948975,-0.45977783
1602702520189,112,-0.43041992,0.78948975,-0.45977783
1602702520190,113,-0.43041992,0.78948975,-0.45977783
1602702520190,114,-0.42089844,0.79681396,-0.45196533
1602702520192,115,-0.42089844,0.79681396,-0.45196533
1602702520194,116,-0.43017578,0.78826904,-0.4680786
1602702520199,117,-0.43017578,0.78826904,-0.4680786
1602702520199,118,-0.42089844,0.79681396,-0.45196533
1602702520199,119,-0.42919922,0.79730225,-0.45098877
1602702520200,120,-0.42919922,0.79730225,-0.45098877
1602702520202,121,-0.43017578,0.78826904,-0.4680786
1602702520206,122,-0.4272461,0.7958374,-0.456604
1602702520207,123,-0.4272461,0.7958374,-0.456604
1602702520207,124,-0.42919922,0.79730225,-0.45098877
1602702520210,125,-0.43164062,0.7892456,-0.4595337
1602702520210,126,-0.43164062,0.7892456,-0.4595337
1602702520220,127,-0.4272461,0.7958374,-0.456604
1602702520220,128,-0.4284668,0.79315186,-0.45611572
1602702520221,129,-0.4284668,0.79315186,-0.45611572
1602702520221,130,-0.43164062,0.7892456,-0.4595337
1602702520222,131,-0.43115234,0.7909546,-0.45855713
1602702520222,132,-0.4284668,0.79315186,-0.45611572
1602702520223,133,-0.43115234,0.7909546,-0.45855713
1602702520223,134,-0.43115234,0.7909546,-0.45855713
1602702520224,135,-0.43017578,0.791687,-0.46270752
1602702520225,136,-0.43017578,0.791687,-0.46270752
1602702520229,137,-0.43164062,0.7914429,-0.4570923
1602702520230,138,-0.43017578,0.791687,-0.46270752
1602702520230,139,-0.43164062,0.7848511,-0.47003174
1602702520232,140,-0.43164062,0.7914429,-0.4570923
1602702520235,141,-0.42773438,0.7941284,-0.46270752
1602702520235,142,-0.43164062,0.7914429,-0.4570923
1602702520241,143,-0.43164062,0.7848511,-0.47003174
1602702520242,144,-0.42895508,0.7892456,-0.46295166
1602702520242,145,-0.43164062,0.7848511,-0.47003174
1602702520243,146,-0.4284668,0.7872925,-0.46148682
1602702520243,147,-0.42773438,0.7941284,-0.46270752
1602702520245,148,-0.42773438,0.7941284,-0.46270752
1602702520249,149,-0.42895508,0.7892456,-0.46295166
1602702520249,150,-0.4338379,0.7909546,-0.46270752
1602702520249,151,-0.42895508,0.7892456,-0.46295166
1602702520251,152,-0.4284668,0.7872925,-0.46148682
1602702520253,153,-0.4338379,0.7909546,-0.46270752
1602702520258,154,-0.4284668,0.7872925,-0.46148682
1602702520259,155,-0.4321289,0.79071045,-0.46099854
1602702520259,156,-0.4321289,0.79071045,-0.46099854
1602702520260,157,-0.4338379,0.7909546,-0.46270752
1602702520263,158,-0.43188477,0.7863159,-0.4607544
1602702520263,159,-0.43188477,0.7863159,-0.4607544
1602702520264,160,-0.4321289,0.79071045,-0.46099854
1602702520268,161,-0.43237305,0.79119873,-0.45977783
1602702520268,162,-0.43237305,0.79119873,-0.45977783
1602702520268,163,-0.43188477,0.7863159,-0.4607544
1602702520274,164,-0.43017578,0.7843628,-0.46466064
1602702520275,165,-0.43017578,0.7843628,-0.46466064
1602702520275,166,-0.43237305,0.79119873,-0.45977783
1602702520275,167,-0.42895508,0.7938843,-0.46246338
1602702520276,168,-0.42895508,0.7938843,-0.46246338
1602702520280,169,-0.43017578,0.7843628,-0.46466064
1602702520280,170,-0.4309082,0.7885132,-0.46148682
1602702520281,171,-0.4309082,0.7885132,-0.46148682
1602702520286,172,-0.42895508,0.7938843,-0.46246338
1602702520287,173,-0.43066406,0.78826904,-0.4595337
1602702520287,174,-0.43066406,0.78826904,-0.4595337
1602702520291,175,-0.43139648,0.78900146,-0.4644165
1602702520298,176,-0.4309082,0.7885132,-0.46148682
1602702520299,177,-0.43139648,0.78900146,-0.4644165
1602702520299,178,-0.43237305,0.7914429,-0.46539307
1602702520300,179,-0.43237305,0.7914429,-0.46539307
1602702520302,180,-0.43066406,0.78826904,-0.4595337
1602702520304,181,-0.43017578,0.7887573,-0.46148682
1602702520305,182,-0.43139648,0.78900146,-0.4644165
1602702520313,183,-0.43017578,0.7887573,-0.46148682
1602702520314,184,-0.43432617,0.79071045,-0.46099854
1602702520314,185,-0.43237305,0.7914429,-0.46539307
1602702520314,186,-0.42993164,0.7860718,-0.46588135
1602702520314,187,-0.43017578,0.7887573,-0.46148682
1602702520315,188,-0.43432617,0.79071045,-0.46099854
1602702520315,189,-0.43432617,0.79071045,-0.46099854
1602702520319,190,-0.42993164,0.7860718,-0.46588135
1602702520320,191,-0.42993164,0.7860718,-0.46588135
1602702522745,192,-0.4309082,0.793396,-0.458313
1602702522745,193,-0.4309082,0.793396,-0.458313
1602702522745,194,-0.4309082,0.793396,-0.458313
1602702522748,195,-0.4321289,0.7897339,-0.4570923
1602702522748,196,-0.4321289,0.7897339,-0.4570923
1602702522749,197,-0.4321289,0.7897339,-0.4570923
1602702522751,198,-0.42871094,0.791687,-0.46051025
1602702522752,199,-0.42871094,0.791687,-0.46051025
1602702522753,200,-0.42626953,0.7958374,-0.45587158
1602702522754,201,-0.42626953,0.7958374,-0.45587158
1602702522762,202,-0.4260254,0.7946167,-0.46246338
1602702522762,203,-0.42871094,0.791687,-0.46051025
1602702522763,204,-0.4260254,0.7946167,-0.46246338
1602702522763,205,-0.42626953,0.7958374,-0.45587158
1602702522763,206,-0.4362793,0.78826904,-0.4656372
1602702522763,207,-0.4362793,0.78826904,-0.4656372
1602702522763,208,-0.43066406,0.7914429,-0.4578247
1602702522764,209,-0.4260254,0.7946167,-0.46246338
1602702522764,210,-0.43066406,0.7914429,-0.4578247
1602702522765,211,-0.4362793,0.78826904,-0.4656372
1602702522765,212,-0.42993164,0.7885132,-0.4578247
1602702522765,213,-0.42993164,0.7885132,-0.4578247
1602702522769,214,-0.43066406,0.7914429,-0.4578247
1602702522769,215,-0.42944336,0.7938843,-0.4492798
1602702522770,216,-0.42944336,0.7938843,-0.4492798
1602702522770,217,-0.42993164,0.7885132,-0.4578247
1602702522772,218,-0.42944336,0.7938843,-0.4492798
1602702522772,219,-0.42578125,0.7958374,-0.45098877
1602702522773,220,-0.42578125,0.7958374,-0.45098877
1602702522785,221,-0.42651367,0.7929077,-0.44854736
1602702522786,222,-0.42651367,0.7929077,-0.44854736
1602702522786,223,-0.42578125,0.7958374,-0.45098877
1602702522786,224,-0.4296875,0.7965698,-0.45025635
1602702522786,225,-0.42651367,0.7929077,-0.44854736
1602702522786,226,-0.4296875,0.7965698,-0.45025635
1602702522787,227,-0.42456055,0.7941284,-0.45367432
1602702522787,228,-0.42456055,0.7941284,-0.45367432
1602702522787,229,-0.4296875,0.7965698,-0.45025635
1602702522787,230,-0.4255371,0.79437256,-0.45611572
1602702522788,231,-0.42456055,0.7941284,-0.45367432
1602702522788,232,-0.4255371,0.79437256,-0.45611572
1602702522788,233,-0.42749023,0.7909546,-0.46002197
1602702522789,234,-0.42749023,0.7909546,-0.46002197
1602702522789,235,-0.4255371,0.79437256,-0.45611572
1602702522789,236,-0.4267578,0.7994995,-0.44952393
1602702522790,237,-0.42749023,0.7909546,-0.46002197
1602702522790,238,-0.4267578,0.7994995,-0.44952393
1602702522790,239,-0.4255371,0.7885132,-0.45489502
1602702522790,240,-0.4255371,0.7885132,-0.45489502
1602702522791,241,-0.42797852,0.7975464,-0.45440674
1602702522797,242,-0.42797852,0.7975464,-0.45440674
1602702522798,243,-0.4267578,0.7994995,-0.44952393
1602702522798,244,-0.42529297,0.79315186,-0.456604
1602702522798,245,-0.42529297,0.79315186,-0.456604
1602702522798,246,-0.4255371,0.7885132,-0.45489502
1602702522799,247,-0.42529297,0.7938843,-0.45733643
1602702522799,248,-0.42529297,0.7938843,-0.45733643
1602702522799,249,-0.4260254,0.79193115,-0.46124268
1602702522799,250,-0.42797852,0.7975464,-0.45440674
1602702522801,251,-0.4260254,0.79193115,-0.46124268
1602702522802,252,-0.42797852,0.7909546,-0.4578247
1602702522802,253,-0.42529297,0.79315186,-0.456604
1602702522803,254,-0.42797852,0.7909546,-0.4578247
1602702522804,255,-0.42529297,0.7938843,-0.45733643
1602702522807,256,-0.42797852,0.7860718,-0.46954346
1602702522807,257,-0.42797852,0.7860718,-0.46954346
1602702522807,258,-0.4260254,0.79193115,-0.46124268
1602702522808,259,-0.42626953,0.79852295,-0.46392822
1602702522809,260,-0.42626953,0.79852295,-0.46392822
1602702522810,261,-0.42797852,0.7909546,-0.4578247
1602702522815,262,-0.42504883,0.78656006,-0.45855713
1602702522816,263,-0.42504883,0.78656006,-0.45855713
1602702522816,264,-0.42797852,0.7860718,-0.46954346
1602702522816,265,-0.43017578,0.78948975,-0.4644165
1602702522817,266,-0.42626953,0.79852295,-0.46392822
1602702522817,267,-0.43017578,0.78948975,-0.4644165
1602702522820,268,-0.42504883,0.78656006,-0.45855713
1602702522821,269,-0.42626953,0.7914429,-0.4673462
1602702522821,270,-0.42626953,0.7914429,-0.4673462
1602702522822,271,-0.43017578,0.78948975,-0.4644165
1602702522823,272,-0.4296875,0.7921753,-0.458313
1602702522825,273,-0.42626953,0.7914429,-0.4673462
1602702522826,274,-0.4284668,0.79071045,-0.46466064
1602702522826,275,-0.4296875,0.7921753,-0.458313
1602702522828,276,-0.4296875,0.7921753,-0.458313
1602702522828,277,-0.43310547,0.7897339,-0.4595337
1602702522829,278,-0.4284668,0.79071045,-0.46466064
1602702522832,279,-0.4284668,0.79071045,-0.46466064
1602702522833,280,-0.42993164,0.7848511,-0.46929932
1602702522833,281,-0.43310547,0.7897339,-0.4595337
1602702522834,282,-0.43066406,0.79486084,-0.46173096
1602702522834,283,-0.42993164,0.7848511,-0.46929932
1602702522835,284,-0.43310547,0.7897339,-0.4595337
1602702522836,285,-0.43066406,0.79486084,-0.46173096
1602702522837,286,-0.42993164,0.7848511,-0.46929932
1602702522840,287,-0.43066406,0.79486084,-0.46173096
1602702525255,288,-0.43041992,0.7863159,-0.45928955
1602702525256,289,-0.43041992,0.7863159,-0.45928955
1602702525257,290,-0.43041992,0.7863159,-0.45928955
1602702525258,291,-0.4309082,0.78704834,-0.46173096
1602702525259,292,-0.4309082,0.78704834,-0.46173096
1602702525259,293,-0.4321289,0.78778076,-0.4673462
1602702525260,294,-0.4321289,0.78778076,-0.4673462
1602702525263,295,-0.4309082,0.78704834,-0.46173096
1602702525270,296,-0.43164062,0.789978,-0.46221924
1602702525271,297,-0.43164062,0.789978,-0.46221924
1602702525272,298,-0.4321289,0.78778076,-0.4673462
1602702525273,299,-0.4326172,0.78582764,-0.46710205
1602702525273,300,-0.4326172,0.78582764,-0.46710205
1602702525276,301,-0.43164062,0.789978,-0.46221924
1602702525278,302,-0.43603516,0.7868042,-0.46368408
1602702525283,303,-0.4326172,0.78582764,-0.46710205
1602702525284,304,-0.43603516,0.7868042,-0.46368408
1602702525284,305,-0.43603516,0.7868042,-0.46368408
1602702525285,306,-0.43188477,0.7875366,-0.46514893
1602702525285,307,-0.43188477,0.7875366,-0.46514893
1602702525287,308,-0.43188477,0.7875366,-0.46514893
1602702525289,309,-0.4321289,0.7904663,-0.46588135
1602702525302,310,-0.4321289,0.7904663,-0.46588135
1602702525303,311,-0.4321289,0.7904663,-0.46588135
1602702525303,312,-0.43432617,0.7880249,-0.46588135
1602702525303,313,-0.43432617,0.7880249,-0.46588135
1602702525304,314,-0.43286133,0.78533936,-0.46417236
1602702525304,315,-0.43286133,0.78533936,-0.46417236
1602702525305,316,-0.43432617,0.7880249,-0.46588135
1602702525305,317,-0.43432617,0.78582764,-0.46832275
1602702525305,318,-0.43432617,0.78582764,-0.46832275
1602702525306,319,-0.4338379,0.7904663,-0.46661377
1602702525306,320,-0.43286133,0.78533936,-0.46417236
1602702525306,321,-0.4338379,0.7904663,-0.46661377
1602702525307,322,-0.43432617,0.78582764,-0.46832275
1602702525307,323,-0.43310547,0.78582764,-0.47003174
1602702525308,324,-0.43310547,0.78582764,-0.47003174
1602702525315,325,-0.4338379,0.7904663,-0.46661377
1602702525315,326,-0.4338379,0.7872925,-0.4631958
1602702525316,327,-0.4338379,0.7872925,-0.4631958
1602702525316,328,-0.43310547,0.78582764,-0.47003174
1602702525317,329,-0.43139648,0.78704834,-0.46783447
1602702525318,330,-0.43139648,0.78704834,-0.46783447
1602702525319,331,-0.4338379,0.7872925,-0.4631958
1602702525319,332,-0.43041992,0.7897339,-0.46148682
1602702525328,333,-0.43041992,0.7897339,-0.46148682
1602702525329,334,-0.43164062,0.78826904,-0.4644165
1602702525329,335,-0.43164062,0.78826904,-0.4644165
1602702525329,336,-0.43139648,0.78704834,-0.46783447
1602702525330,337,-0.43164062,0.79193115,-0.46148682
1602702525330,338,-0.43164062,0.79193115,-0.46148682
1602702525331,339,-0.43041992,0.7897339,-0.46148682
1602702525334,340,-0.4338379,0.78704834,-0.46661377
1602702525334,341,-0.4338379,0.78704834,-0.46661377
1602702525334,342,-0.42749023,0.7904663,-0.46173096
1602702525340,343,-0.42749023,0.7904663,-0.46173096
1602702525340,344,-0.43164062,0.78826904,-0.4644165
1602702525341,345,-0.43237305,0.7885132,-0.46368408
1602702525341,346,-0.43237305,0.7885132,-0.46368408
1602702525341,347,-0.4284668,0.7909546,-0.46002197
1602702525342,348,-0.43164062,0.79193115,-0.46148682
1602702525345,349,-0.4284668,0.7909546,-0.46002197
1602702525345,350,-0.4296875,0.78582764,-0.47003174
1602702525345,351,-0.4338379,0.78704834,-0.46661377
1602702525349,352,-0.4296875,0.78582764,-0.47003174
1602702525349,353,-0.42919922,0.7994995,-0.45465088
1602702525349,354,-0.42749023,0.7904663,-0.46173096
1602702525350,355,-0.42919922,0.7994995,-0.45465088
1602702525353,356,-0.42578125,0.78900146,-0.45562744
1602702525354,357,-0.43237305,0.7885132,-0.46368408
1602702525354,358,-0.42578125,0.78900146,-0.45562744
1602702525354,359,-0.4284668,0.7909546,-0.46002197
1602702525354,360,-0.42871094,0.7904663,-0.458313
1602702525356,361,-0.42871094,0.7904663,-0.458313
1602702525357,362,-0.4296875,0.78582764,-0.47003174
1602702525357,363,-0.42919922,0.7946167,-0.46221924
1602702525358,364,-0.42919922,0.7946167,-0.46221924
1602702525359,365,-0.4267578,0.79071045,-0.46124268
1602702525362,366,-0.4267578,0.79071045,-0.46124268
1602702525362,367,-0.42919922,0.7994995,-0.45465088
1602702525362,368,-0.4296875,0.7897339,-0.46539307
1602702525363,369,-0.4296875,0.7897339,-0.46539307
1602702525365,370,-0.42578125,0.78900146,-0.45562744
1602702525366,371,-0.4272461,0.7921753,-0.46295166
1602702525366,372,-0.4272461,0.7921753,-0.46295166
1602702525366,373,-0.42871094,0.7904663,-0.458313
1602702525367,374,-0.43139648,0.78778076,-0.46661377
1602702525369,375,-0.42919922,0.7946167,-0.46221924
1602702525370,376,-0.43139648,0.78778076,-0.46661377
1602702525373,377,-0.4267578,0.79071045,-0.46124268
1602702525373,378,-0.4284668,0.79901123,-0.45635986
1602702525373,379,-0.4296875,0.7897339,-0.46539307
1602702525374,380,-0.4284668,0.79901123,-0.45635986
1602702525377,381,-0.4272461,0.7921753,-0.46295166
1602702525377,382,-0.43139648,0.78778076,-0.46661377
1602702525378,383,-0.4284668,0.79901123,-0.45635986
1602702527745,384,-0.42993164,0.78704834,-0.45880127
1602702527750,385,-0.42993164,0.78704834,-0.45880127
1602702527750,386,-0.42993164,0.78704834,-0.45880127
1602702527751,387,-0.43066406,0.7938843,-0.46588135
1602702527752,388,-0.43066406,0.7938843,-0.46588135
1602702527757,389,-0.43066406,0.7938843,-0.46588135
1602702527757,390,-0.43041992,0.79193115,-0.46124268
1602702527758,391,-0.43041992,0.79193115,-0.46124268
1602702527769,392,-0.43041992,0.79193115,-0.46124268
1602702527771,393,-0.4284668,0.79071045,-0.46246338
1602702527772,394,-0.4284668,0.79071045,-0.46246338
1602702527772,395,-0.43188477,0.7872925,-0.4656372
1602702527772,396,-0.43188477,0.7872925,-0.4656372
1602702527773,397,-0.43041992,0.7868042,-0.46905518
1602702527774,398,-0.4284668,0.79071045,-0.46246338
1602702527775,399,-0.43115234,0.7885132,-0.4680786
1602702527775,400,-0.43041992,0.7868042,-0.46905518
1602702527775,401,-0.43041992,0.78338623,-0.47320557
1602702527780,402,-0.43115234,0.7885132,-0.4680786
1602702527781,403,-0.43188477,0.7872925,-0.4656372
1602702527781,404,-0.43041992,0.78338623,-0.47320557
1602702527782,405,-0.43041992,0.7868042,-0.46905518
1602702527782,406,-0.43066406,0.78900146,-0.46417236
1602702527789,407,-0.43066406,0.78900146,-0.46417236
1602702527789,408,-0.43115234,0.7885132,-0.4680786
1602702527790,409,-0.4321289,0.7860718,-0.4649048
1602702527790,410,-0.43041992,0.78338623,-0.47320557
1602702527791,411,-0.43286133,0.78778076,-0.46539307
1602702527791,412,-0.4321289,0.7860718,-0.4649048
1602702527796,413,-0.43066406,0.78900146,-0.46417236
1602702527798,414,-0.43139648,0.7887573,-0.4685669
1602702527798,415,-0.43286133,0.78778076,-0.46539307
1602702527799,416,-0.4309082,0.7904663,-0.46588135
1602702527804,417,-0.43139648,0.7887573,-0.4685669
1602702527804,418,-0.4321289,0.7860718,-0.4649048
1602702527804,419,-0.43408203,0.7850952,-0.4680786
1602702527805,420,-0.43286133,0.78778076,-0.46539307
1602702527805,421,-0.4309082,0.7904663,-0.46588135
1602702527808,422,-0.42895508,0.7875366,-0.46466064
1602702527808,423,-0.43139648,0.7887573,-0.4685669
1602702527808,424,-0.43408203,0.7850952,-0.4680786
1602702527811,425,-0.43286133,0.7885132,-0.4685669
1602702527811,426,-0.4309082,0.7904663,-0.46588135
1602702527812,427,-0.4309082,0.79119873,-0.46588135
1602702527816,428,-0.42895508,0.7875366,-0.46466064
1602702527816,429,-0.4333496,0.7826538,-0.46661377
1602702527816,430,-0.43408203,0.7850952,-0.4680786
1602702527817,431,-0.43286133,0.7885132,-0.4685669
1602702527818,432,-0.43359375,0.7880249,-0.47149658
1602702527819,433,-0.4309082,0.79119873,-0.46588135
1602702527822,434,-0.42895508,0.7875366,-0.46466064
1602702527822,435,-0.43359375,0.7885132,-0.46466064
1602702527822,436,-0.4333496,0.7826538,-0.46661377
1602702527823,437,-0.43139648,0.7855835,-0.46466064
1602702527823,438,-0.43286133,0.7885132,-0.4685669
1602702527824,439,-0.43359375,0.7880249,-0.47149658
1602702527826,440,-0.4296875,0.7880249,-0.4673462
1602702527827,441,-0.4309082,0.79119873,-0.46588135
1602702527828,442,-0.43359375,0.7885132,-0.46466064
1602702527828,443,-0.43139648,0.7863159,-0.4656372
1602702527830,444,-0.4333496,0.7826538,-0.46661377
1602702527830,445,-0.43237305,0.7875366,-0.46148682
1602702527831,446,-0.43359375,0.7880249,-0.47149658
1602702527835,447,-0.43139648,0.7855835,-0.46466064
1602702527836,448,-0.43041992,0.7904663,-0.46295166
1602702527836,449,-0.43359375,0.7885132,-0.46466064
1602702527837,450,-0.4296875,0.7880249,-0.4673462
1602702527838,451,-0.43139648,0.7855835,-0.46466064
1602702527838,452,-0.42871094,0.8012085,-0.46002197
1602702527841,453,-0.43139648,0.7863159,-0.4656372
1602702527841,454,-0.4296875,0.7880249,-0.4673462
1602702527841,455,-0.42895508,0.78460693,-0.4595337
1602702527844,456,-0.43237305,0.7875366,-0.46148682
1602702527844,457,-0.43139648,0.7863159,-0.4656372
1602702527844,458,-0.43041992,0.793396,-0.46246338
1602702527847,459,-0.43041992,0.7904663,-0.46295166
1602702527847,460,-0.43237305,0.7875366,-0.46148682
1602702527848,461,-0.42919922,0.7929077,-0.4590454
1602702527850,462,-0.42871094,0.8012085,-0.46002197
1602702527851,463,-0.43041992,0.7904663,-0.46295166
1602702527851,464,-0.42895508,0.79193115,-0.45196533
1602702527853,465,-0.42871094,0.8012085,-0.46002197
1602702527855,466,-0.42895508,0.78460693,-0.4595337
1602702527856,467,-0.42895508,0.78460693,-0.4595337
1602702527856,468,-0.4284668,0.791687,-0.45367432
1602702527858,469,-0.43041992,0.793396,-0.46246338
1602702527858,470,-0.43041992,0.793396,-0.46246338
1602702527859,471,-0.4309082,0.78948975,-0.45318604
1602702527860,472,-0.42919922,0.7929077,-0.4590454
1602702527863,473,-0.42895508,0.79193115,-0.45196533
1602702527863,474,-0.42919922,0.7929077,-0.4590454
1602702527864,475,-0.4284668,0.791687,-0.45367432
1602702527866,476,-0.42895508,0.79193115,-0.45196533
1602702527867,477,-0.4309082,0.78948975,-0.45318604
1602702527867,478,-0.4284668,0.791687,-0.45367432
1602702527869,479,-0.4309082,0.78948975,-0.45318604
1602702530446,480,-0.43066406,0.791687,-0.4570923
1602702530448,481,-0.4284668,0.7946167,-0.4570923
1602702530454,482,-0.43066406,0.791687,-0.4570923
1602702530455,483,-0.43066406,0.791687,-0.4570923
1602702530455,484,-0.42797852,0.79241943,-0.45684814
1602702530456,485,-0.4284668,0.7946167,-0.4570923
1602702530470,486,-0.42456055,0.7958374,-0.45391846
1602702530470,487,-0.4284668,0.7946167,-0.4570923
1602702530471,488,-0.42797852,0.79241943,-0.45684814
1602702530472,489,-0.42797852,0.79241943,-0.45684814
1602702530472,490,-0.42944336,0.7914429,-0.45733643
1602702530473,491,-0.42456055,0.7958374,-0.45391846
1602702530473,492,-0.4296875,0.7963257,-0.4607544
1602702530473,493,-0.42944336,0.7914429,-0.45733643
1602702530474,494,-0.42773438,0.7921753,-0.45806885
1602702530475,495,-0.42456055,0.7958374,-0.45391846
1602702530475,496,-0.43041992,0.7885132,-0.46392822
1602702530475,497,-0.4296875,0.7963257,-0.4607544
1602702530476,498,-0.4272461,0.79437256,-0.4619751
1602702530480,499,-0.42773438,0.7921753,-0.45806885
1602702530481,500,-0.42944336,0.7914429,-0.45733643
1602702530481,501,-0.4296875,0.7843628,-0.4673462
1602702530488,502,-0.43041992,0.7885132,-0.46392822
1602702530488,503,-0.4296875,0.7963257,-0.4607544
1602702530488,504,-0.43017578,0.7965698,-0.46124268
1602702530489,505,-0.4272461,0.79437256,-0.4619751
1602702530489,506,-0.42919922,0.78533936,-0.46099854
1602702530489,507,-0.42773438,0.7921753,-0.45806885
1602702530498,508,-0.4296875,0.7843628,-0.4673462
1602702530498,509,-0.42919922,0.79119873,-0.4631958
1602702530498,510,-0.43041992,0.7885132,-0.46392822
1602702530499,511,-0.43017578,0.7965698,-0.46124268
1602702530499,512,-0.4272461,0.79437256,-0.4619751
1602702530507,513,-0.42871094,0.78948975,-0.46270752
1602702530507,514,-0.42919922,0.78533936,-0.46099854
1602702530508,515,-0.4296875,0.7843628,-0.4673462
1602702530508,516,-0.4326172,0.7872925,-0.4673462
1602702530509,517,-0.43017578,0.7965698,-0.46124268
1602702530509,518,-0.42919922,0.79119873,-0.4631958
1602702530509,519,-0.43188477,0.7860718,-0.46417236
1602702530516,520,-0.42919922,0.78533936,-0.46099854
1602702530516,521,-0.42871094,0.78948975,-0.46270752
1602702530517,522,-0.43408203,0.7872925,-0.4697876
1602702530517,523,-0.42919922,0.79119873,-0.4631958
1602702530518,524,-0.43237305,0.78656006,-0.46417236
1602702530518,525,-0.4326172,0.7872925,-0.4673462
1602702530523,526,-0.42871094,0.78948975,-0.46270752
1602702530523,527,-0.43164062,0.7831421,-0.47149658
1602702530524,528,-0.43188477,0.7860718,-0.46417236
1602702530524,529,-0.4309082,0.7938843,-0.46368408
1602702530528,530,-0.43408203,0.7872925,-0.4697876
1602702530529,531,-0.4326172,0.7872925,-0.4673462
1602702530530,532,-0.43237305,0.78656006,-0.46417236
1602702530533,533,-0.43115234,0.7838745,-0.46636963
1602702530534,534,-0.43188477,0.7860718,-0.46417236
1602702530535,535,-0.43164062,0.7831421,-0.47149658
1602702530541,536,-0.4338379,0.7860718,-0.46759033
1602702530541,537,-0.43408203,0.7872925,-0.4697876
1602702530541,538,-0.4309082,0.7938843,-0.46368408
1602702530542,539,-0.43237305,0.78656006,-0.46417236
1602702530543,540,-0.43188477,0.78900146,-0.46466064
1602702530544,541,-0.43115234,0.7838745,-0.46636963
1602702530548,542,-0.4309082,0.7872925,-0.4619751
1602702530549,543,-0.43164062,0.7831421,-0.47149658
1602702530549,544,-0.4338379,0.7860718,-0.46759033
1602702530551,545,-0.43359375,0.7872925,-0.4644165
1602702530553,546,-0.43188477,0.78900146,-0.46466064
1602702530555,547,-0.4309082,0.7872925,-0.4619751
1602702530560,548,-0.4326172,0.7875366,-0.46954346
1602702530561,549,-0.4309082,0.7938843,-0.46368408
1602702530561,550,-0.43359375,0.7872925,-0.4644165
1602702530562,551,-0.43115234,0.7838745,-0.46636963
1602702530562,552,-0.42895508,0.78826904,-0.458313
1602702530566,553,-0.4326172,0.7875366,-0.46954346
1602702530566,554,-0.4338379,0.7860718,-0.46759033
1602702530566,555,-0.42773438,0.789978,-0.46221924
1602702530569,556,-0.42895508,0.78826904,-0.458313
1602702530570,557,-0.43164062,0.7892456,-0.46392822
1602702530572,558,-0.42773438,0.789978,-0.46221924
1602702530578,559,-0.42944336,0.7904663,-0.4619751
1602702530578,560,-0.43188477,0.78900146,-0.46466064
1602702530579,561,-0.43164062,0.7892456,-0.46392822
1602702530580,562,-0.43188477,0.7921753,-0.45611572
1602702530582,563,-0.42944336,0.7904663,-0.4619751
1602702530584,564,-0.43066406,0.7909546,-0.45758057
1602702530587,565,-0.43188477,0.7921753,-0.45611572
1602702530589,566,-0.43066406,0.7909546,-0.45758057
1602702530592,567,-0.4309082,0.7872925,-0.4619751
1602702530595,568,-0.43359375,0.7872925,-0.4644165
1602702530596,569,-0.4326172,0.7875366,-0.46954346
1602702530598,570,-0.42895508,0.78826904,-0.458313
1602702530601,571,-0.42773438,0.789978,-0.46221924
1602702530602,572,-0.43164062,0.7892456,-0.46392822
1602702530604,573,-0.42944336,0.7904663,-0.4619751
1602702530606,574,-0.43188477,0.7921753,-0.45611572
1602702530608,575,-0.43066406,0.7909546,-0.45758057
1602702532844,576,-0.4309082,0.78826904,-0.46343994
1602702532849,577,-0.4309082,0.78826904,-0.46343994
1602702532851,578,-0.4309082,0.78826904,-0.46343994
1602702532851,579,-0.43041992,0.79022217,-0.46295166
1602702532857,580,-0.43041992,0.79022217,-0.46295166
1602702532858,581,-0.43041992,0.79022217,-0.46295166
1602702532858,582,-0.4309082,0.795105,-0.45928955
1602702532858,583,-0.4309082,0.795105,-0.45928955
1602702532864,584,-0.43359375,0.7880249,-0.46759033
1602702532864,585,-0.43359375,0.7880249,-0.46759033
1602702532871,586,-0.42578125,0.8007202,-0.45440674
1602702532871,587,-0.4309082,0.795105,-0.45928955
1602702532872,588,-0.42919922,0.78826904,-0.4578247
1602702532872,589,-0.42578125,0.8007202,-0.45440674
1602702532872,590,-0.43359375,0.7880249,-0.46759033
1602702532872,591,-0.42578125,0.8007202,-0.45440674
1602702532873,592,-0.42871094,0.79241943,-0.46221924
1602702532876,593,-0.42919922,0.78826904,-0.4578247
1602702532876,594,-0.42919922,0.78826904,-0.4578247
1602702532881,595,-0.42871094,0.79241943,-0.46221924
1602702532881,596,-0.42260742,0.7926636,-0.45513916
1602702532881,597,-0.42871094,0.79241943,-0.46221924
1602702532881,598,-0.42504883,0.795105,-0.4553833
1602702532889,599,-0.42260742,0.7926636,-0.45513916
1602702532889,600,-0.4272461,0.7921753,-0.46246338
1602702532890,601,-0.42504883,0.795105,-0.4553833
1602702532890,602,-0.4255371,0.7946167,-0.45977783
1602702532890,603,-0.4272461,0.7921753,-0.46246338
1602702532891,604,-0.42749023,0.79193115,-0.46539307
1602702532891,605,-0.42260742,0.7926636,-0.45513916
1602702532891,606,-0.4255371,0.7946167,-0.45977783
1602702532892,607,-0.42504883,0.795105,-0.4553833
1602702532892,608,-0.42749023,0.79193115,-0.46539307
1602702532892,609,-0.4272461,0.7921753,-0.46246338
1602702532895,610,-0.42456055,0.79730225,-0.45733643
1602702532896,611,-0.42456055,0.79730225,-0.45733643
1602702532896,612,-0.4255371,0.7946167,-0.45977783
1602702532896,613,-0.4248047,0.7880249,-0.45880127
1602702532903,614,-0.4248047,0.7880249,-0.45880127
1602702532904,615,-0.42749023,0.79193115,-0.46539307
1602702532904,616,-0.42993164,0.79241943,-0.4644165
1602702532904,617,-0.42651367,0.79241943,-0.46636963
1602702532905,618,-0.42456055,0.79730225,-0.45733643
1602702532905,619,-0.42993164,0.79241943,-0.4644165
1602702532905,620,-0.4248047,0.7880249,-0.45880127
1602702532905,621,-0.42651367,0.79241943,-0.46636963
1602702532906,622,-0.42797852,0.79119873,-0.4619751
1602702532906,623,-0.42797852,0.79119873,-0.4619751
1602702532906,624,-0.42993164,0.79241943,-0.4644165
1602702532908,625,-0.4255371,0.79241943,-0.4673462
1602702532909,626,-0.42651367,0.79241943,-0.46636963
1602702532910,627,-0.4248047,0.78900146,-0.46832275
1602702532911,628,-0.42797852,0.79119873,-0.4619751
1602702532916,629,-0.43310547,0.7880249,-0.46173096
1602702532916,630,-0.4255371,0.79241943,-0.4673462
1602702532916,631,-0.4255371,0.7929077,-0.46392822
1602702532916,632,-0.4248047,0.78900146,-0.46832275
1602702532917,633,-0.42529297,0.7885132,-0.46368408
1602702532917,634,-0.43310547,0.7880249,-0.46173096
1602702532917,635,-0.4255371,0.79241943,-0.4673462
1602702532918,636,-0.4267578,0.789978,-0.46661377
1602702532920,637,-0.4248047,0.78900146,-0.46832275
1602702532921,638,-0.4255371,0.7929077,-0.46392822
1602702532921,639,-0.42797852,0.78656006,-0.46636963
1602702532921,640,-0.43310547,0.7880249,-0.46173096
1602702532923,641,-0.43237305,0.7885132,-0.46881104
1602702532924,642,-0.42529297,0.7885132,-0.46368408
1602702532924,643,-0.4255371,0.7929077,-0.46392822
1602702532928,644,-0.43188477,0.7868042,-0.47076416
1602702532928,645,-0.4267578,0.789978,-0.46661377
1602702532928,646,-0.42529297,0.7885132,-0.46368408
1602702532928,647,-0.43041992,0.78582764,-0.4661255
1602702532929,648,-0.4267578,0.789978,-0.46661377
1602702532931,649,-0.43359375,0.7875366,-0.46636963
1602702532931,650,-0.42797852,0.78656006,-0.46636963
1602702532931,651,-0.42797852,0.78656006,-0.46636963
1602702532935,652,-0.43237305,0.7885132,-0.46881104
1602702532935,653,-0.43432617,0.7826538,-0.47662354
1602702532935,654,-0.43237305,0.7885132,-0.46881104
1602702532936,655,-0.43066406,0.7909546,-0.46221924
1602702532936,656,-0.43188477,0.7868042,-0.47076416
1602702532936,657,-0.43188477,0.7868042,-0.47076416
1602702532938,658,-0.43286133,0.7838745,-0.47076416
1602702532939,659,-0.43041992,0.78582764,-0.4661255
1602702532939,660,-0.43041992,0.78582764,-0.4661255
1602702532941,661,-0.4321289,0.7880249,-0.46368408
1602702532941,662,-0.43359375,0.7875366,-0.46636963
1602702532941,663,-0.43359375,0.7875366,-0.46636963
1602702532944,664,-0.43432617,0.7826538,-0.47662354
1602702532945,665,-0.43432617,0.7826538,-0.47662354
1602702532946,666,-0.43066406,0.7909546,-0.46221924
1602702532946,667,-0.43066406,0.7909546,-0.46221924
1602702532948,668,-0.43286133,0.7838745,-0.47076416
1602702532950,669,-0.4321289,0.7880249,-0.46368408
1602702532950,670,-0.43286133,0.7838745,-0.47076416
1602702532951,671,-0.4321289,0.7880249,-0.46368408
1602702535449,672,-0.43359375,0.78900146,-0.46466064
1602702535449,673,-0.43359375,0.78900146,-0.46466064
1602702535450,674,-0.43359375,0.78900146,-0.46466064
1602702535453,675,-0.42871094,0.789978,-0.46588135
1602702535458,676,-0.42871094,0.789978,-0.46588135
1602702535459,677,-0.42871094,0.789978,-0.46588135
1602702535459,678,-0.4333496,0.78826904,-0.46539307
1602702535482,679,-0.4333496,0.78826904,-0.46539307
1602702535482,680,-0.4333496,0.78826904,-0.46539307
1602702535483,681,-0.43115234,0.7909546,-0.4673462
1602702535483,682,-0.43115234,0.7909546,-0.4673462
1602702535484,683,-0.4326172,0.78704834,-0.46221924
1602702535484,684,-0.4326172,0.78704834,-0.46221924
1602702535485,685,-0.43115234,0.7909546,-0.4673462
1602702535485,686,-0.43188477,0.79071045,-0.46124268
1602702535486,687,-0.43188477,0.79071045,-0.46124268
1602702535486,688,-0.42773438,0.78656006,-0.46221924
1602702535488,689,-0.42871094,0.79559326,-0.45635986
1602702535488,690,-0.42773438,0.78656006,-0.46221924
1602702535489,691,-0.4326172,0.78704834,-0.46221924
1602702535489,692,-0.42871094,0.79559326,-0.45635986
1602702535490,693,-0.42456055,0.79559326,-0.4590454
1602702535490,694,-0.43188477,0.79071045,-0.46124268
1602702535491,695,-0.4345703,0.78704834,-0.4570923
1602702535491,696,-0.42456055,0.79559326,-0.4590454
1602702535492,697,-0.4272461,0.7941284,-0.45635986
1602702535495,698,-0.42773438,0.78656006,-0.46221924
1602702535497,699,-0.42626953,0.791687,-0.4607544
1602702535502,700,-0.42871094,0.79559326,-0.45635986
1602702535503,701,-0.4345703,0.78704834,-0.4570923
1602702535503,702,-0.42993164,0.79608154,-0.4590454
1602702535507,703,-0.4272461,0.7941284,-0.45635986
1602702535508,704,-0.42895508,0.79119873,-0.4649048
1602702535509,705,-0.42456055,0.79559326,-0.4590454
1602702535511,706,-0.42626953,0.791687,-0.4607544
1602702535519,707,-0.4345703,0.78704834,-0.4570923
1602702535536,708,-0.42993164,0.79608154,-0.4590454
1602702535537,709,-0.4272461,0.7941284,-0.45635986
1602702535538,710,-0.42456055,0.8016968,-0.44586182
1602702535538,711,-0.42407227,0.79022217,-0.4492798
1602702535539,712,-0.42895508,0.79119873,-0.4649048
1602702535539,713,-0.42626953,0.791687,-0.4607544
1602702535540,714,-0.42456055,0.8016968,-0.44586182
1602702535541,715,-0.4260254,0.7987671,-0.45098877
1602702535547,716,-0.42993164,0.79608154,-0.4590454
1602702535547,717,-0.42041016,0.79315186,-0.456604
1602702535547,718,-0.42407227,0.79022217,-0.4492798
1602702535548,719,-0.42895508,0.79119873,-0.4649048
1602702535550,720,-0.42285156,0.79559326,-0.45635986
1602702535551,721,-0.4260254,0.7987671,-0.45098877
1602702535551,722,-0.42407227,0.7938843,-0.45928955
1602702535554,723,-0.42456055,0.8016968,-0.44586182
1602702535561,724,-0.42041016,0.79315186,-0.4602661
1602702535562,725,-0.42041016,0.79315186,-0.456604
1602702535562,726,-0.4267578,0.7914429,-0.45806885
1602702535562,727,-0.42407227,0.79022217,-0.4492798
1602702535563,728,-0.42285156,0.79559326,-0.45635986
1602702535571,729,-0.4272461,0.7953491,-0.46417236
1602702535571,730,-0.4260254,0.7987671,-0.45098877
1602702535572,731,-0.42407227,0.7938843,-0.45928955
1602702535574,732,-0.42041016,0.79315186,-0.456604
1602702535574,733,-0.42041016,0.79315186,-0.4602661
1602702535578,734,-0.4248047,0.7938843,-0.46148682
1602702535580,735,-0.4267578,0.7914429,-0.45806885
1602702535581,736,-0.42700195,0.79364014,-0.45806885
1602702535583,737,-0.4272461,0.7953491,-0.46417236
1602702535587,738,-0.42797852,0.7885132,-0.46246338
1602702535588,739,-0.42285156,0.79559326,-0.45635986
1602702535589,740,-0.4248047,0.7938843,-0.46148682
1602702535591,741,-0.42797852,0.7938843,-0.4661255
1602702535595,742,-0.42700195,0.79364014,-0.45806885
1602702535596,743,-0.42407227,0.7938843,-0.45928955
1602702535596,744,-0.4272461,0.789978,-0.46417236
1602702535597,745,-0.42797852,0.7885132,-0.46246338
1602702535598,746,-0.42041016,0.79315186,-0.4602661
1602702535600,747,-0.42797852,0.7938843,-0.4661255
1602702535601,748,-0.42944336,0.78900146,-0.47003174
1602702535604,749,-0.4267578,0.7914429,-0.45806885
1602702535604,750,-0.4272461,0.789978,-0.46417236
1602702535604,751,-0.42773438,0.7897339,-0.46368408
1602702535609,752,-0.4272461,0.7953491,-0.46417236
1602702535609,753,-0.42944336,0.78900146,-0.47003174
1602702535610,754,-0.43066406,0.78778076,-0.4727173
1602702535610,755,-0.4248047,0.7938843,-0.46148682
1602702535610,756,-0.42773438,0.7897339,-0.46368408
1602702535612,757,-0.42749023,0.793396,-0.4673462
1602702535616,758,-0.43066406,0.78778076,-0.4727173
1602702535617,759,-0.42749023,0.793396,-0.4673462
1602702535618,760,-0.42700195,0.79364014,-0.45806885
1602702535621,761,-0.42797852,0.7885132,-0.46246338
1602702535622,762,-0.42797852,0.7938843,-0.4661255
1602702535624,763,-0.4272461,0.789978,-0.46417236
1602702535626,764,-0.42944336,0.78900146,-0.47003174
1602702535628,765,-0.42773438,0.7897339,-0.46368408
1602702535630,766,-0.43066406,0.78778076,-0.4727173
1602702535631,767,-0.42749023,0.793396,-0.4673462
1602702537947,768,-0.42993164,0.7843628,-0.46710205
1602702537953,769,-0.43041992,0.7904663,-0.4656372
1602702537955,770,-0.42993164,0.7843628,-0.46710205
1602702537956,771,-0.42749023,0.7897339,-0.46588135
1602702537956,772,-0.43041992,0.7904663,-0.4656372
1602702537971,773,-0.43066406,0.78778076,-0.46661377
1602702537973,774,-0.42993164,0.7843628,-0.46710205
1602702537974,775,-0.42749023,0.7897339,-0.46588135
1602702537975,776,-0.43066406,0.78778076,-0.46661377
1602702537975,777,-0.43066406,0.79022217,-0.4668579
1602702537975,778,-0.43041992,0.7904663,-0.4656372
1602702537975,779,-0.42895508,0.789978,-0.4685669
1602702537976,780,-0.42749023,0.7897339,-0.46588135
1602702537976,781,-0.43066406,0.79022217,-0.4668579
1602702537978,782,-0.43066406,0.78778076,-0.46661377
1602702537978,783,-0.42895508,0.789978,-0.4685669
1602702537985,784,-0.43066406,0.79022217,-0.4668579
1602702537987,785,-0.43188477,0.7885132,-0.46099854
1602702537988,786,-0.43188477,0.7885132,-0.46099854
1602702537989,787,-0.42895508,0.789978,-0.4685669
1602702537990,788,-0.42895508,0.78826904,-0.47027588
1602702537990,789,-0.43188477,0.7885132,-0.46099854
1602702537998,790,-0.42944336,0.795105,-0.4541626
1602702537999,791,-0.42895508,0.78826904,-0.47027588
1602702538000,792,-0.42895508,0.78826904,-0.47027588
1602702538002,793,-0.42944336,0.795105,-0.4541626
1602702538003,794,-0.42651367,0.78948975,-0.46002197
1602702538004,795,-0.42944336,0.795105,-0.4541626
1602702538004,796,-0.42919922,0.7926636,-0.45367432
1602702538011,797,-0.42651367,0.78948975,-0.46002197
1602702538011,798,-0.42651367,0.78948975,-0.46002197
1602702538011,799,-0.42651367,0.7941284,-0.46173096
1602702538011,800,-0.42919922,0.7926636,-0.45367432
1602702538011,801,-0.42919922,0.7926636,-0.45367432
1602702538012,802,-0.42944336,0.7929077,-0.46124268
1602702538015,803,-0.42651367,0.7941284,-0.46173096
1602702538015,804,-0.42651367,0.7941284,-0.46173096
1602702538016,805,-0.4309082,0.79193115,-0.4607544
1602702538017,806,-0.42944336,0.7929077,-0.46124268
1602702538018,807,-0.42944336,0.7929077,-0.46124268
1602702538023,808,-0.4309082,0.79193115,-0.4607544
1602702538023,809,-0.4309082,0.79193115,-0.4607544
1602702538023,810,-0.42700195,0.7914429,-0.46173096
1602702538024,811,-0.42700195,0.7914429,-0.46173096
1602702538024,812,-0.43041992,0.7929077,-0.46832275
1602702538024,813,-0.43041992,0.7929077,-0.46832275
1602702538024,814,-0.4255371,0.80096436,-0.4492798
1602702538026,815,-0.42700195,0.7914429,-0.46173096
1602702538027,816,-0.4272461,0.7875366,-0.46002197
1602702538030,817,-0.43041992,0.7929077,-0.46832275
1602702538030,818,-0.4255371,0.80096436,-0.4492798
1602702538030,819,-0.42944336,0.793396,-0.45611572
1602702538031,820,-0.4255371,0.80096436,-0.4492798
1602702538034,821,-0.4272461,0.7875366,-0.46002197
1602702538034,822,-0.42456055,0.7975464,-0.45635986
1602702538034,823,-0.4272461,0.7875366,-0.46002197
1602702538037,824,-0.42944336,0.793396,-0.45611572
1602702538037,825,-0.4243164,0.7938843,-0.4517212
1602702538037,826,-0.42944336,0.793396,-0.45611572
1602702538039,827,-0.42456055,0.7975464,-0.45635986
1602702538040,828,-0.4255371,0.7909546,-0.45928955
1602702538042,829,-0.42626953,0.79486084,-0.46002197
1602702538043,830,-0.4243164,0.7938843,-0.4517212
1602702538043,831,-0.42456055,0.7975464,-0.45635986
1602702538043,832,-0.4255371,0.7909546,-0.45928955
1602702538045,833,-0.42797852,0.78656006,-0.4673462
1602702538045,834,-0.4243164,0.7938843,-0.4517212
1602702538045,835,-0.42626953,0.79486084,-0.46002197
1602702538047,836,-0.4255371,0.7909546,-0.45928955
1602702538048,837,-0.42797852,0.78656006,-0.4673462
1602702538049,838,-0.42626953,0.79486084,-0.46002197
1602702538051,839,-0.42578125,0.79901123,-0.45318604
1602702538052,840,-0.42578125,0.79901123,-0.45318604
1602702538052,841,-0.42797852,0.78656006,-0.4673462
1602702538052,842,-0.42407227,0.7885132,-0.46124268
1602702538054,843,-0.42407227,0.7885132,-0.46124268
1602702538054,844,-0.42578125,0.79901123,-0.45318604
1602702538055,845,-0.42651367,0.79193115,-0.4644165
1602702538057,846,-0.42407227,0.7885132,-0.46124268
1602702538059,847,-0.42529297,0.79193115,-0.46270752
1602702538059,848,-0.42651367,0.79193115,-0.4644165
1602702538059,849,-0.42651367,0.79193115,-0.4644165
1602702538060,850,-0.42871094,0.78900146,-0.46636963
1602702538062,851,-0.42529297,0.79193115,-0.46270752
1602702538063,852,-0.42529297,0.79193115,-0.46270752
1602702538063,853,-0.42797852,0.7929077,-0.4656372
1602702538065,854,-0.42871094,0.78900146,-0.46636963
1602702538065,855,-0.42871094,0.78900146,-0.46636963
1602702538065,856,-0.42456055,0.78948975,-0.46466064
1602702538068,857,-0.42797852,0.7929077,-0.4656372
1602702538068,858,-0.42797852,0.7929077,-0.4656372
1602702538068,859,-0.43041992,0.7892456,-0.46514893
1602702538070,860,-0.42456055,0.78948975,-0.46466064
1602702538071,861,-0.42456055,0.78948975,-0.46466064
1602702538072,862,-0.43041992,0.7892456,-0.46514893
1602702538073,863,-0.43041992,0.7892456,-0.46514893
1602702540446,864,-0.4284668,0.7946167,-0.46368408
1602702540457,865,-0.4284668,0.7946167,-0.46368408
1602702540458,866,-0.4284668,0.7946167,-0.46368408
1602702540459,867,-0.4272461,0.7855835,-0.46588135
1602702540460,868,-0.4272461,0.7855835,-0.46588135
1602702540461,869,-0.4272461,0.79193115,-0.46905518
1602702540465,870,-0.4272461,0.79193115,-0.46905518
1602702540469,871,-0.42822266,0.78582764,-0.46783447
1602702540470,872,-0.4272461,0.7855835,-0.46588135
1602702540470,873,-0.42822266,0.78582764,-0.46783447
1602702540470,874,-0.43066406,0.7855835,-0.4680786
1602702540471,875,-0.43066406,0.7855835,-0.4680786
1602702540472,876,-0.4272461,0.79193115,-0.46905518
1602702540478,877,-0.42822266,0.78582764,-0.46783447
1602702540479,878,-0.43041992,0.78826904,-0.4673462
1602702540479,879,-0.43066406,0.7855835,-0.4680786
1602702540483,880,-0.42919922,0.78948975,-0.47320557
1602702540483,881,-0.43041992,0.78826904,-0.4673462
1602702540483,882,-0.43041992,0.78826904,-0.4673462
1602702540484,883,-0.42919922,0.78948975,-0.47320557
1602702540489,884,-0.4326172,0.7880249,-0.4661255
1602702540489,885,-0.42919922,0.78948975,-0.47320557
1602702540490,886,-0.4326172,0.7880249,-0.4661255
1602702540490,887,-0.42895508,0.7838745,-0.46759033
1602702540493,888,-0.4326172,0.7880249,-0.4661255
1602702540494,889,-0.42895508,0.7838745,-0.46759033
1602702540494,890,-0.42993164,0.79119873,-0.4661255
1602702540497,891,-0.42895508,0.7838745,-0.46759033
1602702540498,892,-0.42993164,0.79119873,-0.4661255
1602702540498,893,-0.4321289,0.789978,-0.4631958
1602702540500,894,-0.4321289,0.789978,-0.4631958
1602702540509,895,-0.42993164,0.79119873,-0.4661255
1602702540510,896,-0.42919922,0.7872925,-0.46514893
1602702540510,897,-0.42919922,0.7872925,-0.46514893
1602702540510,898,-0.4321289,0.789978,-0.4631958
1602702540511,899,-0.42895508,0.79241943,-0.46710205
1602702540511,900,-0.42895508,0.79241943,-0.46710205
1602702540511,901,-0.42919922,0.7872925,-0.46514893
1602702540512,902,-0.43017578,0.79022217,-0.46466064
1602702540512,903,-0.43017578,0.79022217,-0.46466064
1602702540512,904,-0.42895508,0.79241943,-0.46710205
1602702540513,905,-0.43139648,0.7863159,-0.46148682
1602702540514,906,-0.43139648,0.7863159,-0.46148682
1602702540518,907,-0.43017578,0.79022217,-0.46466064
1602702540518,908,-0.42993164,0.789978,-0.458313
1602702540518,909,-0.42993164,0.789978,-0.458313
1602702540519,910,-0.4284668,0.78582764,-0.47149658
1602702540520,911,-0.43139648,0.7863159,-0.46148682
1602702540522,912,-0.4267578,0.7963257,-0.4590454
1602702540523,913,-0.42993164,0.789978,-0.458313
1602702540525,914,-0.42919922,0.7863159,-0.45733643
1602702540529,915,-0.4284668,0.78582764,-0.47149658
1602702540529,916,-0.4284668,0.78582764,-0.47149658
1602702540530,917,-0.42944336,0.7929077,-0.4570923
1602702540530,918,-0.4267578,0.7963257,-0.4590454
1602702540533,919,-0.42919922,0.80096436,-0.45562744
1602702540534,920,-0.4267578,0.7963257,-0.4590454
1602702540534,921,-0.42919922,0.7863159,-0.45733643
1602702540536,922,-0.42626953,0.7880249,-0.4595337
1602702540542,923,-0.42944336,0.7929077,-0.4570923
1602702540543,924,-0.42919922,0.7863159,-0.45733643
1602702540543,925,-0.43066406,0.79681396,-0.45489502
1602702540544,926,-0.42919922,0.80096436,-0.45562744
1602702540544,927,-0.42138672,0.7929077,-0.45343018
1602702540544,928,-0.42944336,0.7929077,-0.4570923
1602702540545,929,-0.42626953,0.7880249,-0.4595337
1602702540548,930,-0.42773438,0.79193115,-0.45391846
1602702540549,931,-0.43066406,0.79681396,-0.45489502
1602702540549,932,-0.42919922,0.80096436,-0.45562744
1602702540558,933,-0.42456055,0.7970581,-0.4570923
1602702540558,934,-0.42138672,0.7929077,-0.45343018
1602702540559,935,-0.42626953,0.7880249,-0.4595337
1602702540559,936,-0.4248047,0.79901123,-0.44976807
1602702540560,937,-0.43066406,0.79681396,-0.45489502
1602702540560,938,-0.42016602,0.8019409,-0.4451294
1602702540560,939,-0.42138672,0.7929077,-0.45343018
1602702540561,940,-0.42773438,0.79193115,-0.45391846
1602702540561,941,-0.4206543,0.79730225,-0.44976807
1602702540561,942,-0.42456055,0.7970581,-0.4570923
1602702540562,943,-0.42773438,0.79193115,-0.45391846
1602702540565,944,-0.41845703,0.79852295,-0.45074463
1602702540565,945,-0.4248047,0.79901123,-0.44976807
1602702540566,946,-0.42456055,0.7970581,-0.4570923
1602702540568,947,-0.4194336,0.79852295,-0.45269775
1602702540571,948,-0.4248047,0.79901123,-0.44976807
1602702540571,949,-0.42016602,0.8019409,-0.4451294
1602702540571,950,-0.42016602,0.8019409,-0.4451294
1602702540573,951,-0.4206543,0.79730225,-0.44976807
1602702540575,952,-0.4206543,0.79730225,-0.44976807
1602702540579,953,-0.41845703,0.79852295,-0.45074463
1602702540579,954,-0.421875,0.7958374,-0.45343018
1602702540580,955,-0.4194336,0.79852295,-0.45269775
1602702540580,956,-0.41845703,0.79852295,-0.45074463
1602702540583,957,-0.421875,0.7958374,-0.45343018
1602702540583,958,-0.4194336,0.79852295,-0.45269775
1602702540586,959,-0.421875,0.7958374,-0.45343018
1602702543158,960,-0.421875,0.7958374,-0.45733643
1602702543158,961,-0.421875,0.7958374,-0.45733643
1602702543159,962,-0.421875,0.7958374,-0.45733643
1602702543159,963,-0.42211914,0.7941284,-0.46343994
1602702543160,964,-0.42211914,0.7941284,-0.46343994
1602702543161,965,-0.42211914,0.7941284,-0.46343994
1602702543169,966,-0.42163086,0.80023193,-0.45635986
1602702543170,967,-0.41748047,0.7953491,-0.45269775
1602702543171,968,-0.42163086,0.80023193,-0.45635986
1602702543172,969,-0.42333984,0.7965698,-0.46099854
1602702543177,970,-0.41748047,0.7953491,-0.45269775
1602702543178,971,-0.42163086,0.80023193,-0.45635986
1602702543179,972,-0.42041016,0.7994995,-0.45489502
1602702543184,973,-0.41748047,0.7953491,-0.45269775
1602702543185,974,-0.42260742,0.79559326,-0.46124268
1602702543185,975,-0.42333984,0.7965698,-0.46099854
1602702543186,976,-0.42333984,0.7965698,-0.46099854
1602702543206,977,-0.42041016,0.7994995,-0.45489502
1602702543207,978,-0.42041016,0.7994995,-0.45489502
1602702543207,979,-0.42504883,0.79559326,-0.4631958
1602702543208,980,-0.42260742,0.79559326,-0.46124268
1602702543209,981,-0.42260742,0.79559326,-0.46124268
1602702543209,982,-0.42285156,0.78826904,-0.4661255
1602702543210,983,-0.42504883,0.79559326,-0.4631958
1602702543210,984,-0.42504883,0.79559326,-0.4631958
1602702543211,985,-0.42333984,0.7970581,-0.45513916
1602702543211,986,-0.42285156,0.78826904,-0.4661255
1602702543212,987,-0.42285156,0.78826904,-0.4661255
1602702543212,988,-0.42504883,0.79437256,-0.4607544
1602702543212,989,-0.42333984,0.7970581,-0.45513916
1602702543213,990,-0.42333984,0.7970581,-0.45513916
1602702543213,991,-0.42382812,0.79241943,-0.4602661
1602702543213,992,-0.42504883,0.79437256,-0.4607544
1602702543213,993,-0.42504883,0.79437256,-0.4607544
1602702543214,994,-0.4248047,0.79022217,-0.46417236
1602702543215,995,-0.42382812,0.79241943,-0.4602661
1602702543217,996,-0.42407227,0.7875366,-0.46636963
1602702543217,997,-0.42382812,0.79241943,-0.4602661
1602702543218,998,-0.4248047,0.79022217,-0.46417236
1602702543220,999,-0.4267578,0.7914429,-0.4668579
1602702543220,1000,-0.4248047,0.79022217,-0.46417236
1602702543221,1001,-0.42407227,0.7875366,-0.46636963
1602702543221,1002,-0.42626953,0.7914429,-0.4661255
1602702543223,1003,-0.4267578,0.7914429,-0.4668579
1602702543226,1004,-0.42700195,0.78948975,-0.46954346
1602702543227,1005,-0.42407227,0.7875366,-0.46636963
1602702543227,1006,-0.42626953,0.7914429,-0.4661255
1602702543228,1007,-0.4267578,0.7914429,-0.4668579
1602702543228,1008,-0.42700195,0.78948975,-0.46954346
1602702543229,1009,-0.42626953,0.7914429,-0.4661255
1602702543233,1010,-0.43066406,0.78826904,-0.4685669
1602702543233,1011,-0.43066406,0.78826904,-0.4685669
1602702543234,1012,-0.42700195,0.78948975,-0.46954346
1602702543234,1013,-0.42700195,0.7838745,-0.47418213
1602702543234,1014,-0.43066406,0.78826904,-0.4685669
1602702543234,1015,-0.42773438,0.7958374,-0.46710205
1602702543235,1016,-0.42700195,0.7838745,-0.47418213
1602702543236,1017,-0.42700195,0.7838745,-0.47418213
1602702543237,1018,-0.42773438,0.7958374,-0.46710205
1602702543239,1019,-0.42773438,0.7958374,-0.46710205
1602702543240,1020,-0.42822266,0.7843628,-0.46539307
1602702543240,1021,-0.42822266,0.7843628,-0.46539307
1602702543241,1022,-0.42822266,0.7843628,-0.46539307
1602702543242,1023,-0.42944336,0.789978,-0.4710083
1602702543243,1024,-0.42944336,0.789978,-0.4710083
1602702543245,1025,-0.42700195,0.7914429,-0.46392822
1602702543245,1026,-0.42944336,0.789978,-0.4710083
1602702543246,1027,-0.42700195,0.7914429,-0.46392822
1602702543247,1028,-0.4296875,0.78704834,-0.46832275
1602702543248,1029,-0.4296875,0.78704834,-0.46832275
1602702543249,1030,-0.42700195,0.789978,-0.46392822
1602702543251,1031,-0.42700195,0.789978,-0.46392822
1602702543252,1032,-0.43139648,0.7885132,-0.47027588
1602702543254,1033,-0.43139648,0.7885132,-0.47027588
1602702543254,1034,-0.42700195,0.7914429,-0.46392822
1602702543255,1035,-0.4272461,0.7892456,-0.46343994
1602702543256,1036,-0.4272461,0.7892456,-0.46343994
1602702543257,1037,-0.42797852,0.7885132,-0.46343994
1602702543260,1038,-0.42797852,0.7885132,-0.46343994
1602702543260,1039,-0.4296875,0.78704834,-0.46832275
1602702543260,1040,-0.42822266,0.7926636,-0.46221924
1602702543260,1041,-0.42700195,0.789978,-0.46392822
1602702543261,1042,-0.42822266,0.7926636,-0.46221924
1602702543263,1043,-0.42749023,0.7914429,-0.46759033
1602702543263,1044,-0.43139648,0.7885132,-0.47027588
1602702543263,1045,-0.42749023,0.7914429,-0.46759033
1602702543264,1046,-0.43041992,0.79071045,-0.46051025
1602702543267,1047,-0.43041992,0.79071045,-0.46051025
1602702543267,1048,-0.4272461,0.7892456,-0.46343994
1602702543267,1049,-0.42529297,0.79608154,-0.46002197
1602702543268,1050,-0.42529297,0.79608154,-0.46002197
1602702543269,1051,-0.42797852,0.7885132,-0.46343994
1602702543271,1052,-0.42822266,0.7926636,-0.46221924
1602702543273,1053,-0.42749023,0.7914429,-0.46759033
1602702543274,1054,-0.43041992,0.79071045,-0.46051025
1602702543275,1055,-0.42529297,0.79608154,-0.46002197
1602702545546,1056,-0.42456055,0.79315186,-0.46099854
1602702545560,1057,-0.42456055,0.79315186,-0.46099854
1602702545561,1058,-0.42456055,0.79315186,-0.46099854
1602702545562,1059,-0.4260254,0.79559326,-0.45977783
1602702545563,1060,-0.4260254,0.79559326,-0.45977783
1602702545564,1061,-0.4260254,0.79559326,-0.45977783
1602702545564,1062,-0.4267578,0.79364014,-0.46051025
1602702545564,1063,-0.4267578,0.79364014,-0.46051025
1602702545569,1064,-0.4267578,0.79364014,-0.46051025
1602702545570,1065,-0.42749023,0.7929077,-0.45880127
1602702545571,1066,-0.42749023,0.7929077,-0.45880127
1602702545576,1067,-0.42749023,0.7929077,-0.45880127
1602702545578,1068,-0.4260254,0.79803467,-0.4524536
1602702545579,1069,-0.41967773,0.793396,-0.46173096
1602702545583,1070,-0.41967773,0.79974365,-0.45758057
1602702545584,1071,-0.4260254,0.79803467,-0.4524536
1602702545584,1072,-0.4260254,0.79803467,-0.4524536
1602702545585,1073,-0.41601562,0.79559326,-0.44659424
1602702545595,1074,-0.41967773,0.793396,-0.46173096
1602702545596,1075,-0.41967773,0.793396,-0.46173096
1602702545596,1076,-0.42285156,0.7965698,-0.45098877
1602702545596,1077,-0.41967773,0.79974365,-0.45758057
1602702545596,1078,-0.41625977,0.8019409,-0.45196533
1602702545596,1079,-0.41601562,0.79559326,-0.44659424
1602702545596,1080,-0.41967773,0.79974365,-0.45758057
1602702545596,1081,-0.42163086,0.79071045,-0.45635986
1602702545605,1082,-0.41870117,0.7946167,-0.456604
1602702545605,1083,-0.42285156,0.7965698,-0.45098877
1602702545606,1084,-0.41601562,0.79559326,-0.44659424
1602702545606,1085,-0.4194336,0.79681396,-0.46417236
1602702545606,1086,-0.42285156,0.7965698,-0.45098877
1602702545607,1087,-0.41625977,0.8019409,-0.45196533
1602702545607,1088,-0.41796875,0.7977905,-0.458313
1602702545608,1089,-0.42163086,0.79071045,-0.45635986
1602702545608,1090,-0.41967773,0.7946167,-0.4553833
1602702545609,1091,-0.41625977,0.8019409,-0.45196533
1602702545612,1092,-0.41992188,0.79071045,-0.46173096
1602702545612,1093,-0.41870117,0.7946167,-0.456604
1602702545612,1094,-0.42163086,0.79071045,-0.45635986
1602702545614,1095,-0.42260742,0.7958374,-0.45611572
1602702545618,1096,-0.41870117,0.7946167,-0.456604
1602702545619,1097,-0.4194336,0.79681396,-0.46417236
1602702545619,1098,-0.421875,0.7938843,-0.46270752
1602702545619,1099,-0.41796875,0.7977905,-0.458313
1602702545619,1100,-0.4194336,0.79681396,-0.46417236
1602702545621,1101,-0.42407227,0.7904663,-0.4685669
1602702545622,1102,-0.41796875,0.7977905,-0.458313
1602702545624,1103,-0.41967773,0.7946167,-0.4553833
1602702545630,1104,-0.4248047,0.7914429,-0.4649048
1602702545631,1105,-0.41967773,0.7946167,-0.4553833
1602702545631,1106,-0.41992188,0.79071045,-0.46173096
1602702545635,1107,-0.41992188,0.79071045,-0.46173096
1602702545636,1108,-0.42773438,0.7892456,-0.4697876
1602702545636,1109,-0.42260742,0.7958374,-0.45611572
1602702545636,1110,-0.42333984,0.79730225,-0.4578247
1602702545636,1111,-0.42260742,0.7958374,-0.45611572
1602702545636,1112,-0.421875,0.7938843,-0.46270752
1602702545638,1113,-0.421875,0.7938843,-0.46270752
1602702545638,1114,-0.42407227,0.7904663,-0.4685669
1602702545639,1115,-0.42407227,0.7904663,-0.4685669
1602702545641,1116,-0.42407227,0.789978,-0.46368408
1602702545641,1117,-0.4248047,0.7914429,-0.4649048
1602702545642,1118,-0.4248047,0.7914429,-0.4649048
1602702545644,1119,-0.42456055,0.79119873,-0.46783447
1602702545646,1120,-0.42773438,0.7892456,-0.4697876
1602702545647,1121,-0.4248047,0.7914429,-0.4649048
1602702545649,1122,-0.42333984,0.79730225,-0.4578247
1602702545650,1123,-0.42773438,0.7892456,-0.4697876
1602702545650,1124,-0.42626953,0.791687,-0.46466064
1602702545656,1125,-0.42407227,0.789978,-0.46368408
1602702545657,1126,-0.42333984,0.79730225,-0.4578247
1602702545657,1127,-0.4267578,0.79071045,-0.46392822
1602702545659,1128,-0.42407227,0.789978,-0.46368408
1602702545659,1129,-0.42456055,0.79119873,-0.46783447
1602702545659,1130,-0.42456055,0.79119873,-0.46783447
1602702545660,1131,-0.42358398,0.79119873,-0.4656372
1602702545660,1132,-0.4248047,0.7914429,-0.4649048
1602702545662,1133,-0.4248047,0.7914429,-0.4649048
1602702545662,1134,-0.43017578,0.789978,-0.4595337
1602702545663,1135,-0.42626953,0.791687,-0.46466064
1602702545664,1136,-0.42626953,0.791687,-0.46466064
1602702545667,1137,-0.4267578,0.79071045,-0.46392822
1602702545667,1138,-0.43139648,0.7921753,-0.45220947
1602702545668,1139,-0.4267578,0.79071045,-0.46392822
1602702545671,1140,-0.42358398,0.79119873,-0.4656372
1602702545671,1141,-0.41455078,0.80804443,-0.43048096
1602702545671,1142,-0.42358398,0.79119873,-0.4656372
1602702545673,1143,-0.43017578,0.789978,-0.4595337
1602702545675,1144,-0.43017578,0.789978,-0.4595337
1602702545676,1145,-0.45117188,0.78118896,-0.47808838
1602702545676,1146,-0.43139648,0.7921753,-0.45220947
1602702545677,1147,-0.43139648,0.7921753,-0.45220947
1602702545679,1148,-0.41455078,0.80804443,-0.43048096
1602702545681,1149,-0.41455078,0.80804443,-0.43048096
1602702545682,1150,-0.45117188,0.78118896,-0.47808838
1602702545685,1151,-0.45117188,0.78118896,-0.47808838
