# Sensor position: Front pocket (trouser)
# Sensor side: Left
# Activity type: Running
# Activity code: 11
# Subject id: s1758499
timestamp,seq,accel_x,accel_y,accel_z
1602701830349,0,-0.28173828,-0.99664307,-0.10797119
1602701830350,1,-0.28173828,-0.99664307,-0.10797119
1602701830350,2,-0.2763672,-1.003479,-0.097473145
1602701830350,3,-0.28173828,-0.99664307,-0.10797119
1602701830351,4,-0.2763672,-1.003479,-0.097473145
1602701830353,5,-0.28027344,-0.99835205,-0.10235596
1602701830360,6,-0.28027344,-0.99835205,-0.10235596
1602701830361,7,-0.28027344,-0.99884033,-0.10015869
1602701830361,8,-0.28027344,-0.99884033,-0.10015869
1602701830361,9,-0.2788086,-0.99664307,-0.09918213
1602701830362,10,-0.2763672,-1.003479,-0.097473145
1602701830362,11,-0.2788086,-0.99664307,-0.09918213
1602701830363,12,-0.28027344,-0.99835205,-0.10235596
1602701830365,13,-0.2775879,-1.0032349,-0.10430908
1602701830367,14,-0.28027344,-0.99884033,-0.10015869
1602701830369,15,-0.27563477,-1.0005493,-0.09869385
1602701830373,16,-0.2788086,-0.99664307,-0.09918213
1602701830373,17,-0.2775879,-1.0032349,-0.10430908
1602701830374,18,-0.27734375,-1.0003052,-0.10723877
1602701830380,19,-0.2775879,-1.0032349,-0.10430908
1602701830381,20,-0.27563477,-1.0005493,-0.09869385
1602701830381,21,-0.27929688,-1.0020142,-0.10723877
1602701830381,22,-0.27734375,-1.0003052,-0.10723877
1602701830382,23,-0.27294922,-1.0037231,-0.09820557
1602701830382,24,-0.27563477,-1.0005493,-0.09869385
1602701830384,25,-0.27929688,-1.0020142,-0.10723877
1602701830389,26,-0.27734375,-1.0003052,-0.10723877
1602701830389,27,-0.27319336,-0.9990845,-0.10015869
1602701830389,28,-0.27294922,-1.0037231,-0.09820557
1602701830390,29,-0.27929688,-1.0020142,-0.10723877
1602701830399,30,-0.2680664,-1.0037231,-0.09942627
1602701830400,31,-0.27319336,-0.9990845,-0.10015869
1602701830400,32,-0.27294922,-1.0037231,-0.09820557
1602701830401,33,-0.2680664,-1.0037231,-0.09942627
1602701830401,34,-0.27319336,-0.9990845,-0.10015869
1602701830402,35,-0.28076172,-1.0007935,-0.097961426
1602701830402,36,-0.28076172,-1.0007935,-0.097961426
1602701830403,37,-0.2783203,-0.99884033,-0.09674072
1602701830403,38,-0.2783203,-0.99884033,-0.09674072
1602701830406,39,-0.2722168,-1.0039673,-0.093322754
1602701830407,40,-0.2680664,-1.0037231,-0.09942627
1602701830408,41,-0.2722168,-1.0039673,-0.093322754
1602701830411,42,-0.27441406,-1.0037231,-0.093322754
1602701830411,43,-0.28076172,-1.0007935,-0.097961426
1602701830412,44,-0.27441406,-1.0037231,-0.093322754
1602701830418,45,-0.2619629,-1.0037231,-0.101135254
1602701830418,46,-0.2783203,-0.99884033,-0.09674072
1602701830418,47,-0.2619629,-1.0037231,-0.101135254
1602701830422,48,-0.2800293,-1.0020142,-0.09625244
1602701830422,49,-0.2722168,-1.0039673,-0.093322754
1602701830423,50,-0.2800293,-1.0020142,-0.09625244
1602701830425,51,-0.27441406,-1.0037231,-0.093322754
1602701830430,52,-0.2619629,-1.0037231,-0.101135254
1602701830430,53,-0.27514648,-1.0015259,-0.0881958
1602701830430,54,-0.27514648,-1.0015259,-0.0881958
1602701830433,55,-0.2800293,-1.0020142,-0.09625244
1602701830434,56,-0.26879883,-1.0054321,-0.09234619
1602701830434,57,-0.26879883,-1.0054321,-0.09234619
1602701830436,58,-0.27514648,-1.0015259,-0.0881958
1602701830443,59,-0.26171875,-1.0046997,-0.11016846
1602701830445,60,-0.26171875,-1.0046997,-0.11016846
1602701830445,61,-0.26879883,-1.0054321,-0.09234619
1602701830445,62,-0.2775879,-0.9937134,-0.13214111
1602701830446,63,-0.2775879,-0.9937134,-0.13214111
1602701830446,64,-0.26171875,-1.0046997,-0.11016846
1602701830446,65,-0.28808594,-0.9993286,-0.090148926
1602701830446,66,-0.28808594,-0.9993286,-0.090148926
1602701830446,67,-0.2775879,-0.9937134,-0.13214111
1602701830448,68,-0.30566406,-1.0015259,-0.06378174
1602701830449,69,-0.28808594,-0.9993286,-0.090148926
1602701830451,70,-0.29907227,-0.9956665,-0.09210205
1602701830453,71,-0.30566406,-1.0015259,-0.06378174
1602701830454,72,-0.28979492,-0.9961548,-0.09820557
1602701830456,73,-0.29907227,-0.9956665,-0.09210205
1602701830459,74,-0.30688477,-0.9976196,-0.09283447
1602701830459,75,-0.30566406,-1.0015259,-0.06378174
1602701830460,76,-0.3112793,-0.9846802,-0.10235596
1602701830465,77,-0.29907227,-0.9956665,-0.09210205
1602701830465,78,-0.28979492,-0.9961548,-0.09820557
1602701830465,79,-0.3095703,-0.99346924,-0.09869385
1602701830469,80,-0.28979492,-0.9961548,-0.09820557
1602701830469,81,-0.30688477,-0.9976196,-0.09283447
1602701830469,82,-0.3256836,-1.0029907,-0.07086182
1602701830470,83,-0.30688477,-0.9976196,-0.09283447
1602701830479,84,-0.3112793,-0.9846802,-0.10235596
1602701830481,85,-0.26708984,-0.9990845,-0.06964111
1602701830481,86,-0.3112793,-0.9846802,-0.10235596
1602701830482,87,-0.3095703,-0.99346924,-0.09869385
1602701830482,88,-0.3071289,-1.0027466,-0.0803833
1602701830482,89,-0.3256836,-1.0029907,-0.07086182
1602701830482,90,-0.3095703,-0.99346924,-0.09869385
1602701830482,91,-0.26708984,-0.9990845,-0.06964111
1602701830483,92,-0.3256836,-1.0029907,-0.07086182
1602701830485,93,-0.26708984,-0.9990845,-0.06964111
1602701830488,94,-0.3071289,-1.0027466,-0.0803833
1602701830489,95,-0.3071289,-1.0027466,-0.0803833
1602701832849,96,-0.35546875,-1.0200806,-0.09259033
1602701832852,97,-0.35546875,-1.0200806,-0.09259033
1602701832852,98,-0.35546875,-1.0200806,-0.09259033
1602701832858,99,-0.27416992,-0.99542236,0.097351074
1602701832864,100,-0.27416992,-0.99542236,0.097351074
1602701832864,101,-0.27416992,-0.99542236,0.097351074
1602701832864,102,-0.0769043,-1.0593872,0.15228271
1602701832865,103,-0.0769043,-1.0593872,0.15228271
1602701832866,104,-0.0769043,-1.0593872,0.15228271
1602701832876,105,-0.2133789,-1.0576782,0.20819092
1602701832877,106,-0.2133789,-1.0576782,0.20819092
1602701832877,107,-0.021972656,-0.88409424,0.23919678
1602701832878,108,-0.2133789,-1.0576782,0.20819092
1602701832879,109,0.07299805,-0.94537354,0.33343506
1602701832880,110,-0.021972656,-0.88409424,0.23919678
1602701832881,111,-0.048583984,-0.94073486,0.25775146
1602701832881,112,-0.021972656,-0.88409424,0.23919678
1602701832881,113,0.07299805,-0.94537354,0.33343506
1602701832888,114,-0.35864258,-0.82110596,0.3102417
1602701832888,115,0.07299805,-0.94537354,0.33343506
1602701832889,116,-0.048583984,-0.94073486,0.25775146
1602701832889,117,0.0925293,-1.201477,0.06341553
1602701832889,118,-0.35864258,-0.82110596,0.3102417
1602701832890,119,-0.048583984,-0.94073486,0.25775146
1602701832890,120,-0.14770508,-0.92803955,-0.10455322
1602701832899,121,0.0925293,-1.201477,0.06341553
1602701832900,122,-0.35864258,-0.82110596,0.3102417
1602701832900,123,-0.5354004,-0.9956665,-0.023254395
1602701832900,124,0.0925293,-1.201477,0.06341553
1602701832901,125,-0.27807617,-0.91534424,-0.0068969727
1602701832901,126,-0.14770508,-0.92803955,-0.10455322
1602701832901,127,-0.14770508,-0.92803955,-0.10455322
1602701832902,128,-0.5354004,-0.9956665,-0.023254395
1602701832906,129,-0.38842773,-1.0838013,0.007751465
1602701832906,130,-0.5354004,-0.9956665,-0.023254395
1602701832907,131,-0.24731445,-1.1860962,0.11151123
1602701832907,132,-0.27807617,-0.91534424,-0.0068969727
1602701832914,133,-0.27807617,-0.91534424,-0.0068969727
1602701832914,134,-0.38134766,-0.9741821,0.117370605
1602701832915,135,-0.38842773,-1.0838013,0.007751465
1602701832915,136,-0.4453125,-1.1616821,0.1618042
1602701832916,137,-0.24731445,-1.1860962,0.11151123
1602701832916,138,-0.38842773,-1.0838013,0.007751465
1602701832916,139,-0.38134766,-0.9741821,0.117370605
1602701832921,140,-0.24731445,-1.1860962,0.11151123
1602701832921,141,-0.1965332,-1.8591919,0.20404053
1602701832922,142,-0.4453125,-1.1616821,0.1618042
1602701832922,143,-0.12402344,-1.1519165,0.12176514
1602701832932,144,-0.38134766,-0.9741821,0.117370605
1602701832933,145,-0.1965332,-1.8591919,0.20404053
1602701832933,146,-0.087890625,-0.11505127,-0.12408447
1602701832934,147,-0.12402344,-1.1519165,0.12176514
1602701832935,148,-0.18652344,-0.42803955,0.30413818
1602701832936,149,-0.4453125,-1.1616821,0.1618042
1602701832936,150,0.12695312,-1.3076782,-0.5960083
1602701832936,151,-0.087890625,-0.11505127,-0.12408447
1602701832936,152,-1.1311035,-1.7112427,-0.14019775
1602701832936,153,-0.18652344,-0.42803955,0.30413818
1602701832942,154,-0.1965332,-1.8591919,0.20404053
1602701832943,155,0.2697754,-1.484436,0.7609253
1602701832944,156,-0.12402344,-1.1519165,0.12176514
1602701832944,157,-0.4140625,-0.0803833,0.093444824
1602701832945,158,0.12695312,-1.3076782,-0.5960083
1602701832947,159,-0.022460938,-0.80548096,-0.19903564
1602701832952,160,-0.087890625,-0.11505127,-0.12408447
1602701832953,161,-1.1311035,-1.7112427,-0.14019775
1602701832953,162,-0.5180664,-1.9998169,0.08782959
1602701832953,163,0.2697754,-1.484436,0.7609253
1602701832955,164,-0.18652344,-0.42803955,0.30413818
1602701832957,165,-0.4140625,-0.0803833,0.093444824
1602701832962,166,0.12695312,-1.3076782,-0.5960083
1602701832963,167,-0.4699707,-1.15802,0.101745605
1602701832963,168,-0.022460938,-0.80548096,-0.19903564
1602701832964,169,0.09887695,-0.03692627,-0.07330322
1602701832964,170,-1.1311035,-1.7112427,-0.14019775
1602701832968,171,-0.5180664,-1.9998169,0.08782959
1602701832977,172,0.2697754,-1.484436,0.7609253
1602701832978,173,-0.4699707,-1.15802,0.101745605
1602701832979,174,-0.17822266,-0.41192627,0.124938965
1602701832982,175,-0.4140625,-0.0803833,0.093444824
1602701832982,176,-0.5263672,-1.6887817,-0.64923096
1602701832982,177,-0.2368164,-1.7544556,0.1954956
1602701832986,178,-0.022460938,-0.80548096,-0.19903564
1602701832987,179,0.09887695,-0.03692627,-0.07330322
1602701832988,180,-0.27856445,-0.88653564,0.37493896
1602701832988,181,-0.5180664,-1.9998169,0.08782959
1602701832990,182,-0.17822266,-0.41192627,0.124938965
1602701832998,183,-0.4699707,-1.15802,0.101745605
1602701833000,184,0.09887695,-0.03692627,-0.07330322
1602701833002,185,-0.17822266,-0.41192627,0.124938965
1602701833002,186,-0.5263672,-1.6887817,-0.64923096
1602701833006,187,-0.5263672,-1.6887817,-0.64923096
1602701833007,188,-0.2368164,-1.7544556,0.1954956
1602701833009,189,-0.27856445,-0.88653564,0.37493896
1602701833010,190,-0.2368164,-1.7544556,0.1954956
1602701833018,191,-0.27856445,-0.88653564,0.37493896
1602701835447,192,-0.12109375,-0.1531372,0.09320068
1602701835454,193,-0.26513672,-1.7183228,-0.24761963
1602701835455,194,-0.12109375,-0.1531372,0.09320068
1602701835456,195,-0.12109375,-0.1531372,0.09320068
1602701835457,196,-0.27612305,-1.7385864,0.13470459
1602701835462,197,-0.26513672,-1.7183228,-0.24761963
1602701835463,198,-0.26513672,-1.7183228,-0.24761963
1602701835464,199,-0.1081543,-0.7012329,-0.12310791
1602701835464,200,-0.27612305,-1.7385864,0.13470459
1602701835466,201,-0.27612305,-1.7385864,0.13470459
1602701835468,202,-0.1081543,-0.7012329,-0.12310791
1602701835469,203,-0.037841797,-0.33795166,0.36517334
1602701835469,204,-0.1081543,-0.7012329,-0.12310791
1602701835473,205,-0.037841797,-0.33795166,0.36517334
1602701835474,206,-0.35839844,-0.97125244,-0.36676025
1602701835474,207,-0.037841797,-0.33795166,0.36517334
1602701835475,208,-0.35839844,-0.97125244,-0.36676025
1602701835479,209,0.044921875,-1.4085083,0.032409668
1602701835479,210,-0.35839844,-0.97125244,-0.36676025
1602701835479,211,0.044921875,-1.4085083,0.032409668
1602701835480,212,-0.87841797,-1.4631958,0.03338623
1602701835483,213,0.044921875,-1.4085083,0.032409668
1602701835483,214,-0.87841797,-1.4631958,0.03338623
1602701835484,215,-0.87841797,-1.4631958,0.03338623
1602701835485,216,0.06298828,-0.862854,0.2929077
1602701835496,217,0.06298828,-0.862854,0.2929077
1602701835496,218,0.06298828,-0.862854,0.2929077
1602701835496,219,0.0087890625,-0.3743286,-0.00982666
1602701835497,220,0.0087890625,-0.3743286,-0.00982666
1602701835497,221,-0.6027832,-1.24469,-0.15509033
1602701835498,222,-0.6027832,-1.24469,-0.15509033
1602701835498,223,0.22241211,-1.8152466,0.24749756
1602701835498,224,0.22241211,-1.8152466,0.24749756
1602701835498,225,0.16772461,-1.2713013,0.12445068
1602701835499,226,0.16772461,-1.2713013,0.12445068
1602701835499,227,-0.4296875,-0.5610962,-0.004699707
1602701835499,228,-0.4296875,-0.5610962,-0.004699707
1602701835502,229,0.0087890625,-0.3743286,-0.00982666
1602701835503,230,-0.24389648,-0.1963501,-0.050598145
1602701835503,231,-0.24389648,-0.1963501,-0.050598145
1602701835508,232,-0.6027832,-1.24469,-0.15509033
1602701835508,233,-0.30737305,-1.2854614,0.021911621
1602701835509,234,-0.30737305,-1.2854614,0.021911621
1602701835509,235,-0.9489746,-1.3545532,0.039489746
1602701835509,236,-0.9489746,-1.3545532,0.039489746
1602701835509,237,-0.5734863,-1.562561,0.46038818
1602701835510,238,-0.5734863,-1.562561,0.46038818
1602701835513,239,0.22241211,-1.8152466,0.24749756
1602701835513,240,-0.07739258,-0.9678345,0.46868896
1602701835514,241,-0.07739258,-0.9678345,0.46868896
1602701835514,242,-0.20629883,-0.1482544,0.09466553
1602701835515,243,0.16772461,-1.2713013,0.12445068
1602701835519,244,-0.20629883,-0.1482544,0.09466553
1602701835520,245,0.10131836,-1.2527466,0.008972168
1602701835520,246,-0.4296875,-0.5610962,-0.004699707
1602701835520,247,-0.6125488,-1.895813,0.47821045
1602701835521,248,-0.24389648,-0.1963501,-0.050598145
1602701835521,249,0.10131836,-1.2527466,0.008972168
1602701835521,250,-0.056884766,-0.84454346,0.53778076
1602701835522,251,-0.30737305,-1.2854614,0.021911621
1602701835525,252,-0.6125488,-1.895813,0.47821045
1602701835525,253,-0.06323242,-0.16436768,0.016540527
1602701835526,254,-0.9489746,-1.3545532,0.039489746
1602701835526,255,-0.056884766,-0.84454346,0.53778076
1602701835530,256,-0.06323242,-0.16436768,0.016540527
1602701835530,257,-0.5734863,-1.562561,0.46038818
1602701835530,258,-0.1743164,-0.706604,0.14178467
1602701835531,259,-0.07739258,-0.9678345,0.46868896
1602701835531,260,-0.1743164,-0.706604,0.14178467
1602701835534,261,0.21166992,-0.9685669,-0.24737549
1602701835534,262,-0.20629883,-0.1482544,0.09466553
1602701835534,263,0.21166992,-0.9685669,-0.24737549
1602701835538,264,-0.9265137,-1.6328735,-0.02911377
1602701835538,265,0.10131836,-1.2527466,0.008972168
1602701835538,266,-0.9265137,-1.6328735,-0.02911377
1602701835539,267,-0.11376953,-1.894104,0.65789795
1602701835545,268,-0.11376953,-1.894104,0.65789795
1602701835545,269,-0.2939453,-0.5293579,0.22918701
1602701835546,270,-0.2939453,-0.5293579,0.22918701
1602701835546,271,-0.6125488,-1.895813,0.47821045
1602701835546,272,-0.23461914,-0.20928955,-0.047668457
1602701835546,273,-0.23461914,-0.20928955,-0.047668457
1602701835553,274,-0.056884766,-0.84454346,0.53778076
1602701835554,275,-0.13745117,-1.9998169,0.26654053
1602701835554,276,-0.06323242,-0.16436768,0.016540527
1602701835555,277,-0.78515625,-1.2637329,0.23724365
1602701835556,278,-0.13745117,-1.9998169,0.26654053
1602701835556,279,-0.1743164,-0.706604,0.14178467
1602701835556,280,-0.78515625,-1.2637329,0.23724365
1602701835556,281,0.21166992,-0.9685669,-0.24737549
1602701835557,282,-0.9265137,-1.6328735,-0.02911377
1602701835558,283,-0.11376953,-1.894104,0.65789795
1602701835560,284,-0.2939453,-0.5293579,0.22918701
1602701835561,285,-0.23461914,-0.20928955,-0.047668457
1602701835562,286,-0.13745117,-1.9998169,0.26654053
1602701835564,287,-0.78515625,-1.2637329,0.23724365
1602701837951,288,-0.041015625,-0.2539673,-0.08282471
1602701837964,289,-0.041015625,-0.2539673,-0.08282471
1602701837964,290,-0.041015625,-0.2539673,-0.08282471
1602701837965,291,0.12426758,-0.35430908,0.16595459
1602701837965,292,0.12426758,-0.35430908,0.16595459
1602701837966,293,0.12426758,-0.35430908,0.16595459
1602701837967,294,-0.37304688,-1.2297974,-0.5310669
1602701837968,295,-0.37304688,-1.2297974,-0.5310669
1602701837974,296,-0.37304688,-1.2297974,-0.5310669
1602701837975,297,-0.74731445,-1.7207642,-0.028381348
1602701837976,298,-0.74731445,-1.7207642,-0.028381348
1602701837976,299,-0.74731445,-1.7207642,-0.028381348
1602701837980,300,-0.17749023,-1.555481,0.70184326
1602701837985,301,-0.17749023,-1.555481,0.70184326
1602701837986,302,-0.40307617,-0.15386963,0.06414795
1602701837988,303,-0.17749023,-1.555481,0.70184326
1602701837992,304,-0.40307617,-0.15386963,0.06414795
1602701837993,305,-0.06542969,-0.81744385,0.105651855
1602701837994,306,-0.40307617,-0.15386963,0.06414795
1602701838001,307,-0.06542969,-0.81744385,0.105651855
1602701838003,308,-0.06542969,-0.81744385,0.105651855
1602701838004,309,-0.32910156,-1.9998169,0.055847168
1602701838008,310,-0.32910156,-1.9998169,0.055847168
1602701838008,311,-0.32910156,-1.9998169,0.055847168
1602701838009,312,-0.4909668,-0.92144775,0.23065186
1602701838014,313,-0.4909668,-0.92144775,0.23065186
1602701838014,314,-0.4909668,-0.92144775,0.23065186
1602701838015,315,0.030761719,0.09295654,-0.07940674
1602701838015,316,0.030761719,0.09295654,-0.07940674
1602701838015,317,-0.38793945,-0.9229126,0.051696777
1602701838018,318,-0.38793945,-0.9229126,0.051696777
1602701838018,319,0.030761719,0.09295654,-0.07940674
1602701838019,320,-0.15356445,-1.0100708,-0.53497314
1602701838022,321,-0.15356445,-1.0100708,-0.53497314
1602701838023,322,-0.38793945,-0.9229126,0.051696777
1602701838023,323,-0.7734375,-1.9998169,0.4923706
1602701838027,324,-0.7734375,-1.9998169,0.4923706
1602701838028,325,-0.15356445,-1.0100708,-0.53497314
1602701838028,326,-0.17089844,-0.8435669,0.34246826
1602701838028,327,-0.17089844,-0.8435669,0.34246826
1602701838031,328,-0.7734375,-1.9998169,0.4923706
1602701838032,329,-0.32470703,-0.074279785,-0.0049438477
1602701838032,330,-0.32470703,-0.074279785,-0.0049438477
1602701838036,331,-0.17089844,-0.8435669,0.34246826
1602701838036,332,-0.15673828,-1.7234497,0.082214355
1602701838037,333,-0.15673828,-1.7234497,0.082214355
1602701838040,334,-0.32470703,-0.074279785,-0.0049438477
1602701838040,335,-0.4951172,-1.7676392,0.086120605
1602701838040,336,-0.4951172,-1.7676392,0.086120605
1602701838041,337,-0.15673828,-1.7234497,0.082214355
1602701838054,338,-0.3618164,-0.62457275,-0.023986816
1602701838054,339,-0.3618164,-0.62457275,-0.023986816
1602701838054,340,0.053222656,-0.21929932,0.17059326
1602701838054,341,-0.4951172,-1.7676392,0.086120605
1602701838055,342,0.053222656,-0.21929932,0.17059326
1602701838055,343,-0.3618164,-0.62457275,-0.023986816
1602701838055,344,-0.22973633,-1.2217407,-0.26837158
1602701838056,345,0.053222656,-0.21929932,0.17059326
1602701838056,346,-0.22973633,-1.2217407,-0.26837158
1602701838056,347,-0.22973633,-1.2217407,-0.26837158
1602701838056,348,-0.49389648,-1.286438,-0.47418213
1602701838057,349,-0.49389648,-1.286438,-0.47418213
1602701838057,350,-0.31958008,-1.6914673,0.7116089
1602701838057,351,-0.49389648,-1.286438,-0.47418213
1602701838057,352,-0.32788086,-0.5432739,0.2975464
1602701838058,353,-0.31958008,-1.6914673,0.7116089
1602701838058,354,-0.4189453,-0.2612915,-0.16363525
1602701838059,355,-0.32788086,-0.5432739,0.2975464
1602701838060,356,-0.31958008,-1.6914673,0.7116089
1602701838065,357,-0.4189453,-0.2612915,-0.16363525
1602701838065,358,-0.0715332,-1.9998169,0.37347412
1602701838065,359,-0.32788086,-0.5432739,0.2975464
1602701838065,360,-0.63549805,-1.0444946,0.042663574
1602701838065,361,-0.0715332,-1.9998169,0.37347412
1602701838066,362,-0.4189453,-0.2612915,-0.16363525
1602701838066,363,-0.63549805,-1.0444946,0.042663574
1602701838066,364,-0.17163086,-0.21661377,0.008239746
1602701838068,365,-0.0715332,-1.9998169,0.37347412
1602701838068,366,-0.17163086,-0.21661377,0.008239746
1602701838070,367,-0.23291016,-0.47027588,0.3336792
1602701838071,368,-0.63549805,-1.0444946,0.042663574
1602701838071,369,-0.23291016,-0.47027588,0.3336792
1602701838072,370,0.13110352,-1.2520142,-0.5076294
1602701838074,371,0.13110352,-1.2520142,-0.5076294
1602701838075,372,-0.17163086,-0.21661377,0.008239746
1602701838076,373,-0.9897461,-1.7783813,0.030944824
1602701838077,374,-0.23291016,-0.47027588,0.3336792
1602701838079,375,0.2319336,-1.1882935,0.4491577
1602701838080,376,-0.9897461,-1.7783813,0.030944824
1602701838080,377,0.13110352,-1.2520142,-0.5076294
1602701838081,378,-0.32763672,-0.15264893,0.13519287
1602701838082,379,-0.9897461,-1.7783813,0.030944824
1602701838084,380,0.2319336,-1.1882935,0.4491577
1602701838085,381,0.2319336,-1.1882935,0.4491577
1602701838086,382,-0.32763672,-0.15264893,0.13519287
1602701838087,383,-0.32763672,-0.15264893,0.13519287
1602701840149,384,-0.47436523,-1.3796997,-0.022033691
1602701840155,385,-0.47436523,-1.3796997,-0.022033691
1602701840156,386,-0.47436523,-1.3796997,-0.022033691
1602701840156,387,-0.14160156,-1.9815063,0.04046631
1602701840156,388,-0.14160156,-1.9815063,0.04046631
1602701840157,389,-0.14160156,-1.9815063,0.04046631
1602701840159,390,-0.5161133,-1.0403442,0.007507324
1602701840170,391,-0.5161133,-1.0403442,0.007507324
1602701840170,392,0.26782227,0.10491943,0.019958496
1602701840170,393,-0.5161133,-1.0403442,0.007507324
1602701840171,394,0.26782227,0.10491943,0.019958496
1602701840171,395,-0.1977539,-1.0879517,0.04559326
1602701840172,396,0.26782227,0.10491943,0.019958496
1602701840172,397,-0.33081055,-0.76568604,-0.41192627
1602701840174,398,-0.1977539,-1.0879517,0.04559326
1602701840175,399,-0.1977539,-1.0879517,0.04559326
1602701840175,400,-0.33081055,-0.76568604,-0.41192627
1602701840175,401,-0.56225586,-1.9031372,0.21673584
1602701840176,402,-0.56225586,-1.9031372,0.21673584
1602701840176,403,-0.33081055,-0.76568604,-0.41192627
1602701840176,404,0.14868164,-0.9837036,0.3925171
1602701840180,405,0.14868164,-0.9837036,0.3925171
1602701840180,406,-0.56225586,-1.9031372,0.21673584
1602701840180,407,-0.41674805,-0.1531372,-0.0115356445
1602701840189,408,-0.41674805,-0.1531372,-0.0115356445
1602701840190,409,0.14868164,-0.9837036,0.3925171
1602701840190,410,-0.12841797,-1.9751587,0.0138549805
1602701840190,411,-0.12841797,-1.9751587,0.0138549805
1602701840190,412,-0.2097168,-1.4397583,-0.089660645
1602701840190,413,-0.2097168,-1.4397583,-0.089660645
1602701840190,414,-0.22875977,-0.7139282,0.08880615
1602701840191,415,-0.22875977,-0.7139282,0.08880615
1602701840191,416,0.087890625,-0.33428955,0.33807373
1602701840191,417,-0.41674805,-0.1531372,-0.0115356445
1602701840192,418,0.087890625,-0.33428955,0.33807373
1602701840206,419,-0.024414062,-1.4590454,-0.3970337
1602701840209,420,-0.12841797,-1.9751587,0.0138549805
1602701840209,421,-0.8039551,-1.350647,0.009216309
1602701840209,422,-0.2097168,-1.4397583,-0.089660645
1602701840209,423,0.17553711,-1.3557739,0.4364624
1602701840209,424,-0.22875977,-0.7139282,0.08880615
1602701840211,425,0.087890625,-0.33428955,0.33807373
1602701840212,426,-0.024414062,-1.4590454,-0.3970337
1602701840212,427,-0.024414062,-1.4590454,-0.3970337
1602701840213,428,0.16870117,-0.48736572,0.22894287
1602701840213,429,-0.8039551,-1.350647,0.009216309
1602701840214,430,-0.8039551,-1.350647,0.009216309
1602701840219,431,-0.7458496,-0.57598877,-0.31085205
1602701840220,432,0.17553711,-1.3557739,0.4364624
1602701840220,433,0.17553711,-1.3557739,0.4364624
1602701840220,434,0.16870117,-0.48736572,0.22894287
1602701840220,435,-0.18530273,-1.9998169,0.21087646
1602701840221,436,-0.7458496,-0.57598877,-0.31085205
1602701840221,437,0.16870117,-0.48736572,0.22894287
1602701840225,438,-0.6982422,-1.2988892,-0.24249268
1602701840226,439,-0.18530273,-1.9998169,0.21087646
1602701840226,440,-0.7458496,-0.57598877,-0.31085205
1602701840231,441,0.5419922,-0.33770752,-0.00592041
1602701840233,442,-0.18530273,-1.9998169,0.21087646
1602701840234,443,-0.6982422,-1.2988892,-0.24249268
1602701840234,444,-0.6982422,-1.2988892,-0.24249268
1602701840234,445,0.5419922,-0.33770752,-0.00592041
1602701840235,446,-0.30029297,-0.31304932,-0.16046143
1602701840237,447,0.5419922,-0.33770752,-0.00592041
1602701840238,448,-0.30029297,-0.31304932,-0.16046143
1602701840238,449,-0.1899414,-1.6060181,0.09320068
1602701840239,450,-0.30029297,-0.31304932,-0.16046143
1602701840243,451,-0.49609375,-1.3858032,-0.09942627
1602701840243,452,-0.1899414,-1.6060181,0.09320068
1602701840243,453,-0.1899414,-1.6060181,0.09320068
1602701840243,454,0.14624023,-1.2056274,0.42108154
1602701840248,455,-0.49609375,-1.3858032,-0.09942627
1602701840249,456,-0.49609375,-1.3858032,-0.09942627
1602701840250,457,0.04345703,-0.6795044,0.23553467
1602701840250,458,0.14624023,-1.2056274,0.42108154
1602701840250,459,-0.9675293,-1.1045532,0.24188232
1602701840253,460,0.14624023,-1.2056274,0.42108154
1602701840253,461,0.04345703,-0.6795044,0.23553467
1602701840253,462,-0.13305664,-1.8235474,-0.038146973
1602701840256,463,0.04345703,-0.6795044,0.23553467
1602701840256,464,-0.9675293,-1.1045532,0.24188232
1602701840256,465,-0.01171875,-1.2312622,0.14349365
1602701840260,466,-0.9675293,-1.1045532,0.24188232
1602701840260,467,-0.13305664,-1.8235474,-0.038146973
1602701840261,468,0.015136719,-0.286438,-0.08355713
1602701840262,469,-0.13305664,-1.8235474,-0.038146973
1602701840266,470,0.008056641,-0.28546143,0.124938965
1602701840266,471,-0.01171875,-1.2312622,0.14349365
1602701840266,472,-0.01171875,-1.2312622,0.14349365
1602701840266,473,0.015136719,-0.286438,-0.08355713
1602701840267,474,-0.1574707,-1.6060181,-0.07354736
1602701840268,475,0.015136719,-0.286438,-0.08355713
1602701840270,476,0.008056641,-0.28546143,0.124938965
1602701840271,477,0.008056641,-0.28546143,0.124938965
1602701840273,478,-0.1574707,-1.6060181,-0.07354736
1602701840274,479,-0.1574707,-1.6060181,-0.07354736
1602701842650,480,-0.66845703,-1.2024536,-0.105773926
1602701842652,481,-0.66845703,-1.2024536,-0.105773926
1602701842658,482,0.068115234,-1.2871704,0.25506592
1602701842659,483,-0.66845703,-1.2024536,-0.105773926
1602701842659,484,0.068115234,-1.2871704,0.25506592
1602701842659,485,0.068115234,-1.2871704,0.25506592
1602701842661,486,0.09716797,-0.5984497,0.46185303
1602701842666,487,0.09716797,-0.5984497,0.46185303
1602701842668,488,0.09716797,-0.5984497,0.46185303
1602701842668,489,-1.1611328,-0.93756104,-0.09503174
1602701842669,490,-1.1611328,-0.93756104,-0.09503174
1602701842669,491,-1.1611328,-0.93756104,-0.09503174
1602701842677,492,0.083984375,-1.9629517,0.43548584
1602701842678,493,0.083984375,-1.9629517,0.43548584
1602701842678,494,0.083984375,-1.9629517,0.43548584
1602701842679,495,-0.26098633,-1.2178345,0.09539795
1602701842679,496,-0.26098633,-1.2178345,0.09539795
1602701842680,497,0.06591797,-0.40997314,0.082458496
1602701842680,498,-0.26098633,-1.2178345,0.09539795
1602701842684,499,0.06591797,-0.40997314,0.082458496
1602701842685,500,-0.1081543,-0.2185669,-0.11871338
1602701842685,501,-0.1081543,-0.2185669,-0.11871338
1602701842688,502,0.06591797,-0.40997314,0.082458496
1602701842689,503,0.53466797,-1.2078247,-0.2649536
1602701842694,504,-0.1081543,-0.2185669,-0.11871338
1602701842695,505,0.53466797,-1.2078247,-0.2649536
1602701842695,506,-1.421875,-1.6482544,0.10296631
1602701842696,507,-1.421875,-1.6482544,0.10296631
1602701842700,508,0.53466797,-1.2078247,-0.2649536
1602701842700,509,0.001953125,-1.5401001,0.3378296
1602701842701,510,0.001953125,-1.5401001,0.3378296
1602701842701,511,-0.04321289,-0.642395,0.46307373
1602701842706,512,-1.421875,-1.6482544,0.10296631
1602701842706,513,-0.04321289,-0.642395,0.46307373
1602701842706,514,0.001953125,-1.5401001,0.3378296
1602701842707,515,-0.6467285,-0.4998169,0.0927124
1602701842707,516,-0.6467285,-0.4998169,0.0927124
1602701842708,517,-0.04321289,-0.642395,0.46307373
1602701842713,518,0.14916992,-1.9998169,0.17010498
1602701842714,519,0.14916992,-1.9998169,0.17010498
1602701842715,520,-0.1652832,-1.3677368,0.16912842
1602701842715,521,-0.1652832,-1.3677368,0.16912842
1602701842715,522,-0.6467285,-0.4998169,0.0927124
1602701842719,523,0.26367188,0.11053467,-0.27716064
1602701842719,524,0.26367188,0.11053467,-0.27716064
1602701842719,525,0.14916992,-1.9998169,0.17010498
1602701842727,526,-0.2626953,-0.9121704,0.49212646
1602701842727,527,-0.2626953,-0.9121704,0.49212646
1602701842728,528,-0.1652832,-1.3677368,0.16912842
1602701842728,529,-0.12207031,-1.3164673,-0.62628174
1602701842729,530,-0.12207031,-1.3164673,-0.62628174
1602701842729,531,-1.2585449,-1.1433716,0.11859131
1602701842729,532,0.26367188,0.11053467,-0.27716064
1602701842729,533,0.20214844,-1.4353638,0.5692749
1602701842731,534,-1.2585449,-1.1433716,0.11859131
1602701842738,535,-0.2614746,-0.2949829,0.090026855
1602701842739,536,-0.2626953,-0.9121704,0.49212646
1602701842739,537,0.20214844,-1.4353638,0.5692749
1602701842744,538,-0.12207031,-1.3164673,-0.62628174
1602701842745,539,-0.084472656,-1.1521606,0.11859131
1602701842745,540,-0.2614746,-0.2949829,0.090026855
1602701842746,541,0.017578125,-1.9998169,0.25750732
1602701842746,542,-0.084472656,-1.1521606,0.11859131
1602701842748,543,-0.18139648,-1.0166626,0.26507568
1602701842749,544,0.017578125,-1.9998169,0.25750732
1602701842753,545,-1.2585449,-1.1433716,0.11859131
1602701842754,546,-0.05908203,0.14031982,-0.09234619
1602701842754,547,0.20214844,-1.4353638,0.5692749
1602701842757,548,0.033447266,-0.755188,0.39788818
1602701842758,549,-0.18139648,-1.0166626,0.26507568
1602701842758,550,-0.2614746,-0.2949829,0.090026855
1602701842758,551,-0.05908203,0.14031982,-0.09234619
1602701842758,552,0.020019531,-1.2241821,-0.40899658
1602701842761,553,-0.084472656,-1.1521606,0.11859131
1602701842761,554,0.033447266,-0.755188,0.39788818
1602701842761,555,-0.92578125,-1.8550415,-0.20928955
1602701842761,556,0.017578125,-1.9998169,0.25750732
1602701842763,557,0.020019531,-1.2241821,-0.40899658
1602701842764,558,-0.18139648,-1.0166626,0.26507568
1602701842766,559,-0.92578125,-1.8550415,-0.20928955
1602701842767,560,0.3203125,-1.6651001,0.7177124
1602701842767,561,-0.05908203,0.14031982,-0.09234619
1602701842769,562,0.3203125,-1.6651001,0.7177124
1602701842769,563,-0.6994629,-0.1453247,0.13372803
1602701842770,564,0.033447266,-0.755188,0.39788818
1602701842772,565,-0.6994629,-0.1453247,0.13372803
1602701842772,566,0.2331543,-0.80010986,-0.02520752
1602701842773,567,0.020019531,-1.2241821,-0.40899658
1602701842775,568,0.2331543,-0.80010986,-0.02520752
1602701842776,569,-0.92578125,-1.8550415,-0.20928955
1602701842777,570,-0.122558594,-1.9998169,0.109802246
1602701842778,571,0.3203125,-1.6651001,0.7177124
1602701842781,572,-0.6994629,-0.1453247,0.13372803
1602701842781,573,-0.122558594,-1.9998169,0.109802246
1602701842782,574,0.2331543,-0.80010986,-0.02520752
1602701842784,575,-0.122558594,-1.9998169,0.109802246
1602701845548,576,-0.35083008,-1.0982056,0.23895264
1602701845555,577,-0.35083008,-1.0982056,0.23895264
1602701845557,578,-0.35083008,-1.0982056,0.23895264
1602701845558,579,0.005859375,0.17230225,-0.17828369
1602701845559,580,0.005859375,0.17230225,-0.17828369
1602701845564,581,0.005859375,0.17230225,-0.17828369
1602701845564,582,-0.26611328,-0.90411377,0.42010498
1602701845565,583,-0.26611328,-0.90411377,0.42010498
1602701845566,584,-0.26611328,-0.90411377,0.42010498
1602701845571,585,0.076171875,-0.92510986,-0.67559814
1602701845572,586,0.076171875,-0.92510986,-0.67559814
1602701845573,587,0.076171875,-0.92510986,-0.67559814
1602701845577,588,-0.9772949,-1.9998169,0.08074951
1602701845581,589,-0.9772949,-1.9998169,0.08074951
1602701845581,590,-0.9772949,-1.9998169,0.08074951
1602701845581,591,0.32885742,-1.4190063,0.6156616
1602701845588,592,0.32885742,-1.4190063,0.6156616
1602701845589,593,0.32885742,-1.4190063,0.6156616
1602701845592,594,-0.50512695,-0.09869385,0.11053467
1602701845598,595,-0.50512695,-0.09869385,0.11053467
1602701845599,596,-0.50512695,-0.09869385,0.11053467
1602701845606,597,-0.03149414,-0.88287354,-0.038391113
1602701845607,598,-0.03149414,-0.88287354,-0.038391113
1602701845622,599,-0.03149414,-0.88287354,-0.038391113
1602701845623,600,-0.037597656,-1.9998169,0.11517334
1602701845623,601,-0.30541992,-1.2300415,0.09564209
1602701845623,602,-0.18823242,0.33758545,-0.17047119
1602701845623,603,-0.037597656,-1.9998169,0.11517334
1602701845624,604,-0.037597656,-1.9998169,0.11517334
1602701845624,605,-0.30541992,-1.2300415,0.09564209
1602701845624,606,-0.30541992,-1.2300415,0.09564209
1602701845625,607,-0.18823242,0.33758545,-0.17047119
1602701845625,608,-0.18823242,0.33758545,-0.17047119
1602701845625,609,-0.07763672,-0.88726807,0.4467163
1602701845626,610,-0.07763672,-0.88726807,0.4467163
1602701845626,611,-0.02319336,-1.1265259,-0.6782837
1602701845626,612,-0.07763672,-0.88726807,0.4467163
1602701845627,613,-0.02319336,-1.1265259,-0.6782837
1602701845627,614,-0.92700195,-1.9998169,-0.03717041
1602701845628,615,-0.92700195,-1.9998169,-0.03717041
1602701845630,616,-0.02319336,-1.1265259,-0.6782837
1602701845630,617,0.41796875,-1.3023071,0.6034546
1602701845631,618,0.41796875,-1.3023071,0.6034546
1602701845636,619,-0.92700195,-1.9998169,-0.03717041
1602701845637,620,-0.42016602,-0.0881958,0.08807373
1602701845637,621,-0.42016602,-0.0881958,0.08807373
1602701845637,622,0.41796875,-1.3023071,0.6034546
1602701845638,623,-0.0793457,-0.8633423,-0.011291504
1602701845638,624,-0.0793457,-0.8633423,-0.011291504
1602701845638,625,-0.42016602,-0.0881958,0.08807373
1602701845645,626,-0.063964844,-1.9998169,0.23406982
1602701845645,627,-0.0793457,-0.8633423,-0.011291504
1602701845645,628,-0.063964844,-1.9998169,0.23406982
1602701845646,629,-0.26733398,-1.1238403,0.21356201
1602701845646,630,-0.26733398,-1.1238403,0.21356201
1602701845647,631,-0.063964844,-1.9998169,0.23406982
1602701845649,632,-0.010986328,-0.07891846,-0.039123535
1602701845649,633,-0.010986328,-0.07891846,-0.039123535
1602701845650,634,-0.26733398,-1.1238403,0.21356201
1602701845651,635,-0.25512695,-0.6218872,0.26678467
1602701845658,636,-0.010986328,-0.07891846,-0.039123535
1602701845658,637,-0.25512695,-0.6218872,0.26678467
1602701845658,638,-0.25512695,-0.6218872,0.26678467
1602701845658,639,0.0087890625,-1.2576294,-0.4998169
1602701845658,640,0.0087890625,-1.2576294,-0.4998169
1602701845660,641,0.0087890625,-1.2576294,-0.4998169
1602701845662,642,-0.9458008,-1.772522,0.10028076
1602701845662,643,-0.9458008,-1.772522,0.10028076
1602701845662,644,-0.9458008,-1.772522,0.10028076
1602701845663,645,0.32885742,-1.260315,0.4821167
1602701845665,646,0.32885742,-1.260315,0.4821167
1602701845666,647,-0.21240234,-0.21588135,0.09881592
1602701845667,648,-0.21240234,-0.21588135,0.09881592
1602701845669,649,-0.47973633,-1.1812134,-0.09844971
1602701845675,650,-0.007080078,-1.9512329,0.045837402
1602701845676,651,0.32885742,-1.260315,0.4821167
1602701845676,652,-0.47973633,-1.1812134,-0.09844971
1602701845676,653,-0.21240234,-0.21588135,0.09881592
1602701845677,654,-0.007080078,-1.9512329,0.045837402
1602701845677,655,-0.47973633,-1.1812134,-0.09844971
1602701845680,656,-0.25585938,-1.0750122,0.0680542
1602701845680,657,-0.25585938,-1.0750122,0.0680542
1602701845680,658,-0.007080078,-1.9512329,0.045837402
1602701845681,659,-0.06665039,-0.117492676,0.17523193
1602701845683,660,-0.25585938,-1.0750122,0.0680542
1602701845683,661,-0.06665039,-0.117492676,0.17523193
1602701845684,662,-0.33154297,-0.7127075,0.19818115
1602701845686,663,-0.06665039,-0.117492676,0.17523193
1602701845686,664,-0.33154297,-0.7127075,0.19818115
1602701845686,665,0.038330078,-1.3032837,-0.32989502
1602701845688,666,-0.33154297,-0.7127075,0.19818115
1602701845689,667,0.038330078,-1.3032837,-0.32989502
1602701845692,668,0.038330078,-1.3032837,-0.32989502
1602701845693,669,-1.0202637,-1.4458618,0.0021362305
1602701845693,670,-1.0202637,-1.4458618,0.0021362305
1602701845694,671,-1.0202637,-1.4458618,0.0021362305
1602701848050,672,-0.15185547,-1.1538696,0.4882202
1602701848065,673,-0.25830078,-0.41827393,0.16571045
1602701848066,674,-0.15185547,-1.1538696,0.4882202
1602701848066,675,-0.50634766,-0.47662354,-0.09307861
1602701848068,676,-0.15185547,-1.1538696,0.4882202
1602701848068,677,-0.25830078,-0.41827393,0.16571045
1602701848069,678,-0.28320312,-1.9998169,0.20648193
1602701848070,679,-0.50634766,-0.47662354,-0.09307861
1602701848084,680,-0.32495117,-1.0613403,0.19158936
1602701848085,681,-0.25830078,-0.41827393,0.16571045
1602701848085,682,-0.28320312,-1.9998169,0.20648193
1602701848085,683,-0.24633789,-0.5811157,-0.06451416
1602701848085,684,-0.50634766,-0.47662354,-0.09307861
1602701848086,685,-0.32495117,-1.0613403,0.19158936
1602701848086,686,-0.28320312,-1.9998169,0.20648193
1602701848087,687,-0.32495117,-1.0613403,0.19158936
1602701848088,688,-0.42944336,-0.54156494,0.64642334
1602701848088,689,-0.24633789,-0.5811157,-0.06451416
1602701848092,690,-0.24633789,-0.5811157,-0.06451416
1602701848092,691,-0.3413086,-1.5054321,-0.30059814
1602701848093,692,-0.42944336,-0.54156494,0.64642334
1602701848095,693,-0.42944336,-0.54156494,0.64642334
1602701848096,694,-0.33081055,-1.0161743,-0.31793213
1602701848096,695,-0.3413086,-1.5054321,-0.30059814
1602701848098,696,-0.5571289,-1.0669556,0.022399902
1602701848100,697,-0.27319336,-0.770813,0.11810303
1602701848102,698,-0.3413086,-1.5054321,-0.30059814
1602701848105,699,-0.33447266,-0.30767822,0.004333496
1602701848105,700,-0.33081055,-1.0161743,-0.31793213
1602701848109,701,-0.40185547,-1.4172974,0.25238037
1602701848111,702,-0.5571289,-1.0669556,0.022399902
1602701848111,703,-0.33081055,-1.0161743,-0.31793213
1602701848111,704,-0.27319336,-0.770813,0.11810303
1602701848113,705,-0.19677734,-1.4551392,0.276062
1602701848117,706,-0.1550293,-1.0247192,0.152771
1602701848117,707,-0.5571289,-1.0669556,0.022399902
1602701848117,708,-0.33447266,-0.30767822,0.004333496
1602701848121,709,-0.27319336,-0.770813,0.11810303
1602701848121,710,-0.22241211,-0.7246704,0.14984131
1602701848122,711,-0.33447266,-0.30767822,0.004333496
1602701848124,712,-0.40185547,-1.4172974,0.25238037
1602701848125,713,-0.40185547,-1.4172974,0.25238037
1602701848131,714,-0.19677734,-1.4551392,0.276062
1602701848131,715,-0.7314453,-0.3567505,0.121032715
1602701848132,716,-0.19677734,-1.4551392,0.276062
1602701848132,717,0.17260742,-1.0442505,0.010925293
1602701848133,718,-0.1550293,-1.0247192,0.152771
1602701848133,719,-0.1550293,-1.0247192,0.152771
1602701848134,720,-0.22241211,-0.7246704,0.14984131
1602701848138,721,-1.2561035,-1.2337036,-0.07867432
1602701848138,722,-0.22241211,-0.7246704,0.14984131
1602701848138,723,-0.7314453,-0.3567505,0.121032715
1602701848139,724,-0.6237793,-1.1487427,-0.07476807
1602701848140,725,-0.7314453,-0.3567505,0.121032715
1602701848148,726,-0.42285156,-1.1013794,0.43670654
1602701848148,727,0.17260742,-1.0442505,0.010925293
1602701848148,728,0.17260742,-1.0442505,0.010925293
1602701848149,729,-1.2561035,-1.2337036,-0.07867432
1602701848149,730,-1.2561035,-1.2337036,-0.07867432
1602701848149,731,-0.1352539,-0.49102783,0.14910889
1602701848149,732,-0.6237793,-1.1487427,-0.07476807
1602701848150,733,-0.6237793,-1.1487427,-0.07476807
1602701848150,734,-0.42285156,-1.1013794,0.43670654
1602701848152,735,-0.42285156,-1.1013794,0.43670654
1602701848153,736,-0.1352539,-0.49102783,0.14910889
1602701848155,737,-0.1352539,-0.49102783,0.14910889
1602701848157,738,-0.33007812,-0.833313,0.055358887
1602701848158,739,-0.33007812,-0.833313,0.055358887
1602701848162,740,-0.4873047,-1.8987427,0.36688232
1602701848162,741,-0.33007812,-0.833313,0.055358887
1602701848163,742,-0.4873047,-1.8987427,0.36688232
1602701848163,743,-0.46899414,-1.2044067,0.4640503
1602701848168,744,-0.4873047,-1.8987427,0.36688232
1602701848168,745,-0.46899414,-1.2044067,0.4640503
1602701848168,746,-0.46899414,-1.2044067,0.4640503
1602701848170,747,-0.08081055,-0.22589111,0.13397217
1602701848171,748,-0.08081055,-0.22589111,0.13397217
1602701848171,749,-0.27319336,-0.32647705,0.19403076
1602701848171,750,-0.27319336,-0.32647705,0.19403076
1602701848173,751,0.2602539,-1.1785278,-0.113098145
1602701848174,752,0.2602539,-1.1785278,-0.113098145
1602701848174,753,-0.08081055,-0.22589111,0.13397217
1602701848175,754,-1.6928711,-1.2444458,-0.15875244
1602701848177,755,-1.6928711,-1.2444458,-0.15875244
1602701848179,756,0.18554688,-1.6026001,0.56585693
1602701848179,757,-0.27319336,-0.32647705,0.19403076
1602701848180,758,0.18554688,-1.6026001,0.56585693
1602701848181,759,-0.3857422,-0.50323486,0.29974365
1602701848183,760,-0.3857422,-0.50323486,0.29974365
1602701848183,761,0.2602539,-1.1785278,-0.113098145
1602701848183,762,-0.40283203,-0.47564697,-0.09649658
1602701848185,763,-0.40283203,-0.47564697,-0.09649658
1602701848188,764,-1.6928711,-1.2444458,-0.15875244
1602701848189,765,0.18554688,-1.6026001,0.56585693
1602701848191,766,-0.3857422,-0.50323486,0.29974365
1602701848192,767,-0.40283203,-0.47564697,-0.09649658
1602701850644,768,-0.030029297,-1.9998169,0.15203857
1602701850651,769,-0.030029297,-1.9998169,0.15203857
1602701850651,770,-0.9055176,-1.2427368,0.13787842
1602701850652,771,-0.030029297,-1.9998169,0.15203857
1602701850652,772,-0.9055176,-1.2427368,0.13787842
1602701850653,773,-0.034423828,-0.085510254,-0.1531372
1602701850653,774,-0.034423828,-0.085510254,-0.1531372
1602701850654,775,-0.32202148,-0.5029907,0.4303589
1602701850663,776,-0.9055176,-1.2427368,0.13787842
1602701850664,777,-0.32202148,-0.5029907,0.4303589
1602701850664,778,0.29418945,-1.0857544,-0.4446411
1602701850664,779,-0.034423828,-0.085510254,-0.1531372
1602701850665,780,-1.4135742,-1.6890259,-0.4788208
1602701850666,781,-0.32202148,-0.5029907,0.4303589
1602701850666,782,0.29418945,-1.0857544,-0.4446411
1602701850667,783,0.29418945,-1.0857544,-0.4446411
1602701850667,784,0.16186523,-1.6948853,0.7501831
1602701850672,785,-1.4135742,-1.6890259,-0.4788208
1602701850673,786,-1.4135742,-1.6890259,-0.4788208
1602701850674,787,0.16186523,-1.6948853,0.7501831
1602701850674,788,0.16186523,-1.6948853,0.7501831
1602701850675,789,-0.32885742,-0.37042236,0.27557373
1602701850677,790,-0.32885742,-0.37042236,0.27557373
1602701850679,791,-0.3310547,-0.25152588,-0.124572754
1602701850688,792,-0.32885742,-0.37042236,0.27557373
1602701850689,793,-0.23706055,-1.9998169,0.31072998
1602701850689,794,-0.3310547,-0.25152588,-0.124572754
1602701850689,795,-0.3310547,-0.25152588,-0.124572754
1602701850690,796,-0.23706055,-1.9998169,0.31072998
1602701850690,797,-0.6586914,-1.5298462,0.18621826
1602701850690,798,-0.23706055,-1.9998169,0.31072998
1602701850690,799,-0.6586914,-1.5298462,0.18621826
1602701850696,800,-0.11254883,-0.19000244,-0.24615479
1602701850696,801,-0.6586914,-1.5298462,0.18621826
1602701850696,802,-0.11254883,-0.19000244,-0.24615479
1602701850696,803,0.15258789,-0.081848145,0.19744873
1602701850698,804,-0.11254883,-0.19000244,-0.24615479
1602701850701,805,-0.080566406,-1.4539185,-0.22174072
1602701850702,806,0.15258789,-0.081848145,0.19744873
1602701850702,807,0.15258789,-0.081848145,0.19744873
1602701850703,808,-1.2832031,-1.3335571,-0.4282837
1602701850705,809,-0.080566406,-1.4539185,-0.22174072
1602701850711,810,0.33276367,-1.7034302,0.62664795
1602701850712,811,-0.080566406,-1.4539185,-0.22174072
1602701850712,812,-1.2832031,-1.3335571,-0.4282837
1602701850712,813,-1.2832031,-1.3335571,-0.4282837
1602701850713,814,-0.49072266,-0.30230713,0.23016357
1602701850713,815,0.33276367,-1.7034302,0.62664795
1602701850713,816,0.0029296875,-0.55133057,-0.117004395
1602701850714,817,0.33276367,-1.7034302,0.62664795
1602701850714,818,-0.49072266,-0.30230713,0.23016357
1602701850716,819,-0.12109375,-1.9998169,0.14715576
1602701850716,820,-0.49072266,-0.30230713,0.23016357
1602701850717,821,0.0029296875,-0.55133057,-0.117004395
1602701850720,822,-0.5019531,-1.2808228,0.1786499
1602701850720,823,0.0029296875,-0.55133057,-0.117004395
1602701850721,824,-0.12109375,-1.9998169,0.14715576
1602701850721,825,-0.12109375,-1.9998169,0.14715576
1602701850723,826,-0.064941406,-0.0725708,-0.12432861
1602701850724,827,-0.5019531,-1.2808228,0.1786499
1602701850726,828,0.0769043,-0.456604,0.5404663
1602701850726,829,-0.5019531,-1.2808228,0.1786499
1602701850733,830,-0.39990234,-1.1921997,-0.5864868
1602701850734,831,-0.064941406,-0.0725708,-0.12432861
1602701850734,832,-0.064941406,-0.0725708,-0.12432861
1602701850735,833,0.0769043,-0.456604,0.5404663
1602701850735,834,-1.0061035,-1.9204712,0.016540527
1602701850735,835,-0.39990234,-1.1921997,-0.5864868
1602701850735,836,0.0769043,-0.456604,0.5404663
1602701850735,837,-1.0061035,-1.9204712,0.016540527
1602701850736,838,0.32006836,-1.4334106,0.55462646
1602701850736,839,0.32006836,-1.4334106,0.55462646
1602701850738,840,-0.39990234,-1.1921997,-0.5864868
1602701850739,841,-1.0061035,-1.9204712,0.016540527
1602701850742,842,-0.36572266,-0.12164307,0.105163574
1602701850742,843,0.32006836,-1.4334106,0.55462646
1602701850742,844,-0.36572266,-0.12164307,0.105163574
1602701850744,845,-0.1928711,-0.9246216,0.016540527
1602701850746,846,-0.1928711,-0.9246216,0.016540527
1602701850746,847,-0.36572266,-0.12164307,0.105163574
1602701850746,848,-0.234375,-1.9998169,0.1359253
1602701850749,849,-0.234375,-1.9998169,0.1359253
1602701850749,850,-0.1928711,-0.9246216,0.016540527
1602701850750,851,-0.3659668,-1.3067017,0.13543701
1602701850752,852,-0.3659668,-1.3067017,0.13543701
1602701850752,853,-0.234375,-1.9998169,0.1359253
1602701850752,854,0.036621094,0.27679443,-0.15557861
1602701850756,855,0.036621094,0.27679443,-0.15557861
1602701850756,856,-0.3659668,-1.3067017,0.13543701
1602701850757,857,-0.22924805,-1.2454224,0.5223999
1602701850759,858,-0.22924805,-1.2454224,0.5223999
1602701850759,859,0.036621094,0.27679443,-0.15557861
1602701850759,860,-0.014160156,-0.5418091,-0.6782837
1602701850760,861,-0.014160156,-0.5418091,-0.6782837
1602701850763,862,-0.22924805,-1.2454224,0.5223999
1602701850764,863,-0.014160156,-0.5418091,-0.6782837
1602701853241,864,-0.8430176,-1.9998169,0.15740967
1602701853247,865,-0.8430176,-1.9998169,0.15740967
1602701853248,866,-0.8430176,-1.9998169,0.15740967
1602701853248,867,0.1850586,-1.0293579,0.41448975
1602701853248,868,0.1850586,-1.0293579,0.41448975
1602701853249,869,0.1850586,-1.0293579,0.41448975
1602701853249,870,-0.28735352,-0.13043213,0.090026855
1602701853250,871,-0.28735352,-0.13043213,0.090026855
1602701853255,872,-0.28735352,-0.13043213,0.090026855
1602701853255,873,-0.13232422,-1.7085571,-0.012268066
1602701853256,874,-0.13232422,-1.7085571,-0.012268066
1602701853256,875,-0.13232422,-1.7085571,-0.012268066
1602701853256,876,-0.12109375,-1.8140259,-0.05303955
1602701853256,877,-0.12109375,-1.8140259,-0.05303955
1602701853257,878,-0.12109375,-1.8140259,-0.05303955
1602701853258,879,-0.12548828,-1.0852661,0.07342529
1602701853265,880,-0.12548828,-1.0852661,0.07342529
1602701853265,881,-0.12548828,-1.0852661,0.07342529
1602701853265,882,-0.17236328,0.30926514,-0.13922119
1602701853266,883,-0.17236328,0.30926514,-0.13922119
1602701853266,884,-0.06958008,-1.3945923,0.17816162
1602701853266,885,-0.17236328,0.30926514,-0.13922119
1602701853266,886,-0.06958008,-1.3945923,0.17816162
1602701853268,887,-0.43530273,-0.7522583,-0.42877197
1602701853268,888,-0.43530273,-0.7522583,-0.42877197
1602701853270,889,-0.06958008,-1.3945923,0.17816162
1602701853270,890,-0.33398438,-1.9041138,0.29119873
1602701853271,891,-0.33398438,-1.9041138,0.29119873
1602701853272,892,-0.43530273,-0.7522583,-0.42877197
1602701853275,893,-0.33398438,-1.9041138,0.29119873
1602701853276,894,0.2055664,-0.99298096,0.4274292
1602701853276,895,0.2055664,-0.99298096,0.4274292
1602701853276,896,0.2055664,-0.99298096,0.4274292
1602701853276,897,-0.30322266,-0.19927979,0.066101074
1602701853279,898,-0.30322266,-0.19927979,0.066101074
1602701853281,899,-0.30322266,-0.19927979,0.066101074
1602701853281,900,-0.2619629,-1.9998169,0.019226074
1602701853282,901,-0.2619629,-1.9998169,0.019226074
1602701853282,902,-0.2619629,-1.9998169,0.019226074
1602701853283,903,-0.16308594,-1.3284302,-0.07476807
1602701853285,904,-0.16308594,-1.3284302,-0.07476807
1602701853285,905,-0.16308594,-1.3284302,-0.07476807
1602701853286,906,-0.14868164,-0.63409424,0.08856201
1602701853286,907,-0.14868164,-0.63409424,0.08856201
1602701853289,908,-0.14868164,-0.63409424,0.08856201
1602701853289,909,0.038330078,-0.36114502,0.27191162
1602701853289,910,0.038330078,-0.36114502,0.27191162
1602701853290,911,0.19799805,-1.2947388,-0.09429932
1602701853293,912,0.19799805,-1.2947388,-0.09429932
1602701853293,913,0.038330078,-0.36114502,0.27191162
1602701853294,914,-0.8540039,-1.437561,0.043884277
1602701853294,915,-0.8540039,-1.437561,0.043884277
1602701853301,916,0.19799805,-1.2947388,-0.09429932
1602701853301,917,0.080566406,-1.3015747,0.21624756
1602701853302,918,0.080566406,-1.3015747,0.21624756
1602701853302,919,-0.8540039,-1.437561,0.043884277
1602701853302,920,0.2841797,-0.80474854,0.35565186
1602701853302,921,0.2841797,-0.80474854,0.35565186
1602701853303,922,-0.548584,-0.39605713,0.016540527
1602701853303,923,0.080566406,-1.3015747,0.21624756
1602701853303,924,-0.40698242,-1.9998169,0.10882568
1602701853303,925,-0.548584,-0.39605713,0.016540527
1602701853304,926,-0.3125,-1.4312134,-0.016418457
1602701853304,927,-0.40698242,-1.9998169,0.10882568
1602701853309,928,0.2841797,-0.80474854,0.35565186
1602701853309,929,-0.009521484,-0.68927,-0.17730713
1602701853309,930,-0.3125,-1.4312134,-0.016418457
1602701853309,931,-0.548584,-0.39605713,0.016540527
1602701853309,932,-0.009521484,-0.68927,-0.17730713
1602701853309,933,0.20507812,-0.1843872,0.2579956
1602701853310,934,-0.40698242,-1.9998169,0.10882568
1602701853312,935,-0.2277832,-1.5818481,-0.014709473
1602701853313,936,0.20507812,-0.1843872,0.2579956
1602701853313,937,-0.3125,-1.4312134,-0.016418457
1602701853316,938,-0.45410156,-1.2068481,-0.06915283
1602701853317,939,-0.2277832,-1.5818481,-0.014709473
1602701853317,940,-0.009521484,-0.68927,-0.17730713
1602701853320,941,-0.09448242,-1.1807251,0.19769287
1602701853321,942,-0.45410156,-1.2068481,-0.06915283
1602701853324,943,0.20507812,-0.1843872,0.2579956
1602701853324,944,-0.2277832,-1.5818481,-0.014709473
1602701853324,945,0.25512695,-1.0171509,0.5914917
1602701853324,946,-0.45410156,-1.2068481,-0.06915283
1602701853325,947,-0.5817871,-0.69488525,0.04071045
1602701853326,948,-0.09448242,-1.1807251,0.19769287
1602701853329,949,-0.21142578,-1.6900024,0.30389404
1602701853329,950,-0.09448242,-1.1807251,0.19769287
1602701853329,951,0.25512695,-1.0171509,0.5914917
1602701853331,952,-0.5205078,-1.472229,0.12542725
1602701853333,953,-0.5817871,-0.69488525,0.04071045
1602701853333,954,0.25512695,-1.0171509,0.5914917
1602701853335,955,-0.21142578,-1.6900024,0.30389404
1602701853335,956,-0.5817871,-0.69488525,0.04071045
1602701853336,957,-0.5205078,-1.472229,0.12542725
1602701853338,958,-0.21142578,-1.6900024,0.30389404
1602701853339,959,-0.5205078,-1.472229,0.12542725
1602701855748,960,0.026123047,-0.75567627,-0.08306885
1602701855751,961,0.026123047,-0.75567627,-0.08306885
1602701855758,962,0.087402344,-0.16485596,-0.17193604
1602701855763,963,0.087402344,-0.16485596,-0.17193604
1602701855763,964,0.42993164,-1.076477,0.39300537
1602701855764,965,-0.70336914,-1.317688,-0.1687622
1602701855775,966,-0.10522461,-1.7202759,-0.006164551
1602701855776,967,0.42993164,-1.076477,0.39300537
1602701855776,968,0.026123047,-0.75567627,-0.08306885
1602701855776,969,-0.70336914,-1.317688,-0.1687622
1602701855776,970,0.087402344,-0.16485596,-0.17193604
1602701855776,971,-0.10522461,-1.7202759,-0.006164551
1602701855777,972,0.42993164,-1.076477,0.39300537
1602701855777,973,-0.07104492,-1.2771606,0.23480225
1602701855778,974,-0.07104492,-1.2771606,0.23480225
1602701855784,975,-0.31054688,-0.5252075,0.62420654
1602701855784,976,-0.70336914,-1.317688,-0.1687622
1602701855784,977,-0.31054688,-0.5252075,0.62420654
1602701855785,978,-0.10522461,-1.7202759,-0.006164551
1602701855785,979,-0.3251953,-1.0239868,0.06536865
1602701855785,980,-0.07104492,-1.2771606,0.23480225
1602701855788,981,-0.3251953,-1.0239868,0.06536865
1602701855796,982,-0.27929688,-1.9998169,-0.18341064
1602701855796,983,-0.31054688,-0.5252075,0.62420654
1602701855797,984,-0.27929688,-1.9998169,-0.18341064
1602701855798,985,-0.3251953,-1.0239868,0.06536865
1602701855798,986,0.044677734,-1.2119751,0.32269287
1602701855798,987,-0.27929688,-1.9998169,-0.18341064
1602701855799,988,0.17407227,-0.031555176,-0.2630005
1602701855799,989,0.044677734,-1.2119751,0.32269287
1602701855799,990,0.044677734,-1.2119751,0.32269287
1602701855799,991,0.17407227,-0.031555176,-0.2630005
1602701855799,992,-0.4260254,0.32733154,-0.05206299
1602701855800,993,0.17407227,-0.031555176,-0.2630005
1602701855800,994,-0.4260254,0.32733154,-0.05206299
1602701855805,995,0.44873047,-1.9998169,-0.10211182
1602701855807,996,0.44873047,-1.9998169,-0.10211182
1602701855807,997,-0.4260254,0.32733154,-0.05206299
1602701855807,998,-0.62280273,-1.1946411,0.1461792
1602701855807,999,-0.62280273,-1.1946411,0.1461792
1602701855807,1000,0.44873047,-1.9998169,-0.10211182
1602701855807,1001,-0.62280273,-1.1946411,0.1461792
1602701855808,1002,0.4909668,-1.5510864,0.3168335
1602701855812,1003,0.4909668,-1.5510864,0.3168335
1602701855812,1004,0.4909668,-1.5510864,0.3168335
1602701855812,1005,0.1184082,-0.73516846,0.8566284
1602701855814,1006,0.1184082,-0.73516846,0.8566284
1602701855814,1007,0.1184082,-0.73516846,0.8566284
1602701855814,1008,-0.52563477,-0.15020752,-0.18536377
1602701855816,1009,-0.52563477,-0.15020752,-0.18536377
1602701855816,1010,-0.52563477,-0.15020752,-0.18536377
1602701855816,1011,0.23608398,-1.4631958,0.17840576
1602701855817,1012,0.23608398,-1.4631958,0.17840576
1602701855818,1013,0.23608398,-1.4631958,0.17840576
1602701855820,1014,0.0048828125,-1.9998169,0.38641357
1602701855821,1015,0.0048828125,-1.9998169,0.38641357
1602701855821,1016,0.0048828125,-1.9998169,0.38641357
1602701855821,1017,0.3239746,-0.5232544,0.0026245117
1602701855824,1018,0.3239746,-0.5232544,0.0026245117
1602701855824,1019,0.3239746,-0.5232544,0.0026245117
1602701855824,1020,-0.041748047,0.09515381,0.11419678
1602701855826,1021,-0.041748047,0.09515381,0.11419678
1602701855827,1022,-0.041748047,0.09515381,0.11419678
1602701855827,1023,-0.15844727,-1.9998169,-0.0029907227
1602701855828,1024,-0.15844727,-1.9998169,-0.0029907227
1602701855829,1025,0.7397461,-0.34381104,-0.45318604
1602701855831,1026,0.7397461,-0.34381104,-0.45318604
1602701855831,1027,-0.15844727,-1.9998169,-0.0029907227
1602701855832,1028,-1.3103027,-1.3938599,-0.06866455
1602701855835,1029,-1.3103027,-1.3938599,-0.06866455
1602701855835,1030,0.7397461,-0.34381104,-0.45318604
1602701855835,1031,0.12011719,-1.1611938,0.57489014
1602701855837,1032,0.12011719,-1.1611938,0.57489014
1602701855838,1033,-1.3103027,-1.3938599,-0.06866455
1602701855838,1034,-0.4008789,-0.10455322,0.026550293
1602701855839,1035,-0.4008789,-0.10455322,0.026550293
1602701855842,1036,0.21826172,-1.7549438,0.2987671
1602701855842,1037,0.12011719,-1.1611938,0.57489014
1602701855842,1038,0.21826172,-1.7549438,0.2987671
1602701855844,1039,-0.4008789,-0.10455322,0.026550293
1602701855845,1040,-0.21411133,-1.8218384,0.35150146
1602701855845,1041,-0.21411133,-1.8218384,0.35150146
1602701855849,1042,0.21826172,-1.7549438,0.2987671
1602701855850,1043,0.16845703,-0.6885376,0.29022217
1602701855850,1044,0.16845703,-0.6885376,0.29022217
1602701855850,1045,-0.0925293,0.042663574,0.018981934
1602701855851,1046,-0.0925293,0.042663574,0.018981934
1602701855851,1047,-0.21411133,-1.8218384,0.35150146
1602701855853,1048,-0.2097168,-1.015686,0.17669678
1602701855853,1049,-0.2097168,-1.015686,0.17669678
1602701855854,1050,0.16845703,-0.6885376,0.29022217
1602701855857,1051,0.27124023,-0.84942627,-0.1404419
1602701855857,1052,0.27124023,-0.84942627,-0.1404419
1602701855858,1053,-0.0925293,0.042663574,0.018981934
1602701855859,1054,-0.2097168,-1.015686,0.17669678
1602701855860,1055,0.27124023,-0.84942627,-0.1404419
1602701858344,1056,-1.2561035,-1.9258423,0.19012451
1602701858348,1057,-1.2561035,-1.9258423,0.19012451
1602701858349,1058,-1.2561035,-1.9258423,0.19012451
1602701858349,1059,0.7590332,-1.4778442,0.64349365
1602701858354,1060,0.7590332,-1.4778442,0.64349365
1602701858356,1061,0.7590332,-1.4778442,0.64349365
1602701858356,1062,-0.45507812,-0.1921997,0.070007324
1602701858357,1063,-0.45507812,-0.1921997,0.070007324
1602701858362,1064,-0.45507812,-0.1921997,0.070007324
1602701858362,1065,-4.8828125E-4,-1.0042114,0.042663574
1602701858363,1066,-4.8828125E-4,-1.0042114,0.042663574
1602701858363,1067,0.13623047,-1.9998169,0.17352295
1602701858365,1068,0.13623047,-1.9998169,0.17352295
1602701858375,1069,-0.3569336,-1.1299438,0.31121826
1602701858375,1070,-4.8828125E-4,-1.0042114,0.042663574
1602701858375,1071,-0.3569336,-1.1299438,0.31121826
1602701858376,1072,0.13623047,-1.9998169,0.17352295
1602701858376,1073,0.010253906,0.14520264,-0.21685791
1602701858377,1074,-0.3569336,-1.1299438,0.31121826
1602701858377,1075,-0.14941406,-0.9014282,0.5631714
1602701858378,1076,0.010253906,0.14520264,-0.21685791
1602701858378,1077,-0.041992188,-0.99713135,-0.53985596
1602701858386,1078,0.010253906,0.14520264,-0.21685791
1602701858387,1079,-0.14941406,-0.9014282,0.5631714
1602701858387,1080,-0.6308594,-1.9998169,-0.06939697
1602701858387,1081,-0.14941406,-0.9014282,0.5631714
1602701858388,1082,0.390625,-1.4092407,0.5993042
1602701858388,1083,-0.041992188,-0.99713135,-0.53985596
1602701858389,1084,-0.041992188,-0.99713135,-0.53985596
1602701858389,1085,-0.6308594,-1.9998169,-0.06939697
1602701858389,1086,-0.47045898,-0.1741333,0.117370605
1602701858390,1087,-0.6308594,-1.9998169,-0.06939697
1602701858398,1088,0.390625,-1.4092407,0.5993042
1602701858399,1089,-0.16845703,-0.92803955,0.016540527
1602701858399,1090,0.390625,-1.4092407,0.5993042
1602701858400,1091,-0.47045898,-0.1741333,0.117370605
1602701858401,1092,0.140625,-1.9998169,0.12200928
1602701858402,1093,-0.16845703,-0.92803955,0.016540527
1602701858403,1094,-0.31347656,-1.1558228,0.16766357
1602701858404,1095,-0.47045898,-0.1741333,0.117370605
1602701858405,1096,0.061523438,0.0368042,-0.01739502
1602701858405,1097,0.140625,-1.9998169,0.12200928
1602701858408,1098,-0.16845703,-0.92803955,0.016540527
1602701858408,1099,-0.18334961,-0.5835571,0.17376709
1602701858408,1100,-0.31347656,-1.1558228,0.16766357
1602701858410,1101,0.140625,-1.9998169,0.12200928
1602701858411,1102,0.061523438,0.0368042,-0.01739502
1602701858414,1103,-0.31347656,-1.1558228,0.16766357
1602701858418,1104,-0.18334961,-0.5835571,0.17376709
1602701858420,1105,0.056884766,-1.2505493,-0.3526001
1602701858421,1106,0.056884766,-1.2505493,-0.3526001
1602701858421,1107,0.061523438,0.0368042,-0.01739502
1602701858422,1108,-0.77856445,-1.9453735,-0.0134887695
1602701858428,1109,-0.18334961,-0.5835571,0.17376709
1602701858428,1110,0.35864258,-1.2561646,0.5946655
1602701858428,1111,0.056884766,-1.2505493,-0.3526001
1602701858429,1112,-0.3251953,-0.13604736,0.09173584
1602701858429,1113,-0.77856445,-1.9453735,-0.0134887695
1602701858433,1114,-0.22070312,-0.87213135,-0.004699707
1602701858433,1115,-0.77856445,-1.9453735,-0.0134887695
1602701858434,1116,0.35864258,-1.2561646,0.5946655
1602701858439,1117,0.122558594,-1.9998169,0.14251709
1602701858439,1118,-0.3251953,-0.13604736,0.09173584
1602701858439,1119,0.35864258,-1.2561646,0.5946655
1602701858440,1120,-0.22070312,-0.87213135,-0.004699707
1602701858440,1121,-0.375,-1.2495728,0.11639404
1602701858443,1122,-0.3251953,-0.13604736,0.09173584
1602701858443,1123,0.122558594,-1.9998169,0.14251709
1602701858444,1124,0.048828125,-0.047424316,-0.13922119
1602701858445,1125,-0.22070312,-0.87213135,-0.004699707
1602701858446,1126,0.015136719,-0.76519775,0.41400146
1602701858448,1127,0.122558594,-1.9998169,0.14251709
1602701858449,1128,-0.16894531,-1.1340942,-0.7576294
1602701858454,1129,-0.375,-1.2495728,0.11639404
1602701858454,1130,-0.375,-1.2495728,0.11639404
1602701858454,1131,-0.52197266,-1.9653931,0.12664795
1602701858454,1132,0.048828125,-0.047424316,-0.13922119
1602701858456,1133,0.10229492,-1.1502075,0.49188232
1602701858459,1134,0.048828125,-0.047424316,-0.13922119
1602701858459,1135,0.015136719,-0.76519775,0.41400146
1602701858460,1136,-0.23876953,-0.19073486,0.1515503
1602701858463,1137,0.015136719,-0.76519775,0.41400146
1602701858463,1138,-0.16894531,-1.1340942,-0.7576294
1602701858464,1139,-0.04321289,-0.90411377,0.035827637
1602701858467,1140,-0.16894531,-1.1340942,-0.7576294
1602701858467,1141,-0.52197266,-1.9653931,0.12664795
1602701858467,1142,0.111083984,-1.9998169,0.07684326
1602701858471,1143,-0.52197266,-1.9653931,0.12664795
1602701858471,1144,0.10229492,-1.1502075,0.49188232
1602701858472,1145,-0.23876953,-0.19073486,0.1515503
1602701858478,1146,0.10229492,-1.1502075,0.49188232
1602701858478,1147,-0.04321289,-0.90411377,0.035827637
1602701858478,1148,-0.23876953,-0.19073486,0.1515503
1602701858479,1149,0.111083984,-1.9998169,0.07684326
1602701858479,1150,-0.04321289,-0.90411377,0.035827637
1602701858483,1151,0.111083984,-1.9998169,0.07684326
