# Sensor position: Wrist
# Sensor side: Left
# Activity type: Running
# Activity code: 11
# Subject id: s1758499
timestamp,seq,accel_x,accel_y,accel_z
1602697827444,0,0.8737793,-0.40875244,0.010681152
1602697827466,1,0.8737793,-0.40875244,0.010681152
1602697827467,2,0.87475586,-0.41363525,0.011169434
1602697827468,3,0.8737793,-0.40875244,0.010681152
1602697827469,4,0.87475586,-0.41363525,0.011169434
1602697827470,5,0.8696289,-0.4060669,0.009460449
1602697827470,6,0.8696289,-0.4060669,0.009460449
1602697827471,7,0.87475586,-0.41363525,0.011169434
1602697827472,8,0.8718262,-0.41168213,0.007507324
1602697827474,9,0.8696289,-0.4060669,0.009460449
1602697827474,10,0.8720703,-0.40411377,0.0028686523
1602697827475,11,0.8718262,-0.41168213,0.007507324
1602697827476,12,0.8725586,-0.39727783,0.004333496
1602697827477,13,0.8718262,-0.41168213,0.007507324
1602697827478,14,0.8720703,-0.40411377,0.0028686523
1602697827480,15,0.87841797,-0.39605713,0.011169434
1602697827488,16,0.8725586,-0.39727783,0.004333496
1602697827489,17,0.8720703,-0.40411377,0.0028686523
1602697827489,18,0.875,-0.39215088,0.00970459
1602697827490,19,0.8725586,-0.39727783,0.004333496
1602697827491,20,0.87841797,-0.39605713,0.011169434
1602697827491,21,0.8757324,-0.39971924,0.0036010742
1602697827494,22,0.87841797,-0.39605713,0.011169434
1602697827506,23,0.87231445,-0.39556885,0.0048217773
1602697827506,24,0.875,-0.39215088,0.00970459
1602697827507,25,0.875,-0.39215088,0.00970459
1602697827508,26,0.8757324,-0.39971924,0.0036010742
1602697827509,27,0.87280273,-0.40753174,0.0026245117
1602697827510,28,0.8757324,-0.39971924,0.0036010742
1602697827510,29,0.8684082,-0.40264893,1.8310547E-4
1602697827511,30,0.87231445,-0.39556885,0.0048217773
1602697827512,31,0.87231445,-0.39556885,0.0048217773
1602697827519,32,0.8688965,-0.39898682,0.006286621
1602697827520,33,0.87280273,-0.40753174,0.0026245117
1602697827520,34,0.87280273,-0.40753174,0.0026245117
1602697827522,35,0.8691406,-0.395813,0.015563965
1602697827524,36,0.8684082,-0.40264893,1.8310547E-4
1602697827533,37,0.87280273,-0.3970337,0.016296387
1602697827535,38,0.8684082,-0.40264893,1.8310547E-4
1602697827535,39,0.8688965,-0.39898682,0.006286621
1602697827535,40,0.8701172,-0.40704346,0.022155762
1602697827536,41,0.8691406,-0.395813,0.015563965
1602697827536,42,0.8688965,-0.39898682,0.006286621
1602697827536,43,0.87060547,-0.40802002,0.022644043
1602697827541,44,0.87280273,-0.3970337,0.016296387
1602697827542,45,0.8691406,-0.395813,0.015563965
1602697827542,46,0.86499023,-0.40753174,0.020202637
1602697827545,47,0.8701172,-0.40704346,0.022155762
1602697827547,48,0.87280273,-0.3970337,0.016296387
1602697827553,49,0.87060547,-0.40802002,0.022644043
1602697827555,50,0.8605957,-0.40118408,0.014587402
1602697827556,51,0.8701172,-0.40704346,0.022155762
1602697827556,52,0.86499023,-0.40753174,0.020202637
1602697827561,53,0.87060547,-0.40802002,0.022644043
1602697827562,54,0.86083984,-0.3994751,0.012878418
1602697827563,55,0.8605957,-0.40118408,0.014587402
1602697827568,56,0.86499023,-0.40753174,0.020202637
1602697827571,57,0.86083984,-0.3994751,0.012878418
1602697827576,58,0.85668945,-0.39801025,0.0138549805
1602697827578,59,0.8605957,-0.40118408,0.014587402
1602697827579,60,0.82373047,-0.40777588,0.014587402
1602697827580,61,0.85668945,-0.39801025,0.0138549805
1602697827586,62,0.82470703,-0.43023682,0.008239746
1602697827587,63,0.86083984,-0.3994751,0.012878418
1602697827588,64,0.82373047,-0.40777588,0.014587402
1602697827589,65,0.85668945,-0.39801025,0.0138549805
1602697827594,66,0.8652344,-0.47711182,0.0053100586
1602697827595,67,0.82470703,-0.43023682,0.008239746
1602697827595,68,0.82373047,-0.40777588,0.014587402
1602697827595,69,0.9055176,-0.69610596,0.032409668
1602697827595,70,0.8652344,-0.47711182,0.0053100586
1602697827599,71,0.82470703,-0.43023682,0.008239746
1602697827599,72,0.92211914,-0.9356079,0.0211792
1602697827600,73,0.8652344,-0.47711182,0.0053100586
1602697827601,74,0.9055176,-0.69610596,0.032409668
1602697827605,75,0.9055176,-0.69610596,0.032409668
1602697827605,76,0.9667969,-0.95880127,0.043884277
1602697827605,77,0.92211914,-0.9356079,0.0211792
1602697827606,78,0.92211914,-0.9356079,0.0211792
1602697827610,79,0.6345215,-0.43804932,-0.016174316
1602697827611,80,0.9667969,-0.95880127,0.043884277
1602697827611,81,0.9667969,-0.95880127,0.043884277
1602697827611,82,0.5344238,-0.0569458,-0.06842041
1602697827613,83,0.6345215,-0.43804932,-0.016174316
1602697827616,84,0.8598633,-0.17364502,-0.089904785
1602697827617,85,0.6345215,-0.43804932,-0.016174316
1602697827617,86,0.5344238,-0.0569458,-0.06842041
1602697827621,87,1.4042969,-1.0508423,0.058044434
1602697827621,88,0.5344238,-0.0569458,-0.06842041
1602697827621,89,0.8598633,-0.17364502,-0.089904785
1602697827623,90,0.8598633,-0.17364502,-0.089904785
1602697827625,91,1.4042969,-1.0508423,0.058044434
1602697827628,92,1.4042969,-1.0508423,0.058044434
1602697827629,93,0.9484863,-1.4768677,0.1461792
1602697827629,94,0.9484863,-1.4768677,0.1461792
1602697827630,95,0.9484863,-1.4768677,0.1461792
1602697829940,96,0.035888672,-0.9060669,0.14691162
1602697829946,97,0.035888672,-0.9060669,0.14691162
1602697829946,98,-0.49658203,-0.5737915,0.18743896
1602697829947,99,0.035888672,-0.9060669,0.14691162
1602697829947,100,0.0024414062,-1.4033813,0.44110107
1602697829947,101,-0.49658203,-0.5737915,0.18743896
1602697829947,102,-0.49658203,-0.5737915,0.18743896
1602697829947,103,0.0024414062,-1.4033813,0.44110107
1602697829948,104,1.5859375,-1.9998169,0.19158936
1602697829951,105,1.5859375,-1.9998169,0.19158936
1602697829952,106,0.0024414062,-1.4033813,0.44110107
1602697829952,107,0.96850586,-0.45025635,-0.0869751
1602697829952,108,1.5859375,-1.9998169,0.19158936
1602697829955,109,0.61083984,0.3739624,-0.22052002
1602697829956,110,0.96850586,-0.45025635,-0.0869751
1602697829956,111,0.96850586,-0.45025635,-0.0869751
1602697829957,112,0.7624512,-0.14849854,-0.1765747
1602697829959,113,0.61083984,0.3739624,-0.22052002
1602697829960,114,0.61083984,0.3739624,-0.22052002
1602697829960,115,0.9470215,-1.9998169,0.054870605
1602697829963,116,0.7624512,-0.14849854,-0.1765747
1602697829963,117,0.7624512,-0.14849854,-0.1765747
1602697829963,118,-0.11035156,-1.2659302,0.13787842
1602697829964,119,0.9470215,-1.9998169,0.054870605
1602697829968,120,0.9470215,-1.9998169,0.054870605
1602697829969,121,-0.7072754,-0.4578247,0.18231201
1602697829969,122,-0.11035156,-1.2659302,0.13787842
1602697829969,123,-0.11035156,-1.2659302,0.13787842
1602697829969,124,-0.61376953,-0.7593384,0.4052124
1602697829970,125,-0.7072754,-0.4578247,0.18231201
1602697829970,126,-0.7072754,-0.4578247,0.18231201
1602697829970,127,-0.61376953,-0.7593384,0.4052124
1602697829976,128,-0.61376953,-0.7593384,0.4052124
1602697829976,129,0.31982422,-1.9998169,0.4237671
1602697829976,130,0.7788086,-1.1550903,-0.058898926
1602697829977,131,0.31982422,-1.9998169,0.4237671
1602697829979,132,0.31982422,-1.9998169,0.4237671
1602697829980,133,0.5895996,-0.11895752,-0.27545166
1602697829981,134,0.7788086,-1.1550903,-0.058898926
1602697829985,135,0.7788086,-1.1550903,-0.058898926
1602697829985,136,0.51000977,0.08123779,-0.30743408
1602697829985,137,0.5895996,-0.11895752,-0.27545166
1602697829988,138,0.51000977,0.08123779,-0.30743408
1602697829989,139,0.94506836,-1.9685669,-0.02911377
1602697829989,140,0.5895996,-0.11895752,-0.27545166
1602697829995,141,0.94506836,-1.9685669,-0.02911377
1602697829996,142,0.056640625,-1.9998169,0.12200928
1602697829996,143,0.056640625,-1.9998169,0.12200928
1602697829996,144,0.51000977,0.08123779,-0.30743408
1602697829996,145,-0.45751953,-0.77227783,0.074401855
1602697829997,146,-0.45751953,-0.77227783,0.074401855
1602697829999,147,0.94506836,-1.9685669,-0.02911377
1602697830000,148,-0.64501953,-0.29864502,0.20648193
1602697830000,149,-0.64501953,-0.29864502,0.20648193
1602697830001,150,0.056640625,-1.9998169,0.12200928
1602697830003,151,-0.2734375,-1.8045044,0.40960693
1602697830004,152,-0.2734375,-1.8045044,0.40960693
1602697830005,153,-0.45751953,-0.77227783,0.074401855
1602697830010,154,0.8371582,-1.9627075,0.20697021
1602697830011,155,0.8371582,-1.9627075,0.20697021
1602697830011,156,-0.64501953,-0.29864502,0.20648193
1602697830011,157,0.77441406,-0.05596924,-0.20904541
1602697830014,158,0.81030273,0.5800171,-0.44171143
1602697830019,159,-0.2734375,-1.8045044,0.40960693
1602697830020,160,1.4101562,-1.3748169,-0.3460083
1602697830020,161,0.8371582,-1.9627075,0.20697021
1602697830021,162,0.77441406,-0.05596924,-0.20904541
1602697830021,163,0.77441406,-0.05596924,-0.20904541
1602697830021,164,0.84106445,-1.9998169,-0.1350708
1602697830028,165,0.81030273,0.5800171,-0.44171143
1602697830028,166,0.81030273,0.5800171,-0.44171143
1602697830029,167,1.4101562,-1.3748169,-0.3460083
1602697830029,168,1.4101562,-1.3748169,-0.3460083
1602697830029,169,0.12817383,-1.0720825,0.007019043
1602697830029,170,0.84106445,-1.9998169,-0.1350708
1602697830030,171,0.84106445,-1.9998169,-0.1350708
1602697830038,172,0.12817383,-1.0720825,0.007019043
1602697830038,173,-0.55444336,-0.5964966,0.39178467
1602697830038,174,0.12817383,-1.0720825,0.007019043
1602697830039,175,-0.095458984,-1.3572388,0.64178467
1602697830039,176,-0.55444336,-0.5964966,0.39178467
1602697830039,177,-0.55444336,-0.5964966,0.39178467
1602697830040,178,-0.095458984,-1.3572388,0.64178467
1602697830040,179,-0.095458984,-1.3572388,0.64178467
1602697830041,180,1.5671387,-1.9998169,0.33148193
1602697830041,181,1.5671387,-1.9998169,0.33148193
1602697830041,182,1.5195312,-0.7329712,-0.15533447
1602697830041,183,1.5671387,-1.9998169,0.33148193
1602697830043,184,1.5195312,-0.7329712,-0.15533447
1602697830044,185,1.5195312,-0.7329712,-0.15533447
1602697830045,186,0.9440918,-0.04937744,-0.25665283
1602697830045,187,0.9440918,-0.04937744,-0.25665283
1602697830047,188,0.9440918,-0.04937744,-0.25665283
1602697830047,189,0.2919922,0.49798584,-0.2630005
1602697830048,190,0.2919922,0.49798584,-0.2630005
1602697830049,191,0.2919922,0.49798584,-0.2630005
1602697832542,192,0.22045898,0.35687256,-0.25689697
1602697832557,193,0.22045898,0.35687256,-0.25689697
1602697832558,194,0.22045898,0.35687256,-0.25689697
1602697832559,195,1.4509277,-1.9998169,-0.28277588
1602697832559,196,0.6894531,-1.852356,0.0060424805
1602697832559,197,1.4509277,-1.9998169,-0.28277588
1602697832560,198,-0.06665039,-0.784729,0.035827637
1602697832560,199,0.6894531,-1.852356,0.0060424805
1602697832561,200,-0.34716797,-0.7234497,0.3336792
1602697832564,201,-0.06665039,-0.784729,0.035827637
1602697832565,202,1.4509277,-1.9998169,-0.28277588
1602697832565,203,0.10229492,-1.6672974,0.46990967
1602697832566,204,-0.34716797,-0.7234497,0.3336792
1602697832571,205,0.6894531,-1.852356,0.0060424805
1602697832571,206,1.0063477,-1.9998169,0.045837402
1602697832572,207,-0.06665039,-0.784729,0.035827637
1602697832573,208,0.10229492,-1.6672974,0.46990967
1602697832573,209,-0.34716797,-0.7234497,0.3336792
1602697832575,210,1.0063477,-1.9998169,0.045837402
1602697832576,211,0.10229492,-1.6672974,0.46990967
1602697832580,212,0.685791,-0.62042236,-0.19805908
1602697832581,213,0.685791,-0.62042236,-0.19805908
1602697832581,214,1.0063477,-1.9998169,0.045837402
1602697832581,215,0.55981445,0.494812,-0.28399658
1602697832583,216,0.55981445,0.494812,-0.28399658
1602697832589,217,0.61035156,0.24285889,-0.1350708
1602697832590,218,0.685791,-0.62042236,-0.19805908
1602697832590,219,0.96606445,-1.9998169,-0.00592041
1602697832591,220,0.61035156,0.24285889,-0.1350708
1602697832596,221,0.55981445,0.494812,-0.28399658
1602697832597,222,0.068115234,-1.9998169,0.14569092
1602697832597,223,0.96606445,-1.9998169,-0.00592041
1602697832598,224,-0.36376953,-0.92681885,0.184021
1602697832598,225,0.61035156,0.24285889,-0.1350708
1602697832602,226,0.068115234,-1.9998169,0.14569092
1602697832602,227,-0.56030273,-0.62213135,0.3475952
1602697832603,228,0.96606445,-1.9998169,-0.00592041
1602697832606,229,0.056152344,-1.5239868,0.45477295
1602697832606,230,-0.36376953,-0.92681885,0.184021
1602697832607,231,0.068115234,-1.9998169,0.14569092
1602697832607,232,0.91259766,-1.9006958,0.10076904
1602697832610,233,-0.56030273,-0.62213135,0.3475952
1602697832611,234,-0.36376953,-0.92681885,0.184021
1602697832611,235,0.55908203,-0.46636963,-0.25933838
1602697832611,236,-0.56030273,-0.62213135,0.3475952
1602697832619,237,0.51123047,0.21014404,-0.364563
1602697832619,238,0.056152344,-1.5239868,0.45477295
1602697832619,239,0.056152344,-1.5239868,0.45477295
1602697832619,240,0.58154297,0.13201904,-0.21588135
1602697832620,241,0.91259766,-1.9006958,0.10076904
1602697832620,242,1.0585938,-1.9998169,0.16619873
1602697832620,243,0.91259766,-1.9006958,0.10076904
1602697832620,244,0.55908203,-0.46636963,-0.25933838
1602697832621,245,0.51123047,0.21014404,-0.364563
1602697832621,246,-0.0546875,-1.9998169,0.2218628
1602697832621,247,0.58154297,0.13201904,-0.21588135
1602697832622,248,0.55908203,-0.46636963,-0.25933838
1602697832625,249,1.0585938,-1.9998169,0.16619873
1602697832625,250,-0.54296875,-0.76446533,0.17449951
1602697832625,251,0.51123047,0.21014404,-0.364563
1602697832626,252,-0.0546875,-1.9998169,0.2218628
1602697832629,253,0.58154297,0.13201904,-0.21588135
1602697832629,254,-0.5341797,-0.44610596,0.44085693
1602697832629,255,-0.54296875,-0.76446533,0.17449951
1602697832631,256,1.0585938,-1.9998169,0.16619873
1602697832632,257,0.021972656,-1.899231,0.52801514
1602697832632,258,-0.0546875,-1.9998169,0.2218628
1602697832634,259,-0.5341797,-0.44610596,0.44085693
1602697832634,260,0.8413086,-1.9998169,0.09539795
1602697832635,261,-0.54296875,-0.76446533,0.17449951
1602697832640,262,0.021972656,-1.899231,0.52801514
1602697832640,263,0.48486328,-0.5210571,-0.22686768
1602697832640,264,-0.5341797,-0.44610596,0.44085693
1602697832640,265,0.49804688,0.16546631,-0.39117432
1602697832641,266,0.021972656,-1.899231,0.52801514
1602697832641,267,0.56762695,-0.30670166,-0.24224854
1602697832641,268,0.8413086,-1.9998169,0.09539795
1602697832644,269,0.8413086,-1.9998169,0.09539795
1602697832644,270,0.48291016,-1.9998169,0.039245605
1602697832644,271,0.48486328,-0.5210571,-0.22686768
1602697832646,272,0.48486328,-0.5210571,-0.22686768
1602697832647,273,0.49804688,0.16546631,-0.39117432
1602697832647,274,-0.33740234,-1.3713989,0.11077881
1602697832649,275,0.49804688,0.16546631,-0.39117432
1602697832649,276,0.56762695,-0.30670166,-0.24224854
1602697832649,277,-0.48095703,-0.5540161,0.08050537
1602697832650,278,0.56762695,-0.30670166,-0.24224854
1602697832652,279,-0.703125,-0.5745239,0.18353271
1602697832654,280,0.48291016,-1.9998169,0.039245605
1602697832655,281,0.48291016,-1.9998169,0.039245605
1602697832657,282,-0.33740234,-1.3713989,0.11077881
1602697832658,283,-0.33740234,-1.3713989,0.11077881
1602697832660,284,-0.48095703,-0.5540161,0.08050537
1602697832660,285,-0.48095703,-0.5540161,0.08050537
1602697832661,286,-0.703125,-0.5745239,0.18353271
1602697832662,287,-0.703125,-0.5745239,0.18353271
1602697835047,288,-0.15039062,-1.9998169,0.47479248
1602697835055,289,-0.15039062,-1.9998169,0.47479248
1602697835055,290,0.61816406,-1.8516235,0.2411499
1602697835056,291,-0.15039062,-1.9998169,0.47479248
1602697835057,292,0.40649414,-0.38433838,-0.01373291
1602697835071,293,0.61816406,-1.8516235,0.2411499
1602697835072,294,0.61816406,-1.8516235,0.2411499
1602697835072,295,0.5029297,0.28875732,-0.35186768
1602697835072,296,0.7233887,-0.7962036,-0.20904541
1602697835072,297,0.40649414,-0.38433838,-0.01373291
1602697835072,298,0.40649414,-0.38433838,-0.01373291
1602697835073,299,0.5029297,0.28875732,-0.35186768
1602697835073,300,0.5029297,0.28875732,-0.35186768
1602697835073,301,0.40551758,-1.9998169,0.094177246
1602697835077,302,0.7233887,-0.7962036,-0.20904541
1602697835077,303,0.7233887,-0.7962036,-0.20904541
1602697835078,304,0.40551758,-1.9998169,0.094177246
1602697835087,305,-0.46850586,-1.3557739,0.093933105
1602697835088,306,0.40551758,-1.9998169,0.094177246
1602697835088,307,-0.46850586,-1.3557739,0.093933105
1602697835088,308,-0.58691406,-0.47662354,0.15032959
1602697835088,309,-0.58691406,-0.47662354,0.15032959
1602697835089,310,-0.6184082,-0.5210571,0.36224365
1602697835089,311,-0.46850586,-1.3557739,0.093933105
1602697835090,312,-0.6184082,-0.5210571,0.36224365
1602697835091,313,-0.58691406,-0.47662354,0.15032959
1602697835098,314,0.010498047,-1.9998169,0.46795654
1602697835098,315,0.010498047,-1.9998169,0.46795654
1602697835098,316,-0.6184082,-0.5210571,0.36224365
1602697835099,317,0.57470703,-1.6699829,0.053649902
1602697835099,318,0.57470703,-1.6699829,0.053649902
1602697835106,319,0.010498047,-1.9998169,0.46795654
1602697835106,320,0.46777344,-0.38189697,-0.12896729
1602697835106,321,0.46777344,-0.38189697,-0.12896729
1602697835107,322,0.43139648,0.31707764,-0.2695923
1602697835107,323,0.57470703,-1.6699829,0.053649902
1602697835107,324,0.19897461,-0.6734009,-0.1482544
1602697835108,325,-0.079833984,-1.9998169,0.09051514
1602697835111,326,0.46777344,-0.38189697,-0.12896729
1602697835112,327,0.43139648,0.31707764,-0.2695923
1602697835112,328,-0.49169922,-1.1275024,0.059753418
1602697835114,329,0.43139648,0.31707764,-0.2695923
1602697835114,330,0.19897461,-0.6734009,-0.1482544
1602697835114,331,-0.51049805,-0.3875122,0.09173584
1602697835117,332,0.19897461,-0.6734009,-0.1482544
1602697835117,333,-0.079833984,-1.9998169,0.09051514
1602697835118,334,-0.49316406,-0.7649536,0.28607178
1602697835120,335,-0.079833984,-1.9998169,0.09051514
1602697835121,336,-0.49169922,-1.1275024,0.059753418
1602697835121,337,0.068847656,-1.9998169,0.22088623
1602697835121,338,-0.49169922,-1.1275024,0.059753418
1602697835122,339,-0.51049805,-0.3875122,0.09173584
1602697835123,340,-0.51049805,-0.3875122,0.09173584
1602697835124,341,-0.49316406,-0.7649536,0.28607178
1602697835125,342,-0.49316406,-0.7649536,0.28607178
1602697835127,343,0.068847656,-1.9998169,0.22088623
1602697835128,344,0.18041992,-1.1765747,-0.009094238
1602697835128,345,0.068847656,-1.9998169,0.22088623
1602697835129,346,0.18041992,-1.1765747,-0.009094238
1602697835130,347,0.18041992,-1.1765747,-0.009094238
1602697835133,348,0.18896484,-0.26739502,-0.14312744
1602697835133,349,0.18896484,-0.26739502,-0.14312744
1602697835134,350,0.18896484,-0.26739502,-0.14312744
1602697835134,351,0.5024414,0.13861084,-0.26934814
1602697835138,352,0.5024414,0.13861084,-0.26934814
1602697835138,353,0.5024414,0.13861084,-0.26934814
1602697835138,354,0.61376953,-1.1704712,-0.082092285
1602697835138,355,0.61376953,-1.1704712,-0.082092285
1602697835139,356,0.61376953,-1.1704712,-0.082092285
1602697835141,357,0.25024414,-1.9998169,0.2921753
1602697835141,358,0.25024414,-1.9998169,0.2921753
1602697835141,359,0.25024414,-1.9998169,0.2921753
1602697835143,360,-0.38623047,-1.291565,0.2694702
1602697835143,361,-0.38623047,-1.291565,0.2694702
1602697835144,362,-0.38623047,-1.291565,0.2694702
1602697835146,363,-0.6508789,-0.3562622,0.09075928
1602697835146,364,-0.6508789,-0.3562622,0.09075928
1602697835147,365,-0.7902832,-0.5979614,0.12786865
1602697835152,366,-0.7902832,-0.5979614,0.12786865
1602697835152,367,-0.6508789,-0.3562622,0.09075928
1602697835152,368,0.23950195,-1.9998169,0.21258545
1602697835153,369,0.7998047,-1.6257935,-0.07086182
1602697835153,370,0.23950195,-1.9998169,0.21258545
1602697835154,371,-0.7902832,-0.5979614,0.12786865
1602697835154,372,0.51538086,0.21502686,-0.15362549
1602697835155,373,0.23950195,-1.9998169,0.21258545
1602697835156,374,0.64086914,0.5722046,-0.36505127
1602697835157,375,0.7998047,-1.6257935,-0.07086182
1602697835160,376,0.6538086,-0.2156372,-0.26324463
1602697835161,377,0.7998047,-1.6257935,-0.07086182
1602697835161,378,0.51538086,0.21502686,-0.15362549
1602697835163,379,0.64086914,0.5722046,-0.36505127
1602697835163,380,0.51538086,0.21502686,-0.15362549
1602697835164,381,0.6538086,-0.2156372,-0.26324463
1602697835165,382,0.64086914,0.5722046,-0.36505127
1602697835168,383,0.6538086,-0.2156372,-0.26324463
1602697837647,384,0.91918945,-1.9998169,-0.31500244
1602697837648,385,0.91918945,-1.9998169,-0.31500244
1602697837648,386,0.91918945,-1.9998169,-0.31500244
1602697837649,387,-0.020263672,-1.7908325,-0.13555908
1602697837654,388,-0.020263672,-1.7908325,-0.13555908
1602697837655,389,-0.49829102,-0.6382446,-0.124816895
1602697837655,390,-0.49829102,-0.6382446,-0.124816895
1602697837655,391,-0.8388672,-0.33477783,0.09832764
1602697837655,392,-0.8388672,-0.33477783,0.09832764
1602697837656,393,-0.020263672,-1.7908325,-0.13555908
1602697837660,394,-0.41357422,-1.9573364,0.39227295
1602697837660,395,-0.41357422,-1.9573364,0.39227295
1602697837660,396,0.7055664,-1.9998169,0.14544678
1602697837664,397,-0.49829102,-0.6382446,-0.124816895
1602697837664,398,0.7055664,-1.9998169,0.14544678
1602697837664,399,0.4580078,-0.62286377,-0.20440674
1602697837665,400,-0.8388672,-0.33477783,0.09832764
1602697837668,401,0.4580078,-0.62286377,-0.20440674
1602697837669,402,0.55493164,0.35321045,-0.43804932
1602697837669,403,-0.41357422,-1.9573364,0.39227295
1602697837670,404,0.55493164,0.35321045,-0.43804932
1602697837674,405,0.7055664,-1.9998169,0.14544678
1602697837675,406,0.7121582,-0.035217285,-0.34576416
1602697837675,407,0.4580078,-0.62286377,-0.20440674
1602697837675,408,0.7121582,-0.035217285,-0.34576416
1602697837681,409,0.55493164,0.35321045,-0.43804932
1602697837681,410,0.5004883,-1.9998169,-0.32476807
1602697837681,411,0.5004883,-1.9998169,-0.32476807
1602697837682,412,-0.2927246,-1.6506958,-0.12286377
1602697837682,413,-0.2927246,-1.6506958,-0.12286377
1602697837682,414,0.7121582,-0.035217285,-0.34576416
1602697837684,415,-0.51464844,-0.50616455,-0.1819458
1602697837688,416,0.5004883,-1.9998169,-0.32476807
1602697837688,417,-0.51464844,-0.50616455,-0.1819458
1602697837689,418,-0.9157715,-0.35113525,0.11199951
1602697837690,419,-0.27929688,-1.9998169,0.36102295
1602697837696,420,-0.9157715,-0.35113525,0.11199951
1602697837696,421,-0.2927246,-1.6506958,-0.12286377
1602697837697,422,-0.27929688,-1.9998169,0.36102295
1602697837697,423,0.58862305,-1.9998169,0.19647217
1602697837697,424,-0.51464844,-0.50616455,-0.1819458
1602697837698,425,0.58862305,-1.9998169,0.19647217
1602697837701,426,0.39379883,-0.6050415,-0.15997314
1602697837701,427,-0.9157715,-0.35113525,0.11199951
1602697837701,428,0.39379883,-0.6050415,-0.15997314
1602697837703,429,0.6982422,0.12030029,-0.30889893
1602697837705,430,-0.27929688,-1.9998169,0.36102295
1602697837707,431,0.70410156,-0.10650635,-0.23638916
1602697837708,432,0.6982422,0.12030029,-0.30889893
1602697837709,433,0.58862305,-1.9998169,0.19647217
1602697837713,434,0.6257324,-1.9998169,-0.1729126
1602697837714,435,0.39379883,-0.6050415,-0.15997314
1602697837714,436,0.70410156,-0.10650635,-0.23638916
1602697837715,437,0.6982422,0.12030029,-0.30889893
1602697837715,438,0.6257324,-1.9998169,-0.1729126
1602697837718,439,-0.26513672,-1.9998169,-0.030578613
1602697837718,440,0.70410156,-0.10650635,-0.23638916
1602697837719,441,-0.26513672,-1.9998169,-0.030578613
1602697837722,442,-0.6760254,-0.8257446,-0.057434082
1602697837723,443,0.6257324,-1.9998169,-0.1729126
1602697837724,444,-0.6760254,-0.8257446,-0.057434082
1602697837725,445,-0.8395996,-0.4817505,0.16693115
1602697837727,446,-0.26513672,-1.9998169,-0.030578613
1602697837735,447,-0.31762695,-1.6863403,0.324646
1602697837735,448,-0.8395996,-0.4817505,0.16693115
1602697837735,449,-0.6760254,-0.8257446,-0.057434082
1602697837736,450,0.5571289,-1.9998169,0.05340576
1602697837736,451,-0.8395996,-0.4817505,0.16693115
1602697837736,452,-0.31762695,-1.6863403,0.324646
1602697837737,453,-0.31762695,-1.6863403,0.324646
1602697837737,454,0.47827148,-0.6868286,-0.20269775
1602697837738,455,0.5571289,-1.9998169,0.05340576
1602697837739,456,0.5571289,-1.9998169,0.05340576
1602697837741,457,0.47827148,-0.6868286,-0.20269775
1602697837742,458,0.5048828,0.024597168,-0.22711182
1602697837745,459,0.5048828,0.024597168,-0.22711182
1602697837746,460,0.47827148,-0.6868286,-0.20269775
1602697837746,461,0.48999023,-0.07965088,-0.21514893
1602697837749,462,0.48999023,-0.07965088,-0.21514893
1602697837749,463,0.5048828,0.024597168,-0.22711182
1602697837749,464,0.49560547,-1.9998169,-0.28790283
1602697837750,465,0.49560547,-1.9998169,-0.28790283
1602697837754,466,-0.16796875,-1.8799438,-0.062805176
1602697837755,467,0.48999023,-0.07965088,-0.21514893
1602697837755,468,-0.3972168,-0.6211548,0.086120605
1602697837755,469,0.49560547,-1.9998169,-0.28790283
1602697837758,470,-0.16796875,-1.8799438,-0.062805176
1602697837759,471,-0.5732422,-0.3435669,0.21502686
1602697837759,472,-0.16796875,-1.8799438,-0.062805176
1602697837759,473,-0.32543945,-1.8025513,0.13323975
1602697837759,474,-0.3972168,-0.6211548,0.086120605
1602697837761,475,-0.3972168,-0.6211548,0.086120605
1602697837762,476,-0.5732422,-0.3435669,0.21502686
1602697837763,477,-0.5732422,-0.3435669,0.21502686
1602697837764,478,-0.32543945,-1.8025513,0.13323975
1602697837767,479,-0.32543945,-1.8025513,0.13323975
1602697840045,480,0.50878906,-1.9998169,-0.1675415
1602697840045,481,0.50878906,-1.9998169,-0.1675415
1602697840046,482,0.50878906,-1.9998169,-0.1675415
1602697840053,483,0.26367188,-0.58258057,-0.2786255
1602697840053,484,0.26367188,-0.58258057,-0.2786255
1602697840053,485,0.48657227,0.17645264,-0.27471924
1602697840054,486,0.26367188,-0.58258057,-0.2786255
1602697840054,487,0.48657227,0.17645264,-0.27471924
1602697840055,488,0.48657227,0.17645264,-0.27471924
1602697840064,489,0.5541992,0.034606934,-0.13165283
1602697840064,490,0.5541992,0.034606934,-0.13165283
1602697840066,491,0.5541992,0.034606934,-0.13165283
1602697840067,492,0.65405273,-1.9998169,0.07366943
1602697840067,493,0.65405273,-1.9998169,0.07366943
1602697840067,494,0.65405273,-1.9998169,0.07366943
1602697840068,495,0.052734375,-1.9998169,0.30194092
1602697840068,496,0.052734375,-1.9998169,0.30194092
1602697840068,497,-0.41601562,-0.8008423,0.13446045
1602697840071,498,0.052734375,-1.9998169,0.30194092
1602697840071,499,-0.41601562,-0.8008423,0.13446045
1602697840072,500,-0.41601562,-0.8008423,0.13446045
1602697840077,501,-0.6623535,-0.36431885,0.16351318
1602697840078,502,-0.6623535,-0.36431885,0.16351318
1602697840078,503,-0.6623535,-0.36431885,0.16351318
1602697840078,504,-0.44873047,-1.4275513,0.48968506
1602697840092,505,-0.44873047,-1.4275513,0.48968506
1602697840094,506,-0.44873047,-1.4275513,0.48968506
1602697840094,507,0.66137695,-1.9998169,0.3991089
1602697840094,508,0.66137695,-1.9998169,0.3991089
1602697840094,509,0.66137695,-1.9998169,0.3991089
1602697840094,510,0.56689453,-0.87945557,-0.15020752
1602697840096,511,0.56689453,-0.87945557,-0.15020752
1602697840096,512,0.56689453,-0.87945557,-0.15020752
1602697840096,513,0.45410156,0.21136475,-0.50128174
1602697840096,514,0.45410156,0.21136475,-0.50128174
1602697840096,515,0.61743164,0.27264404,-0.18463135
1602697840097,516,0.45410156,0.21136475,-0.50128174
1602697840099,517,0.61743164,0.27264404,-0.18463135
1602697840099,518,0.61743164,0.27264404,-0.18463135
1602697840099,519,0.59643555,-1.9998169,-0.0413208
1602697840101,520,0.59643555,-1.9998169,-0.0413208
1602697840107,521,-0.21899414,-1.9998169,0.082458496
1602697840108,522,0.59643555,-1.9998169,-0.0413208
1602697840108,523,-0.21899414,-1.9998169,0.082458496
1602697840108,524,-0.21899414,-1.9998169,0.082458496
1602697840108,525,-0.44091797,-0.6057739,-0.033996582
1602697840108,526,-0.44091797,-0.6057739,-0.033996582
1602697840109,527,-0.6230469,-0.4258423,0.09246826
1602697840112,528,-0.6230469,-0.4258423,0.09246826
1602697840113,529,-0.44091797,-0.6057739,-0.033996582
1602697840113,530,-0.5366211,-1.5549927,0.27874756
1602697840114,531,-0.6230469,-0.4258423,0.09246826
1602697840115,532,0.24121094,-1.9998169,0.08782959
1602697840116,533,-0.5366211,-1.5549927,0.27874756
1602697840119,534,0.46606445,-0.6265259,-0.19952393
1602697840119,535,-0.5366211,-1.5549927,0.27874756
1602697840119,536,0.60595703,0.12908936,-0.26739502
1602697840122,537,0.24121094,-1.9998169,0.08782959
1602697840122,538,0.24121094,-1.9998169,0.08782959
1602697840122,539,0.6479492,-0.33648682,-0.19927979
1602697840123,540,0.46606445,-0.6265259,-0.19952393
1602697840124,541,0.6687012,-1.9998169,-0.22393799
1602697840125,542,0.60595703,0.12908936,-0.26739502
1602697840126,543,-0.17749023,-1.9067993,-0.09918213
1602697840127,544,0.6479492,-0.33648682,-0.19927979
1602697840130,545,-0.4675293,-0.7839966,0.027038574
1602697840130,546,0.46606445,-0.6265259,-0.19952393
1602697840130,547,0.6687012,-1.9998169,-0.22393799
1602697840132,548,-0.5761719,-0.46588135,0.2111206
1602697840135,549,-0.33764648,-1.4890747,0.41156006
1602697840135,550,0.60595703,0.12908936,-0.26739502
1602697840138,551,-0.17749023,-1.9067993,-0.09918213
1602697840138,552,0.52368164,-1.9998169,0.27191162
1602697840138,553,0.6479492,-0.33648682,-0.19927979
1602697840139,554,0.6809082,-0.83013916,-0.17095947
1602697840141,555,0.6687012,-1.9998169,-0.22393799
1602697840141,556,-0.4675293,-0.7839966,0.027038574
1602697840141,557,0.6401367,0.016296387,-0.52301025
1602697840144,558,-0.17749023,-1.9067993,-0.09918213
1602697840145,559,-0.5761719,-0.46588135,0.2111206
1602697840145,560,0.59375,-0.11480713,-0.19146729
1602697840149,561,-0.4675293,-0.7839966,0.027038574
1602697840149,562,-0.33764648,-1.4890747,0.41156006
1602697840150,563,0.79711914,-1.9998169,0.07952881
1602697840150,564,0.52368164,-1.9998169,0.27191162
1602697840150,565,-0.5761719,-0.46588135,0.2111206
1602697840152,566,0.6809082,-0.83013916,-0.17095947
1602697840154,567,-0.33764648,-1.4890747,0.41156006
1602697840155,568,0.6401367,0.016296387,-0.52301025
1602697840155,569,0.52368164,-1.9998169,0.27191162
1602697840157,570,0.59375,-0.11480713,-0.19146729
1602697840157,571,0.6809082,-0.83013916,-0.17095947
1602697840160,572,0.79711914,-1.9998169,0.07952881
1602697840161,573,0.6401367,0.016296387,-0.52301025
1602697840163,574,0.59375,-0.11480713,-0.19146729
1602697840163,575,0.79711914,-1.9998169,0.07952881
1602697842544,576,0.10522461,-1.9998169,0.19158936
1602697842544,577,0.10522461,-1.9998169,0.19158936
1602697842550,578,0.10522461,-1.9998169,0.19158936
1602697842550,579,-0.45092773,-0.9221802,0.15130615
1602697842550,580,-0.45092773,-0.9221802,0.15130615
1602697842551,581,-0.45092773,-0.9221802,0.15130615
1602697842556,582,-0.6218262,-0.5845337,0.26922607
1602697842556,583,-0.6218262,-0.5845337,0.26922607
1602697842557,584,-0.6218262,-0.5845337,0.26922607
1602697842557,585,-0.43725586,-1.0169067,0.45965576
1602697842563,586,-0.43725586,-1.0169067,0.45965576
1602697842564,587,-0.43725586,-1.0169067,0.45965576
1602697842565,588,0.55981445,-1.9998169,0.4862671
1602697842565,589,0.5456543,-1.0454712,0.20062256
1602697842565,590,0.55981445,-1.9998169,0.4862671
1602697842568,591,0.55981445,-1.9998169,0.4862671
1602697842581,592,0.13427734,-0.07550049,0.06512451
1602697842581,593,0.5456543,-1.0454712,0.20062256
1602697842581,594,0.5456543,-1.0454712,0.20062256
1602697842582,595,0.13427734,-0.07550049,0.06512451
1602697842582,596,0.59228516,-0.29742432,-0.11895752
1602697842582,597,0.13427734,-0.07550049,0.06512451
1602697842582,598,0.59228516,-0.29742432,-0.11895752
1602697842582,599,0.59228516,-0.29742432,-0.11895752
1602697842585,600,0.37231445,-1.1946411,0.046813965
1602697842586,601,0.37231445,-1.1946411,0.046813965
1602697842594,602,-0.10546875,-1.873352,0.20355225
1602697842594,603,0.37231445,-1.1946411,0.046813965
1602697842595,604,-0.10546875,-1.873352,0.20355225
1602697842595,605,-0.10546875,-1.873352,0.20355225
1602697842595,606,-0.22460938,-1.0842896,0.22650146
1602697842596,607,-0.22460938,-1.0842896,0.22650146
1602697842596,608,-0.49780273,-0.76226807,0.101257324
1602697842606,609,-0.22460938,-1.0842896,0.22650146
1602697842606,610,-0.58618164,-1.1543579,0.33514404
1602697842607,611,-0.49780273,-0.76226807,0.101257324
1602697842608,612,0.23999023,-1.9998169,0.21575928
1602697842609,613,-0.58618164,-1.1543579,0.33514404
1602697842610,614,0.31469727,-0.96759033,-0.09649658
1602697842610,615,0.23999023,-1.9998169,0.21575928
1602697842614,616,-0.49780273,-0.76226807,0.101257324
1602697842615,617,0.26098633,-0.0056762695,-0.25128174
1602697842616,618,-0.58618164,-1.1543579,0.33514404
1602697842618,619,0.31469727,-0.96759033,-0.09649658
1602697842624,620,0.45776367,0.07562256,-0.2732544
1602697842624,621,0.23999023,-1.9998169,0.21575928
1602697842624,622,0.26098633,-0.0056762695,-0.25128174
1602697842625,623,0.31469727,-0.96759033,-0.09649658
1602697842625,624,0.87939453,-1.7979126,0.06048584
1602697842629,625,0.45776367,0.07562256,-0.2732544
1602697842629,626,0.26098633,-0.0056762695,-0.25128174
1602697842638,627,0.87939453,-1.7979126,0.06048584
1602697842639,628,0.20800781,-1.9998169,0.28094482
1602697842640,629,0.20800781,-1.9998169,0.28094482
1602697842640,630,-0.65405273,-1.1035767,0.028259277
1602697842641,631,-0.48486328,-0.4019165,0.1552124
1602697842641,632,-0.65405273,-1.1035767,0.028259277
1602697842641,633,0.45776367,0.07562256,-0.2732544
1602697842643,634,-0.4272461,-0.72320557,0.38494873
1602697842647,635,0.87939453,-1.7979126,0.06048584
1602697842647,636,-0.48486328,-0.4019165,0.1552124
1602697842648,637,0.1274414,-1.9998169,0.5241089
1602697842650,638,0.20800781,-1.9998169,0.28094482
1602697842652,639,0.7055664,-1.6790161,0.17767334
1602697842657,640,-0.65405273,-1.1035767,0.028259277
1602697842657,641,-0.4272461,-0.72320557,0.38494873
1602697842658,642,0.5378418,-0.23248291,-0.22540283
1602697842660,643,0.1274414,-1.9998169,0.5241089
1602697842662,644,-0.48486328,-0.4019165,0.1552124
1602697842666,645,-0.4272461,-0.72320557,0.38494873
1602697842666,646,0.57543945,0.28240967,-0.37701416
1602697842667,647,0.1274414,-1.9998169,0.5241089
1602697842671,648,0.7077637,-0.54937744,-0.06964111
1602697842671,649,0.7055664,-1.6790161,0.17767334
1602697842672,650,0.7055664,-1.6790161,0.17767334
1602697842678,651,0.65234375,-1.9998169,0.11663818
1602697842678,652,0.5378418,-0.23248291,-0.22540283
1602697842679,653,-0.38354492,-1.3435669,-0.034729004
1602697842682,654,0.57543945,0.28240967,-0.37701416
1602697842683,655,0.5378418,-0.23248291,-0.22540283
1602697842683,656,0.7077637,-0.54937744,-0.06964111
1602697842685,657,-0.64990234,-0.48516846,-0.07720947
1602697842690,658,0.65234375,-1.9998169,0.11663818
1602697842691,659,0.57543945,0.28240967,-0.37701416
1602697842691,660,-0.671875,-0.54937744,0.27459717
1602697842697,661,-0.38354492,-1.3435669,-0.034729004
1602697842697,662,0.7077637,-0.54937744,-0.06964111
1602697842697,663,-0.12084961,-1.9998169,0.39471436
1602697842698,664,-0.64990234,-0.48516846,-0.07720947
1602697842702,665,0.65234375,-1.9998169,0.11663818
1602697842704,666,-0.671875,-0.54937744,0.27459717
1602697842704,667,-0.38354492,-1.3435669,-0.034729004
1602697842708,668,-0.12084961,-1.9998169,0.39471436
1602697842708,669,-0.64990234,-0.48516846,-0.07720947
1602697842710,670,-0.671875,-0.54937744,0.27459717
1602697842713,671,-0.12084961,-1.9998169,0.39471436
1602697845147,672,0.66430664,-1.979065,0.07952881
1602697845153,673,0.5415039,-0.47662354,-0.19390869
1602697845154,674,0.66430664,-1.979065,0.07952881
1602697845155,675,0.66430664,-1.979065,0.07952881
1602697845160,676,0.48364258,0.19622803,-0.47247314
1602697845161,677,0.5415039,-0.47662354,-0.19390869
1602697845162,678,0.5415039,-0.47662354,-0.19390869
1602697845167,679,0.53564453,-0.29205322,-0.09576416
1602697845168,680,0.48364258,0.19622803,-0.47247314
1602697845169,681,0.48364258,0.19622803,-0.47247314
1602697845178,682,0.83813477,-1.9998169,0.55804443
1602697845179,683,0.53564453,-0.29205322,-0.09576416
1602697845180,684,0.53564453,-0.29205322,-0.09576416
1602697845180,685,0.83813477,-1.9998169,0.55804443
1602697845181,686,0.83813477,-1.9998169,0.55804443
1602697845197,687,-0.05078125,-1.6873169,0.34100342
1602697845198,688,-0.05078125,-1.6873169,0.34100342
1602697845199,689,-0.05078125,-1.6873169,0.34100342
1602697845199,690,-0.3779297,-0.84942627,-7.9345703E-4
1602697845200,691,-0.3779297,-0.84942627,-7.9345703E-4
1602697845200,692,-0.5756836,-0.4072876,0.13934326
1602697845201,693,-0.3779297,-0.84942627,-7.9345703E-4
1602697845201,694,-0.5756836,-0.4072876,0.13934326
1602697845207,695,-0.59399414,-1.241272,0.44696045
1602697845207,696,-0.5756836,-0.4072876,0.13934326
1602697845208,697,-0.59399414,-1.241272,0.44696045
1602697845208,698,-0.59399414,-1.241272,0.44696045
1602697845209,699,0.49267578,-1.9998169,0.63031006
1602697845209,700,0.49267578,-1.9998169,0.63031006
1602697845211,701,0.49267578,-1.9998169,0.63031006
1602697845212,702,0.54541016,-0.82769775,0.12738037
1602697845216,703,0.54541016,-0.82769775,0.12738037
1602697845216,704,0.54541016,-0.82769775,0.12738037
1602697845217,705,0.5637207,0.08709717,-0.23199463
1602697845218,706,0.5637207,0.08709717,-0.23199463
1602697845221,707,0.5637207,0.08709717,-0.23199463
1602697845222,708,0.56347656,0.11785889,-0.2612915
1602697845222,709,0.56347656,0.11785889,-0.2612915
1602697845222,710,0.56347656,0.11785889,-0.2612915
1602697845226,711,0.748291,-1.9876099,0.19500732
1602697845226,712,0.748291,-1.9876099,0.19500732
1602697845226,713,0.748291,-1.9876099,0.19500732
1602697845227,714,0.3322754,-1.8362427,0.35638428
1602697845229,715,-0.5073242,-1.1226196,0.098083496
1602697845231,716,0.3322754,-1.8362427,0.35638428
1602697845231,717,0.3322754,-1.8362427,0.35638428
1602697845234,718,-0.71899414,-0.8687134,0.19158936
1602697845235,719,-0.5073242,-1.1226196,0.098083496
1602697845235,720,-0.23388672,-1.2869263,0.34295654
1602697845235,721,-0.71899414,-0.8687134,0.19158936
1602697845236,722,-0.5073242,-1.1226196,0.098083496
1602697845238,723,0.75634766,-1.9998169,0.34075928
1602697845239,724,-0.23388672,-1.2869263,0.34295654
1602697845239,725,-0.71899414,-0.8687134,0.19158936
1602697845241,726,0.71655273,-0.9463501,-0.019348145
1602697845242,727,0.75634766,-1.9998169,0.34075928
1602697845242,728,-0.23388672,-1.2869263,0.34295654
1602697845242,729,0.46142578,-0.04840088,-0.19146729
1602697845244,730,0.71655273,-0.9463501,-0.019348145
1602697845245,731,0.75634766,-1.9998169,0.34075928
1602697845245,732,0.48828125,0.29608154,-0.3123169
1602697845246,733,0.46142578,-0.04840088,-0.19146729
1602697845248,734,0.76123047,-1.9397583,-0.11993408
1602697845249,735,0.71655273,-0.9463501,-0.019348145
1602697845249,736,0.48828125,0.29608154,-0.3123169
1602697845251,737,0.1940918,-1.9998169,0.07318115
1602697845251,738,0.46142578,-0.04840088,-0.19146729
1602697845251,739,0.76123047,-1.9397583,-0.11993408
1602697845254,740,-0.3701172,-0.81988525,0.005065918
1602697845254,741,0.48828125,0.29608154,-0.3123169
1602697845254,742,0.1940918,-1.9998169,0.07318115
1602697845255,743,-0.5354004,-0.4854126,0.117614746
1602697845258,744,-0.3701172,-0.81988525,0.005065918
1602697845258,745,0.76123047,-1.9397583,-0.11993408
1602697845258,746,-0.50097656,-0.972229,0.26312256
1602697845260,747,-0.5354004,-0.4854126,0.117614746
1602697845261,748,0.1940918,-1.9998169,0.07318115
1602697845261,749,0.5168457,-1.9998169,0.3234253
1602697845263,750,-0.50097656,-0.972229,0.26312256
1602697845264,751,-0.3701172,-0.81988525,0.005065918
1602697845264,752,0.6286621,-1.1213989,0.014343262
1602697845265,753,0.5168457,-1.9998169,0.3234253
1602697845268,754,0.46948242,-0.17877197,-0.14752197
1602697845268,755,-0.5354004,-0.4854126,0.117614746
1602697845268,756,0.6286621,-1.1213989,0.014343262
1602697845271,757,0.4699707,0.12762451,-0.3032837
1602697845272,758,-0.50097656,-0.972229,0.26312256
1602697845272,759,0.46948242,-0.17877197,-0.14752197
1602697845272,760,0.5168457,-1.9998169,0.3234253
1602697845273,761,0.61376953,-1.0549927,-0.17559814
1602697845274,762,0.4699707,0.12762451,-0.3032837
1602697845276,763,0.6286621,-1.1213989,0.014343262
1602697845276,764,0.61376953,-1.0549927,-0.17559814
1602697845277,765,0.46948242,-0.17877197,-0.14752197
1602697845279,766,0.4699707,0.12762451,-0.3032837
1602697845281,767,0.61376953,-1.0549927,-0.17559814
1602697847548,768,0.3815918,-1.9998169,0.10247803
1602697847550,769,0.3815918,-1.9998169,0.10247803
1602697847552,770,-0.24267578,-1.40802,0.17547607
1602697847557,771,0.3815918,-1.9998169,0.10247803
1602697847557,772,-0.24267578,-1.40802,0.17547607
1602697847557,773,-0.42797852,-0.7686157,0.13641357
1602697847559,774,-0.24267578,-1.40802,0.17547607
1602697847561,775,-0.42797852,-0.7686157,0.13641357
1602697847572,776,-0.42797852,-0.7686157,0.13641357
1602697847572,777,-0.50756836,-0.6777954,0.3156128
1602697847572,778,-0.50756836,-0.6777954,0.3156128
1602697847576,779,0.05517578,-1.9998169,0.3866577
1602697847577,780,0.05517578,-1.9998169,0.3866577
1602697847577,781,-0.50756836,-0.6777954,0.3156128
1602697847578,782,0.6230469,-1.5701294,0.14105225
1602697847578,783,0.6230469,-1.5701294,0.14105225
1602697847579,784,0.34887695,-0.5054321,-0.05987549
1602697847584,785,0.05517578,-1.9998169,0.3866577
1602697847584,786,0.34887695,-0.5054321,-0.05987549
1602697847585,787,0.3815918,-0.054748535,-0.15533447
1602697847589,788,0.6230469,-1.5701294,0.14105225
1602697847589,789,0.4736328,-0.25274658,-0.1651001
1602697847590,790,0.3815918,-0.054748535,-0.15533447
1602697847594,791,0.34887695,-0.5054321,-0.05987549
1602697847595,792,0.47631836,-1.9998169,0.15740967
1602697847595,793,-0.28198242,-1.8203735,0.32757568
1602697847596,794,0.3815918,-0.054748535,-0.15533447
1602697847600,795,-0.6464844,-0.87823486,0.3361206
1602697847600,796,0.4736328,-0.25274658,-0.1651001
1602697847601,797,0.4736328,-0.25274658,-0.1651001
1602697847604,798,-0.52563477,-0.65338135,0.38494873
1602697847605,799,0.47631836,-1.9998169,0.15740967
1602697847611,800,-0.28198242,-1.8203735,0.32757568
1602697847612,801,-0.05517578,-1.7078247,0.3925171
1602697847613,802,0.47631836,-1.9998169,0.15740967
1602697847613,803,-0.6464844,-0.87823486,0.3361206
1602697847613,804,-0.28198242,-1.8203735,0.32757568
1602697847614,805,0.39697266,-1.5310669,0.23895264
1602697847615,806,-0.52563477,-0.65338135,0.38494873
1602697847621,807,0.3852539,-0.54937744,0.003112793
1602697847622,808,-0.6464844,-0.87823486,0.3361206
1602697847622,809,-0.05517578,-1.7078247,0.3925171
1602697847622,810,-0.52563477,-0.65338135,0.38494873
1602697847622,811,0.39697266,-1.5310669,0.23895264
1602697847623,812,0.5720215,-0.031799316,-0.237854
1602697847626,813,0.3852539,-0.54937744,0.003112793
1602697847627,814,-0.05517578,-1.7078247,0.3925171
1602697847627,815,0.6166992,-0.52227783,-0.13897705
1602697847629,816,0.39697266,-1.5310669,0.23895264
1602697847630,817,0.5720215,-0.031799316,-0.237854
1602697847630,818,0.6308594,-1.9998169,0.08343506
1602697847631,819,0.3852539,-0.54937744,0.003112793
1602697847633,820,-0.40307617,-1.7947388,0.08685303
1602697847633,821,0.6166992,-0.52227783,-0.13897705
1602697847636,822,0.5720215,-0.031799316,-0.237854
1602697847637,823,-0.79003906,-0.8394165,0.1005249
1602697847638,824,0.6166992,-0.52227783,-0.13897705
1602697847638,825,0.6308594,-1.9998169,0.08343506
1602697847638,826,-0.5756836,-0.6096802,0.31097412
1602697847641,827,0.008300781,-1.9998169,0.3727417
1602697847641,828,0.6308594,-1.9998169,0.08343506
1602697847641,829,-0.40307617,-1.7947388,0.08685303
1602697847642,830,0.7734375,-1.8340454,0.19134521
1602697847645,831,0.6977539,-0.40899658,-0.14263916
1602697847645,832,-0.40307617,-1.7947388,0.08685303
1602697847645,833,-0.79003906,-0.8394165,0.1005249
1602697847645,834,0.7067871,0.20892334,-0.3665161
1602697847648,835,-0.79003906,-0.8394165,0.1005249
1602697847648,836,-0.5756836,-0.6096802,0.31097412
1602697847648,837,0.6176758,-0.51763916,-0.27716064
1602697847650,838,-0.5756836,-0.6096802,0.31097412
1602697847650,839,0.008300781,-1.9998169,0.3727417
1602697847653,840,0.53564453,-1.9998169,-0.07110596
1602697847653,841,0.008300781,-1.9998169,0.3727417
1602697847653,842,0.7734375,-1.8340454,0.19134521
1602697847654,843,-0.20532227,-1.7622681,0.05633545
1602697847655,844,0.6977539,-0.40899658,-0.14263916
1602697847656,845,-0.46655273,-0.7905884,0.02532959
1602697847658,846,0.7067871,0.20892334,-0.3665161
1602697847660,847,-0.6425781,-0.4529419,0.21429443
1602697847660,848,0.7734375,-1.8340454,0.19134521
1602697847660,849,0.6176758,-0.51763916,-0.27716064
1602697847662,850,-0.35717773,-1.5808716,0.45819092
1602697847664,851,0.6977539,-0.40899658,-0.14263916
1602697847664,852,0.53564453,-1.9998169,-0.07110596
1602697847666,853,0.7067871,0.20892334,-0.3665161
1602697847667,854,-0.20532227,-1.7622681,0.05633545
1602697847672,855,0.6176758,-0.51763916,-0.27716064
1602697847672,856,-0.46655273,-0.7905884,0.02532959
1602697847672,857,0.53564453,-1.9998169,-0.07110596
1602697847672,858,-0.6425781,-0.4529419,0.21429443
1602697847672,859,-0.20532227,-1.7622681,0.05633545
1602697847673,860,-0.46655273,-0.7905884,0.02532959
1602697847674,861,-0.6425781,-0.4529419,0.21429443
1602697847674,862,-0.35717773,-1.5808716,0.45819092
1602697847676,863,-0.35717773,-1.5808716,0.45819092
1602697850341,864,0.7138672,-1.9998169,0.385437
1602697850341,865,0.7138672,-1.9998169,0.385437
1602697850341,866,0.7138672,-1.9998169,0.385437
1602697850346,867,0.68603516,-1.0210571,-0.019592285
1602697850346,868,0.68603516,-1.0210571,-0.019592285
1602697850347,869,0.68603516,-1.0210571,-0.019592285
1602697850347,870,0.5395508,0.15301514,-0.300354
1602697850348,871,0.5395508,0.15301514,-0.300354
1602697850348,872,0.5827637,0.027038574,-0.3406372
1602697850354,873,0.5827637,0.027038574,-0.3406372
1602697850355,874,0.5395508,0.15301514,-0.300354
1602697850356,875,0.7609863,-1.8555298,0.40057373
1602697850356,876,0.7609863,-1.8555298,0.40057373
1602697850356,877,0.21582031,-1.9998169,0.50457764
1602697850356,878,0.21582031,-1.9998169,0.50457764
1602697850359,879,-0.2614746,-0.8152466,0.18450928
1602697850360,880,-0.2614746,-0.8152466,0.18450928
1602697850360,881,0.5827637,0.027038574,-0.3406372
1602697850360,882,-0.5,-0.28326416,0.048034668
1602697850361,883,0.7609863,-1.8555298,0.40057373
1602697850364,884,0.21582031,-1.9998169,0.50457764
1602697850364,885,-0.5,-0.28326416,0.048034668
1602697850365,886,-0.5136719,-0.77130127,0.23602295
1602697850365,887,-0.2614746,-0.8152466,0.18450928
1602697850368,888,-0.5136719,-0.77130127,0.23602295
1602697850368,889,0.44433594,-1.9998169,0.45281982
1602697850368,890,-0.5,-0.28326416,0.048034668
1602697850369,891,0.44433594,-1.9998169,0.45281982
1602697850371,892,0.35107422,-1.2041626,0.18084717
1602697850371,893,-0.5136719,-0.77130127,0.23602295
1602697850374,894,0.35107422,-1.2041626,0.18084717
1602697850374,895,0.22265625,-0.31500244,0.15765381
1602697850374,896,0.44433594,-1.9998169,0.45281982
1602697850375,897,0.41430664,-0.11602783,-0.0869751
1602697850375,898,0.22265625,-0.31500244,0.15765381
1602697850375,899,0.35107422,-1.2041626,0.18084717
1602697850378,900,0.6369629,-0.9434204,0.039733887
1602697850378,901,0.41430664,-0.11602783,-0.0869751
1602697850378,902,0.22265625,-0.31500244,0.15765381
1602697850379,903,0.4909668,-1.9998169,0.37982178
1602697850381,904,0.41430664,-0.11602783,-0.0869751
1602697850381,905,-0.23266602,-1.2183228,0.26312256
1602697850385,906,0.6369629,-0.9434204,0.039733887
1602697850385,907,0.6369629,-0.9434204,0.039733887
1602697850385,908,-0.29858398,-0.5130005,0.082214355
1602697850385,909,0.4909668,-1.9998169,0.37982178
1602697850386,910,-0.36132812,-0.47052002,0.15228271
1602697850388,911,0.4909668,-1.9998169,0.37982178
1602697850388,912,-0.23266602,-1.2183228,0.26312256
1602697850389,913,-0.23266602,-1.2183228,0.26312256
1602697850390,914,-0.34960938,-1.7820435,0.40252686
1602697850391,915,-0.29858398,-0.5130005,0.082214355
1602697850392,916,0.3935547,-1.9446411,0.24041748
1602697850395,917,-0.36132812,-0.47052002,0.15228271
1602697850395,918,-0.29858398,-0.5130005,0.082214355
1602697850395,919,0.31347656,-0.67803955,0.062683105
1602697850398,920,-0.34960938,-1.7820435,0.40252686
1602697850398,921,-0.36132812,-0.47052002,0.15228271
1602697850398,922,0.35180664,-0.17681885,-0.12823486
1602697850403,923,0.3935547,-1.9446411,0.24041748
1602697850403,924,-0.34960938,-1.7820435,0.40252686
1602697850403,925,0.31347656,-0.67803955,0.062683105
1602697850403,926,0.3935547,-1.9446411,0.24041748
1602697850404,927,0.4020996,-0.20611572,-0.13433838
1602697850404,928,0.31347656,-0.67803955,0.062683105
1602697850404,929,0.35180664,-0.17681885,-0.12823486
1602697850406,930,0.36914062,-1.8032837,0.014587402
1602697850406,931,0.35180664,-0.17681885,-0.12823486
1602697850407,932,0.4020996,-0.20611572,-0.13433838
1602697850408,933,0.0024414062,-1.9998169,0.1408081
1602697850412,934,0.36914062,-1.8032837,0.014587402
1602697850412,935,0.4020996,-0.20611572,-0.13433838
1602697850413,936,0.0024414062,-1.9998169,0.1408081
1602697850413,937,-0.3395996,-0.7686157,-0.050598145
1602697850413,938,-0.3395996,-0.7686157,-0.050598145
1602697850413,939,0.36914062,-1.8032837,0.014587402
1602697850416,940,-0.47729492,-0.42315674,0.0018920898
1602697850416,941,-0.47729492,-0.42315674,0.0018920898
1602697850416,942,0.0024414062,-1.9998169,0.1408081
1602697850417,943,-0.69873047,-0.80548096,0.1383667
1602697850419,944,-0.69873047,-0.80548096,0.1383667
1602697850419,945,-0.3395996,-0.7686157,-0.050598145
1602697850419,946,0.14770508,-1.9998169,0.11126709
1602697850422,947,0.14770508,-1.9998169,0.11126709
1602697850422,948,-0.47729492,-0.42315674,0.0018920898
1602697850422,949,0.3479004,-1.1045532,-0.03668213
1602697850423,950,0.3479004,-1.1045532,-0.03668213
1602697850424,951,0.34594727,-0.17218018,-0.09893799
1602697850425,952,0.34594727,-0.17218018,-0.09893799
1602697850426,953,0.4946289,-0.035949707,-0.24053955
1602697850429,954,0.4946289,-0.035949707,-0.24053955
1602697850430,955,-0.69873047,-0.80548096,0.1383667
1602697850432,956,0.14770508,-1.9998169,0.11126709
1602697850433,957,0.3479004,-1.1045532,-0.03668213
1602697850434,958,0.34594727,-0.17218018,-0.09893799
1602697850436,959,0.4946289,-0.035949707,-0.24053955
1602697852742,960,0.37451172,-1.3323364,-0.09112549
1602697852754,961,0.37451172,-1.3323364,-0.09112549
1602697852755,962,0.37451172,-1.3323364,-0.09112549
1602697852755,963,-0.0043945312,-1.9998169,0.029968262
1602697852756,964,-0.4206543,-0.954895,-0.04498291
1602697852756,965,-0.0043945312,-1.9998169,0.029968262
1602697852758,966,-0.46923828,-0.47320557,-0.0017700195
1602697852759,967,-0.0043945312,-1.9998169,0.029968262
1602697852763,968,-0.4411621,-0.50323486,0.20526123
1602697852763,969,-0.4206543,-0.954895,-0.04498291
1602697852764,970,-0.4206543,-0.954895,-0.04498291
1602697852764,971,0.0034179688,-1.9998169,0.11932373
1602697852768,972,-0.46923828,-0.47320557,-0.0017700195
1602697852768,973,0.41503906,-1.659729,-0.031555176
1602697852769,974,-0.4411621,-0.50323486,0.20526123
1602697852770,975,0.29516602,-0.39923096,-0.124572754
1602697852772,976,0.0034179688,-1.9998169,0.11932373
1602697852776,977,0.39526367,-0.04473877,-0.2883911
1602697852776,978,-0.46923828,-0.47320557,-0.0017700195
1602697852776,979,0.5756836,-0.57647705,-0.27374268
1602697852777,980,0.41503906,-1.659729,-0.031555176
1602697852778,981,-0.4411621,-0.50323486,0.20526123
1602697852780,982,0.29516602,-0.39923096,-0.124572754
1602697852781,983,0.0034179688,-1.9998169,0.11932373
1602697852783,984,0.39526367,-0.04473877,-0.2883911
1602697852785,985,0.41503906,-1.659729,-0.031555176
1602697852786,986,0.5756836,-0.57647705,-0.27374268
1602697852788,987,0.29516602,-0.39923096,-0.124572754
1602697852789,988,0.55493164,-1.9998169,-0.04815674
1602697852792,989,0.39526367,-0.04473877,-0.2883911
1602697852793,990,0.55493164,-1.9998169,-0.04815674
1602697852793,991,0.5756836,-0.57647705,-0.27374268
1602697852799,992,-0.12207031,-1.456604,0.0040893555
1602697852799,993,0.55493164,-1.9998169,-0.04815674
1602697852800,994,-0.12207031,-1.456604,0.0040893555
1602697852800,995,-0.3623047,-0.52667236,0.018493652
1602697852800,996,-0.12207031,-1.456604,0.0040893555
1602697852800,997,-0.3623047,-0.52667236,0.018493652
1602697852804,998,-0.3840332,-0.4932251,0.17449951
1602697852804,999,-0.3623047,-0.52667236,0.018493652
1602697852804,1000,-0.3840332,-0.4932251,0.17449951
1602697852816,1001,-0.13916016,-1.9998169,0.49676514
1602697852816,1002,-0.3840332,-0.4932251,0.17449951
1602697852816,1003,-0.13916016,-1.9998169,0.49676514
1602697852816,1004,-0.13916016,-1.9998169,0.49676514
1602697852817,1005,0.49389648,-1.8655396,0.17376709
1602697852817,1006,0.49389648,-1.8655396,0.17376709
1602697852818,1007,0.49389648,-1.8655396,0.17376709
1602697852818,1008,0.40356445,-0.60894775,-0.09210205
1602697852819,1009,0.40356445,-0.60894775,-0.09210205
1602697852819,1010,0.49682617,-0.0049438477,-0.3015747
1602697852819,1011,0.40356445,-0.60894775,-0.09210205
1602697852819,1012,0.58203125,0.081970215,-0.29473877
1602697852822,1013,0.49682617,-0.0049438477,-0.3015747
1602697852825,1014,0.49682617,-0.0049438477,-0.3015747
1602697852829,1015,0.58203125,0.081970215,-0.29473877
1602697852834,1016,0.58203125,0.081970215,-0.29473877
1602697852840,1017,0.93774414,-1.913147,-0.15167236
1602697852840,1018,0.93774414,-1.913147,-0.15167236
1602697852841,1019,0.93774414,-1.913147,-0.15167236
1602697852841,1020,0.21679688,-1.9998169,0.23895264
1602697852841,1021,0.21679688,-1.9998169,0.23895264
1602697852844,1022,0.21679688,-1.9998169,0.23895264
1602697852844,1023,-0.4699707,-0.75494385,0.030212402
1602697852844,1024,-0.4699707,-0.75494385,0.030212402
1602697852847,1025,-0.5527344,-0.46514893,0.042663574
1602697852847,1026,-0.4699707,-0.75494385,0.030212402
1602697852847,1027,-0.5527344,-0.46514893,0.042663574
1602697852848,1028,-0.5527344,-0.46514893,0.042663574
1602697852852,1029,-0.5715332,-0.5654907,0.19085693
1602697852852,1030,-0.5715332,-0.5654907,0.19085693
1602697852852,1031,-0.5715332,-0.5654907,0.19085693
1602697852853,1032,-0.07128906,-1.9998169,0.2897339
1602697852853,1033,-0.07128906,-1.9998169,0.2897339
1602697852855,1034,-0.07128906,-1.9998169,0.2897339
1602697852855,1035,0.5842285,-1.4636841,-0.0413208
1602697852855,1036,0.5842285,-1.4636841,-0.0413208
1602697852859,1037,0.5842285,-1.4636841,-0.0413208
1602697852859,1038,0.5073242,-0.27764893,-0.18023682
1602697852859,1039,0.5073242,-0.27764893,-0.18023682
1602697852859,1040,0.6257324,-0.1975708,-0.24908447
1602697852860,1041,0.5073242,-0.27764893,-0.18023682
1602697852862,1042,0.6257324,-0.1975708,-0.24908447
1602697852862,1043,0.3630371,-1.2659302,-0.013000488
1602697852863,1044,0.6257324,-0.1975708,-0.24908447
1602697852864,1045,0.3630371,-1.2659302,-0.013000488
1602697852865,1046,0.3630371,-1.2659302,-0.013000488
1602697852866,1047,0.060546875,-1.9998169,0.10760498
1602697852869,1048,0.060546875,-1.9998169,0.10760498
1602697852869,1049,0.060546875,-1.9998169,0.10760498
1602697852869,1050,-0.31176758,-1.0178833,0.08074951
1602697852870,1051,-0.31176758,-1.0178833,0.08074951
1602697852871,1052,-0.3395996,-0.4126587,0.08148193
1602697852875,1053,-0.3395996,-0.4126587,0.08148193
1602697852875,1054,-0.31176758,-1.0178833,0.08074951
1602697852876,1055,-0.3395996,-0.4126587,0.08148193
1602697855243,1056,-0.5900879,-0.7473755,0.28753662
1602697855251,1057,-0.5900879,-0.7473755,0.28753662
1602697855251,1058,-0.5900879,-0.7473755,0.28753662
1602697855253,1059,0.14941406,-1.9998169,0.60614014
1602697855253,1060,0.14941406,-1.9998169,0.60614014
1602697855254,1061,0.14941406,-1.9998169,0.60614014
1602697855254,1062,0.4880371,-1.123352,0.23358154
1602697855254,1063,0.4880371,-1.123352,0.23358154
1602697855257,1064,0.38745117,-0.28814697,-0.0569458
1602697855258,1065,0.4880371,-1.123352,0.23358154
1602697855258,1066,0.38745117,-0.28814697,-0.0569458
1602697855263,1067,0.46240234,-0.14508057,-0.23712158
1602697855263,1068,0.38745117,-0.28814697,-0.0569458
1602697855263,1069,0.46240234,-0.14508057,-0.23712158
1602697855264,1070,0.4013672,-0.6096802,-0.0335083
1602697855266,1071,0.46240234,-0.14508057,-0.23712158
1602697855267,1072,0.4013672,-0.6096802,-0.0335083
1602697855268,1073,0.3388672,-1.9998169,0.3287964
1602697855274,1074,0.4013672,-0.6096802,-0.0335083
1602697855274,1075,0.3388672,-1.9998169,0.3287964
1602697855275,1076,-0.25390625,-1.5772095,0.2531128
1602697855275,1077,-0.25390625,-1.5772095,0.2531128
1602697855275,1078,0.3388672,-1.9998169,0.3287964
1602697855276,1079,-0.48779297,-0.65289307,0.06365967
1602697855286,1080,-0.48779297,-0.65289307,0.06365967
1602697855286,1081,-0.25390625,-1.5772095,0.2531128
1602697855287,1082,-0.5839844,-0.36846924,0.11517334
1602697855287,1083,-0.48779297,-0.65289307,0.06365967
1602697855288,1084,-0.5839844,-0.36846924,0.11517334
1602697855288,1085,-0.52197266,-1.6692505,0.33929443
1602697855288,1086,-0.5839844,-0.36846924,0.11517334
1602697855289,1087,0.38549805,-1.9998169,0.36883545
1602697855289,1088,-0.52197266,-1.6692505,0.33929443
1602697855289,1089,-0.52197266,-1.6692505,0.33929443
1602697855290,1090,0.33813477,-0.8633423,0.015563965
1602697855301,1091,0.38549805,-1.9998169,0.36883545
1602697855302,1092,0.38549805,-1.9998169,0.36883545
1602697855302,1093,0.33813477,-0.8633423,0.015563965
1602697855303,1094,0.33813477,-0.8633423,0.015563965
1602697855303,1095,0.3803711,-0.14239502,-0.19537354
1602697855303,1096,0.3803711,-0.14239502,-0.19537354
1602697855304,1097,0.6296387,-0.027160645,-0.20928955
1602697855304,1098,0.3803711,-0.14239502,-0.19537354
1602697855305,1099,0.61035156,-1.9998169,0.13616943
1602697855306,1100,0.6296387,-0.027160645,-0.20928955
1602697855307,1101,-0.2121582,-1.6106567,0.097351074
1602697855307,1102,0.6296387,-0.027160645,-0.20928955
1602697855308,1103,-0.39526367,-0.6819458,0.042663574
1602697855311,1104,0.61035156,-1.9998169,0.13616943
1602697855311,1105,0.61035156,-1.9998169,0.13616943
1602697855311,1106,-0.41210938,-0.43414307,0.11004639
1602697855318,1107,-0.2121582,-1.6106567,0.097351074
1602697855318,1108,-0.2121582,-1.6106567,0.097351074
1602697855319,1109,-0.5510254,-1.2307739,0.23065186
1602697855319,1110,-0.39526367,-0.6819458,0.042663574
1602697855319,1111,0.3955078,-1.9998169,0.19158936
1602697855319,1112,-0.39526367,-0.6819458,0.042663574
1602697855319,1113,-0.41210938,-0.43414307,0.11004639
1602697855320,1114,-0.41210938,-0.43414307,0.11004639
1602697855324,1115,0.46948242,-0.8237915,0.09979248
1602697855324,1116,-0.5510254,-1.2307739,0.23065186
1602697855325,1117,-0.5510254,-1.2307739,0.23065186
1602697855325,1118,0.56811523,-0.21685791,-0.17852783
1602697855336,1119,0.3955078,-1.9998169,0.19158936
1602697855336,1120,0.3955078,-1.9998169,0.19158936
1602697855337,1121,0.48486328,-0.14068604,-0.3189087
1602697855337,1122,0.50219727,-1.4295044,-0.10015869
1602697855337,1123,0.46948242,-0.8237915,0.09979248
1602697855337,1124,0.46948242,-0.8237915,0.09979248
1602697855342,1125,0.56811523,-0.21685791,-0.17852783
1602697855347,1126,0.56811523,-0.21685791,-0.17852783
1602697855347,1127,0.11621094,-1.9998169,0.06463623
1602697855348,1128,0.48486328,-0.14068604,-0.3189087
1602697855349,1129,0.48486328,-0.14068604,-0.3189087
1602697855350,1130,-0.36254883,-0.8699341,0.027038574
1602697855350,1131,0.50219727,-1.4295044,-0.10015869
1602697855351,1132,0.50219727,-1.4295044,-0.10015869
1602697855358,1133,-0.3930664,-0.43341064,0.10638428
1602697855358,1134,0.11621094,-1.9998169,0.06463623
1602697855359,1135,0.11621094,-1.9998169,0.06463623
1602697855359,1136,-0.36254883,-0.8699341,0.027038574
1602697855359,1137,-0.44311523,-0.58184814,0.3463745
1602697855359,1138,-0.3930664,-0.43341064,0.10638428
1602697855360,1139,-0.36254883,-0.8699341,0.027038574
1602697855360,1140,-0.44311523,-0.58184814,0.3463745
1602697855360,1141,-0.3930664,-0.43341064,0.10638428
1602697855360,1142,0.14990234,-1.9998169,0.6942749
1602697855364,1143,0.14990234,-1.9998169,0.6942749
1602697855364,1144,-0.44311523,-0.58184814,0.3463745
1602697855365,1145,0.5710449,-1.2998657,0.21234131
1602697855365,1146,0.5710449,-1.2998657,0.21234131
1602697855366,1147,0.14990234,-1.9998169,0.6942749
1602697855369,1148,0.41479492,-0.23980713,-0.016906738
1602697855369,1149,0.41479492,-0.23980713,-0.016906738
1602697855369,1150,0.5710449,-1.2998657,0.21234131
1602697855371,1151,0.41479492,-0.23980713,-0.016906738
1602697857945,1152,0.49780273,-0.0154418945,-0.32354736
1602697857946,1153,0.49780273,-0.0154418945,-0.32354736
1602697857946,1154,0.4350586,-0.7407837,-0.061828613
1602697857947,1155,0.49780273,-0.0154418945,-0.32354736
1602697857947,1156,0.48413086,-1.9998169,0.3131714
1602697857948,1157,0.4350586,-0.7407837,-0.061828613
1602697857948,1158,0.4350586,-0.7407837,-0.061828613
1602697857953,1159,0.48413086,-1.9998169,0.3131714
1602697857953,1160,-0.09838867,-1.2922974,0.2682495
1602697857954,1161,0.48413086,-1.9998169,0.3131714
1602697857954,1162,-0.09838867,-1.2922974,0.2682495
1602697857959,1163,-0.3725586,-0.659729,0.10760498
1602697857960,1164,-0.09838867,-1.2922974,0.2682495
1602697857961,1165,-0.3725586,-0.659729,0.10760498
1602697857961,1166,-0.3947754,-0.8401489,0.24310303
1602697857962,1167,-0.3947754,-0.8401489,0.24310303
1602697857963,1168,-0.3725586,-0.659729,0.10760498
1602697857964,1169,-0.25610352,-1.1846313,0.49749756
1602697857966,1170,-0.3947754,-0.8401489,0.24310303
1602697857970,1171,0.5913086,-1.9998169,0.35247803
1602697857971,1172,-0.25610352,-1.1846313,0.49749756
1602697857971,1173,-0.25610352,-1.1846313,0.49749756
1602697857972,1174,0.53027344,-0.79815674,-0.042541504
1602697857974,1175,0.5913086,-1.9998169,0.35247803
1602697857974,1176,0.5913086,-1.9998169,0.35247803
1602697857976,1177,0.36791992,-0.20684814,-0.18780518
1602697857979,1178,0.53027344,-0.79815674,-0.042541504
1602697857980,1179,0.53027344,-0.79815674,-0.042541504
1602697857980,1180,0.30517578,-0.2913208,-0.16656494
1602697857984,1181,0.36791992,-0.20684814,-0.18780518
1602697857984,1182,0.36791992,-0.20684814,-0.18780518
1602697857984,1183,0.34228516,-1.6377563,0.12884521
1602697857985,1184,0.30517578,-0.2913208,-0.16656494
1602697857987,1185,0.30517578,-0.2913208,-0.16656494
1602697857988,1186,0.34228516,-1.6377563,0.12884521
1602697857990,1187,0.34228516,-1.6377563,0.12884521
1602697858011,1188,-0.02319336,-1.9783325,0.30169678
1602697858011,1189,-0.02319336,-1.9783325,0.30169678
1602697858012,1190,-0.28710938,-0.71539307,0.059265137
1602697858012,1191,-0.28710938,-0.71539307,0.059265137
1602697858012,1192,-0.44458008,-0.4487915,0.08514404
1602697858015,1193,-0.02319336,-1.9783325,0.30169678
1602697858015,1194,-0.6525879,-0.9146118,0.12249756
1602697858016,1195,-0.44458008,-0.4487915,0.08514404
1602697858016,1196,0.31884766,-1.9998169,0.2321167
1602697858016,1197,-0.28710938,-0.71539307,0.059265137
1602697858016,1198,-0.6525879,-0.9146118,0.12249756
1602697858017,1199,0.31884766,-1.9998169,0.2321167
1602697858018,1200,0.40600586,-1.0916138,0.12054443
1602697858018,1201,-0.44458008,-0.4487915,0.08514404
1602697858018,1202,0.3005371,-0.051818848,-0.15362549
1602697858018,1203,0.40600586,-1.0916138,0.12054443
1602697858018,1204,0.44921875,0.070495605,-0.35528564
1602697858018,1205,-0.6525879,-0.9146118,0.12249756
1602697858018,1206,0.5991211,-1.1965942,-0.2131958
1602697858018,1207,0.31884766,-1.9998169,0.2321167
1602697858022,1208,0.3005371,-0.051818848,-0.15362549
1602697858022,1209,0.39648438,-1.9998169,0.23284912
1602697858023,1210,0.40600586,-1.0916138,0.12054443
1602697858023,1211,0.44921875,0.070495605,-0.35528564
1602697858024,1212,-0.09667969,-1.2185669,0.11151123
1602697858026,1213,0.5991211,-1.1965942,-0.2131958
1602697858027,1214,0.3005371,-0.051818848,-0.15362549
1602697858027,1215,-0.25854492,-0.57037354,0.13519287
1602697858034,1216,0.44921875,0.070495605,-0.35528564
1602697858034,1217,0.39648438,-1.9998169,0.23284912
1602697858035,1218,0.5991211,-1.1965942,-0.2131958
1602697858035,1219,-0.41992188,-0.3850708,0.24163818
1602697858035,1220,-0.09667969,-1.2185669,0.11151123
1602697858035,1221,0.39648438,-1.9998169,0.23284912
1602697858036,1222,-0.09667969,-1.2185669,0.11151123
1602697858038,1223,-0.25854492,-0.57037354,0.13519287
1602697858038,1224,-0.25854492,-0.57037354,0.13519287
1602697858039,1225,-0.41992188,-0.3850708,0.24163818
1602697858041,1226,-0.03930664,-1.9998169,0.33563232
1602697858041,1227,-0.41992188,-0.3850708,0.24163818
1602697858041,1228,-0.03930664,-1.9998169,0.33563232
1602697858042,1229,0.7241211,-1.7373657,0.070495605
1602697858043,1230,0.7241211,-1.7373657,0.070495605
1602697858044,1231,0.484375,-0.40167236,-0.18487549
1602697858045,1232,0.484375,-0.40167236,-0.18487549
1602697858046,1233,0.6772461,-0.19683838,-0.26568604
1602697858050,1234,0.6772461,-0.19683838,-0.26568604
1602697858051,1235,-0.03930664,-1.9998169,0.33563232
1602697858055,1236,0.52001953,-0.6069946,-0.14190674
1602697858055,1237,0.52001953,-0.6069946,-0.14190674
1602697858056,1238,0.7241211,-1.7373657,0.070495605
1602697858056,1239,0.4494629,-1.6438599,0.04095459
1602697858056,1240,0.4494629,-1.6438599,0.04095459
1602697858057,1241,0.484375,-0.40167236,-0.18487549
1602697858058,1242,-0.06982422,-1.8318481,0.026062012
1602697858060,1243,-0.06982422,-1.8318481,0.026062012
1602697858061,1244,0.6772461,-0.19683838,-0.26568604
1602697858063,1245,0.52001953,-0.6069946,-0.14190674
1602697858064,1246,0.4494629,-1.6438599,0.04095459
1602697858068,1247,-0.06982422,-1.8318481,0.026062012
