# Sensor position: Chest
# Sensor side: Right
# Activity type: Sitting bent forward
# Activity code: 4
# Subject id: s1758499
timestamp,seq,accel_x,accel_y,accel_z
1602703088144,0,-0.14575195,-1.0237427,-0.33428955
1602703088147,1,-0.14575195,-0.9636841,-0.3340454
1602703088148,2,-0.14575195,-1.0237427,-0.33428955
1602703088148,3,-0.14575195,-1.0237427,-0.33428955
1602703088161,4,-0.14282227,-0.97369385,-0.33502197
1602703088162,5,-0.14575195,-0.9636841,-0.3340454
1602703088162,6,-0.14575195,-0.9636841,-0.3340454
1602703088163,7,-0.14282227,-0.97369385,-0.33502197
1602703088163,8,-0.14282227,-0.97369385,-0.33502197
1602703088163,9,-0.19213867,-0.91900635,-0.40045166
1602703088164,10,-0.19213867,-0.91900635,-0.40045166
1602703088164,11,-0.19213867,-0.91900635,-0.40045166
1602703088165,12,-0.1586914,-1.0046997,-0.44976807
1602703088165,13,-0.1586914,-1.0046997,-0.44976807
1602703088165,14,-0.1586914,-1.0046997,-0.44976807
1602703088166,15,-0.20678711,-0.9963989,-0.46051025
1602703088166,16,-0.20678711,-0.9963989,-0.46051025
1602703088166,17,-0.22167969,-0.987854,-0.43707275
1602703088167,18,-0.22167969,-0.987854,-0.43707275
1602703088172,19,-0.20678711,-0.9963989,-0.46051025
1602703088172,20,-0.14257812,-0.90167236,-0.4368286
1602703088172,21,-0.14257812,-0.90167236,-0.4368286
1602703088173,22,-0.22167969,-0.987854,-0.43707275
1602703088173,23,-0.171875,-0.95025635,-0.45367432
1602703088178,24,-0.171875,-0.95025635,-0.45367432
1602703088178,25,-0.14257812,-0.90167236,-0.4368286
1602703088178,26,-0.16894531,-0.95098877,-0.4446411
1602703088179,27,-0.16894531,-0.95098877,-0.4446411
1602703088182,28,-0.171875,-0.95025635,-0.45367432
1602703088183,29,-0.16259766,-0.93536377,-0.4258423
1602703088183,30,-0.16259766,-0.93536377,-0.4258423
1602703088184,31,-0.16894531,-0.95098877,-0.4446411
1602703088188,32,-0.17919922,-0.9417114,-0.44293213
1602703088189,33,-0.17919922,-0.9417114,-0.44293213
1602703088189,34,-0.16259766,-0.93536377,-0.4258423
1602703088189,35,-0.19555664,-0.9456177,-0.440979
1602703088190,36,-0.19555664,-0.9456177,-0.440979
1602703088197,37,-0.1887207,-0.93634033,-0.44781494
1602703088198,38,-0.17919922,-0.9417114,-0.44293213
1602703088198,39,-0.1887207,-0.93634033,-0.44781494
1602703088199,40,-0.19555664,-0.9456177,-0.440979
1602703088199,41,-0.19165039,-0.9475708,-0.44366455
1602703088200,42,-0.19165039,-0.9475708,-0.44366455
1602703088201,43,-0.1887207,-0.93634033,-0.44781494
1602703088203,44,-0.19042969,-0.9312134,-0.440979
1602703088204,45,-0.19165039,-0.9475708,-0.44366455
1602703088206,46,-0.18725586,-0.94659424,-0.44195557
1602703088207,47,-0.19042969,-0.9312134,-0.440979
1602703088218,48,-0.19897461,-0.97247314,-0.45074463
1602703088219,49,-0.19042969,-0.9312134,-0.440979
1602703088219,50,-0.18725586,-0.94659424,-0.44195557
1602703088220,51,-0.18725586,-0.94659424,-0.44195557
1602703088220,52,-0.16210938,-0.9216919,-0.4336548
1602703088221,53,-0.19897461,-0.97247314,-0.45074463
1602703088221,54,-0.19897461,-0.97247314,-0.45074463
1602703088221,55,-0.16210938,-0.9216919,-0.4336548
1602703088222,56,-0.17871094,-0.95513916,-0.43292236
1602703088222,57,-0.17871094,-0.95513916,-0.43292236
1602703088223,58,-0.18115234,-0.9468384,-0.43389893
1602703088229,59,-0.16210938,-0.9216919,-0.4336548
1602703088229,60,-0.18115234,-0.9468384,-0.43389893
1602703088230,61,-0.17456055,-0.94659424,-0.43170166
1602703088230,62,-0.17871094,-0.95513916,-0.43292236
1602703088230,63,-0.1821289,-0.9492798,-0.427063
1602703088231,64,-0.17456055,-0.94659424,-0.43170166
1602703088245,65,-0.18115234,-0.9468384,-0.43389893
1602703088246,66,-0.17285156,-0.9468384,-0.4290161
1602703088246,67,-0.17456055,-0.94659424,-0.43170166
1602703088246,68,-0.17993164,-0.9492798,-0.42803955
1602703088247,69,-0.1821289,-0.9492798,-0.427063
1602703088248,70,-0.1821289,-0.9492798,-0.427063
1602703088248,71,-0.17285156,-0.9468384,-0.4290161
1602703088248,72,-0.17285156,-0.9468384,-0.4290161
1602703088249,73,-0.17993164,-0.9492798,-0.42803955
1602703088249,74,-0.17993164,-0.9492798,-0.42803955
1602703088249,75,-0.18261719,-0.9451294,-0.4360962
1602703088250,76,-0.18261719,-0.9451294,-0.4360962
1602703088250,77,-0.1809082,-0.94488525,-0.43218994
1602703088250,78,-0.18261719,-0.9451294,-0.4360962
1602703088251,79,-0.1809082,-0.94488525,-0.43218994
1602703088251,80,-0.18237305,-0.95098877,-0.43145752
1602703088252,81,-0.18237305,-0.95098877,-0.43145752
1602703088255,82,-0.1809082,-0.94488525,-0.43218994
1602703088255,83,-0.18432617,-0.94488525,-0.43292236
1602703088256,84,-0.18432617,-0.94488525,-0.43292236
1602703088259,85,-0.18383789,-0.94488525,-0.43218994
1602703088260,86,-0.18237305,-0.95098877,-0.43145752
1602703088260,87,-0.18383789,-0.94488525,-0.43218994
1602703088263,88,-0.18066406,-0.95025635,-0.42852783
1602703088263,89,-0.18432617,-0.94488525,-0.43292236
1602703088263,90,-0.18066406,-0.95025635,-0.42852783
1602703088265,91,-0.18115234,-0.94732666,-0.4331665
1602703088269,92,-0.18115234,-0.94732666,-0.4331665
1602703088269,93,-0.18383789,-0.94488525,-0.43218994
1602703088271,94,-0.18066406,-0.95025635,-0.42852783
1602703088273,95,-0.18115234,-0.94732666,-0.4331665
1602703090746,96,-0.18310547,-0.94610596,-0.4290161
1602703090749,97,-0.18310547,-0.94610596,-0.4290161
1602703090750,98,-0.18310547,-0.94610596,-0.4290161
1602703090750,99,-0.18701172,-0.9475708,-0.43243408
1602703090756,100,-0.18701172,-0.9475708,-0.43243408
1602703090756,101,-0.18701172,-0.9475708,-0.43243408
1602703090758,102,-0.18041992,-0.94781494,-0.4319458
1602703090758,103,-0.18041992,-0.94781494,-0.4319458
1602703090764,104,-0.18041992,-0.94781494,-0.4319458
1602703090764,105,-0.18359375,-0.94781494,-0.4277954
1602703090764,106,-0.18359375,-0.94781494,-0.4277954
1602703090766,107,-0.18139648,-0.95025635,-0.42974854
1602703090771,108,-0.18139648,-0.95025635,-0.42974854
1602703090772,109,-0.18359375,-0.94781494,-0.4277954
1602703090772,110,-0.18139648,-0.9468384,-0.4265747
1602703090772,111,-0.18139648,-0.95025635,-0.42974854
1602703090779,112,-0.18139648,-0.9468384,-0.4265747
1602703090780,113,-0.1784668,-0.9458618,-0.43121338
1602703090780,114,-0.18139648,-0.9468384,-0.4265747
1602703090780,115,-0.1784668,-0.9458618,-0.43121338
1602703090781,116,-0.18286133,-0.9524536,-0.42559814
1602703090790,117,-0.18286133,-0.9524536,-0.42559814
1602703090791,118,-0.1784668,-0.9458618,-0.43121338
1602703090791,119,-0.17871094,-0.9470825,-0.4258423
1602703090792,120,-0.18286133,-0.9524536,-0.42559814
1602703090793,121,-0.17871094,-0.9470825,-0.4258423
1602703090793,122,-0.1821289,-0.95025635,-0.425354
1602703090794,123,-0.1821289,-0.95025635,-0.425354
1602703090795,124,-0.1821289,-0.95196533,-0.42144775
1602703090795,125,-0.17871094,-0.9470825,-0.4258423
1602703090799,126,-0.17773438,-0.9507446,-0.4212036
1602703090800,127,-0.1821289,-0.95196533,-0.42144775
1602703090800,128,-0.1821289,-0.95025635,-0.425354
1602703090814,129,-0.17773438,-0.9507446,-0.4212036
1602703090815,130,-0.1821289,-0.9517212,-0.42364502
1602703090815,131,-0.1821289,-0.95196533,-0.42144775
1602703090816,132,-0.1821289,-0.9517212,-0.42364502
1602703090816,133,-0.17773438,-0.9507446,-0.4212036
1602703090817,134,-0.17944336,-0.9500122,-0.42437744
1602703090817,135,-0.17944336,-0.9500122,-0.42437744
1602703090818,136,-0.18432617,-0.9505005,-0.42559814
1602703090818,137,-0.1821289,-0.9517212,-0.42364502
1602703090819,138,-0.18432617,-0.9505005,-0.42559814
1602703090819,139,-0.17944336,-0.9500122,-0.42437744
1602703090820,140,-0.18066406,-0.95147705,-0.4204712
1602703090820,141,-0.18432617,-0.9505005,-0.42559814
1602703090820,142,-0.18066406,-0.95147705,-0.4204712
1602703090821,143,-0.18066406,-0.95147705,-0.4204712
1602703090825,144,-0.17651367,-0.9517212,-0.42315674
1602703090825,145,-0.17651367,-0.9517212,-0.42315674
1602703090825,146,-0.17651367,-0.9517212,-0.42315674
1602703090830,147,-0.18334961,-0.9505005,-0.42266846
1602703090831,148,-0.18334961,-0.9505005,-0.42266846
1602703090831,149,-0.18334961,-0.9505005,-0.42266846
1602703090832,150,-0.17578125,-0.94659424,-0.42633057
1602703090836,151,-0.17578125,-0.94659424,-0.42633057
1602703090837,152,-0.17578125,-0.94659424,-0.42633057
1602703090838,153,-0.17919922,-0.9480591,-0.4241333
1602703090842,154,-0.17919922,-0.9480591,-0.4241333
1602703090843,155,-0.17919922,-0.9480591,-0.4241333
1602703090843,156,-0.18139648,-0.94976807,-0.4229126
1602703090845,157,-0.18139648,-0.94976807,-0.4229126
1602703090846,158,-0.17871094,-0.9505005,-0.4216919
1602703090851,159,-0.17871094,-0.9505005,-0.4216919
1602703090851,160,-0.18139648,-0.94976807,-0.4229126
1602703090852,161,-0.18261719,-0.95098877,-0.42437744
1602703090852,162,-0.18261719,-0.95098877,-0.42437744
1602703090857,163,-0.17871094,-0.9505005,-0.4216919
1602703090858,164,-0.17651367,-0.9468384,-0.4282837
1602703090858,165,-0.18261719,-0.95098877,-0.42437744
1602703090858,166,-0.17651367,-0.9468384,-0.4282837
1602703090863,167,-0.18432617,-0.9512329,-0.42730713
1602703090865,168,-0.17651367,-0.9468384,-0.4282837
1602703090865,169,-0.18432617,-0.9512329,-0.42730713
1602703090866,170,-0.18432617,-0.9512329,-0.42730713
1602703090867,171,-0.18359375,-0.9517212,-0.425354
1602703090871,172,-0.18359375,-0.9517212,-0.425354
1602703090871,173,-0.18359375,-0.9517212,-0.425354
1602703090872,174,-0.17993164,-0.9522095,-0.42510986
1602703090877,175,-0.17993164,-0.9522095,-0.42510986
1602703090878,176,-0.17993164,-0.9522095,-0.42510986
1602703090879,177,-0.1784668,-0.9483032,-0.42510986
1602703090879,178,-0.1784668,-0.9483032,-0.42510986
1602703090879,179,-0.1784668,-0.9483032,-0.42510986
1602703090882,180,-0.18188477,-0.9468384,-0.42608643
1602703090883,181,-0.18188477,-0.9468384,-0.42608643
1602703090885,182,-0.1796875,-0.9507446,-0.427063
1602703090887,183,-0.1796875,-0.9507446,-0.427063
1602703090890,184,-0.17919922,-0.94976807,-0.4241333
1602703090894,185,-0.17919922,-0.94976807,-0.4241333
1602703090894,186,-0.18188477,-0.9468384,-0.42608643
1602703090895,187,-0.18798828,-0.95025635,-0.42608643
1602703090896,188,-0.18798828,-0.95025635,-0.42608643
1602703090900,189,-0.1796875,-0.9507446,-0.427063
1602703090902,190,-0.17919922,-0.94976807,-0.4241333
1602703090907,191,-0.18798828,-0.95025635,-0.42608643
1602703093246,192,-0.17895508,-0.94610596,-0.4229126
1602703093260,193,-0.18579102,-0.9507446,-0.42193604
1602703093261,194,-0.17895508,-0.94610596,-0.4229126
1602703093261,195,-0.17895508,-0.94610596,-0.4229126
1602703093262,196,-0.17871094,-0.94781494,-0.42486572
1602703093262,197,-0.18579102,-0.9507446,-0.42193604
1602703093263,198,-0.18579102,-0.9507446,-0.42193604
1602703093264,199,-0.17871094,-0.94781494,-0.42486572
1602703093264,200,-0.18652344,-0.9500122,-0.42633057
1602703093265,201,-0.17871094,-0.94781494,-0.42486572
1602703093269,202,-0.18652344,-0.9500122,-0.42633057
1602703093270,203,-0.18261719,-0.94854736,-0.42437744
1602703093271,204,-0.18652344,-0.9500122,-0.42633057
1602703093277,205,-0.18261719,-0.94854736,-0.42437744
1602703093278,206,-0.17919922,-0.94903564,-0.4258423
1602703093278,207,-0.18261719,-0.94854736,-0.42437744
1602703093284,208,-0.17919922,-0.94903564,-0.4258423
1602703093284,209,-0.1809082,-0.9500122,-0.42486572
1602703093285,210,-0.17919922,-0.94903564,-0.4258423
1602703093290,211,-0.1809082,-0.9500122,-0.42486572
1602703093290,212,-0.1809082,-0.9500122,-0.42486572
1602703093292,213,-0.18115234,-0.94732666,-0.42559814
1602703093298,214,-0.18115234,-0.94732666,-0.42559814
1602703093299,215,-0.18115234,-0.94732666,-0.42559814
1602703093299,216,-0.18041992,-0.94781494,-0.42999268
1602703093300,217,-0.18041992,-0.94781494,-0.42999268
1602703093302,218,-0.18041992,-0.94781494,-0.42999268
1602703093305,219,-0.18383789,-0.95318604,-0.42315674
1602703093305,220,-0.18383789,-0.95318604,-0.42315674
1602703093306,221,-0.18383789,-0.95318604,-0.42315674
1602703093310,222,-0.18188477,-0.9500122,-0.42730713
1602703093311,223,-0.18188477,-0.9500122,-0.42730713
1602703093311,224,-0.18188477,-0.9500122,-0.42730713
1602703093324,225,-0.18261719,-0.9492798,-0.42315674
1602703093325,226,-0.18261719,-0.9492798,-0.42315674
1602703093326,227,-0.18261719,-0.9492798,-0.42315674
1602703093326,228,-0.18164062,-0.94976807,-0.4265747
1602703093327,229,-0.18164062,-0.94976807,-0.4265747
1602703093327,230,-0.18164062,-0.94976807,-0.4265747
1602703093328,231,-0.18139648,-0.94732666,-0.4216919
1602703093329,232,-0.18139648,-0.94732666,-0.4216919
1602703093329,233,-0.18139648,-0.94732666,-0.4216919
1602703093329,234,-0.18139648,-0.9495239,-0.42242432
1602703093330,235,-0.18139648,-0.9495239,-0.42242432
1602703093330,236,-0.1821289,-0.9512329,-0.42510986
1602703093331,237,-0.18139648,-0.9495239,-0.42242432
1602703093337,238,-0.1821289,-0.9512329,-0.42510986
1602703093338,239,-0.18432617,-0.9495239,-0.42388916
1602703093338,240,-0.1821289,-0.9512329,-0.42510986
1602703093338,241,-0.18188477,-0.94903564,-0.42266846
1602703093339,242,-0.18432617,-0.9495239,-0.42388916
1602703093342,243,-0.18432617,-0.9495239,-0.42388916
1602703093343,244,-0.18652344,-0.95440674,-0.42071533
1602703093345,245,-0.18188477,-0.94903564,-0.42266846
1602703093345,246,-0.18310547,-0.94781494,-0.42340088
1602703093346,247,-0.18652344,-0.95440674,-0.42071533
1602703093347,248,-0.18798828,-0.9500122,-0.4229126
1602703093349,249,-0.18310547,-0.94781494,-0.42340088
1602703093352,250,-0.18408203,-0.9507446,-0.4277954
1602703093352,251,-0.18188477,-0.94903564,-0.42266846
1602703093353,252,-0.18798828,-0.9500122,-0.4229126
1602703093357,253,-0.18115234,-0.9492798,-0.41680908
1602703093358,254,-0.18652344,-0.95440674,-0.42071533
1602703093358,255,-0.18408203,-0.9507446,-0.4277954
1602703093358,256,-0.1887207,-0.9505005,-0.42266846
1602703093363,257,-0.18310547,-0.94781494,-0.42340088
1602703093364,258,-0.18115234,-0.9492798,-0.41680908
1602703093364,259,-0.18334961,-0.94781494,-0.42608643
1602703093365,260,-0.18798828,-0.9500122,-0.4229126
1602703093370,261,-0.18408203,-0.9470825,-0.4199829
1602703093372,262,-0.1887207,-0.9505005,-0.42266846
1602703093373,263,-0.18408203,-0.9507446,-0.4277954
1602703093373,264,-0.18652344,-0.9524536,-0.42364502
1602703093373,265,-0.18115234,-0.9492798,-0.41680908
1602703093373,266,-0.18334961,-0.94781494,-0.42608643
1602703093377,267,-0.17919922,-0.9483032,-0.42022705
1602703093377,268,-0.1887207,-0.9505005,-0.42266846
1602703093377,269,-0.18408203,-0.9470825,-0.4199829
1602703093382,270,-0.18725586,-0.9505005,-0.42608643
1602703093383,271,-0.18334961,-0.94781494,-0.42608643
1602703093383,272,-0.18652344,-0.9524536,-0.42364502
1602703093383,273,-0.18701172,-0.94781494,-0.4282837
1602703093384,274,-0.17919922,-0.9483032,-0.42022705
1602703093385,275,-0.18408203,-0.9470825,-0.4199829
1602703093390,276,-0.18725586,-0.9505005,-0.42608643
1602703093390,277,-0.18188477,-0.9522095,-0.42486572
1602703093390,278,-0.18652344,-0.9524536,-0.42364502
1602703093390,279,-0.18701172,-0.94781494,-0.4282837
1602703093394,280,-0.1850586,-0.9522095,-0.4229126
1602703093395,281,-0.17919922,-0.9483032,-0.42022705
1602703093395,282,-0.18188477,-0.9522095,-0.42486572
1602703093395,283,-0.18725586,-0.9505005,-0.42608643
1602703093399,284,-0.18701172,-0.94781494,-0.4282837
1602703093399,285,-0.1850586,-0.9522095,-0.4229126
1602703093401,286,-0.18188477,-0.9522095,-0.42486572
1602703093402,287,-0.1850586,-0.9522095,-0.4229126
1602703095846,288,-0.18481445,-0.95025635,-0.42510986
1602703095852,289,-0.18481445,-0.95025635,-0.42510986
1602703095852,290,-0.18481445,-0.95025635,-0.42510986
1602703095853,291,-0.18652344,-0.94903564,-0.4290161
1602703095856,292,-0.18652344,-0.94903564,-0.4290161
1602703095856,293,-0.18652344,-0.94903564,-0.4290161
1602703095857,294,-0.18725586,-0.94659424,-0.42608643
1602703095863,295,-0.18725586,-0.94659424,-0.42608643
1602703095864,296,-0.18725586,-0.94659424,-0.42608643
1602703095864,297,-0.18652344,-0.9483032,-0.4258423
1602703095864,298,-0.18652344,-0.9483032,-0.4258423
1602703095866,299,-0.18652344,-0.9483032,-0.4258423
1602703095868,300,-0.18554688,-0.9483032,-0.42266846
1602703095869,301,-0.18554688,-0.9483032,-0.42266846
1602703095877,302,-0.1875,-0.9483032,-0.42633057
1602703095877,303,-0.18554688,-0.9483032,-0.42266846
1602703095878,304,-0.18481445,-0.9480591,-0.42633057
1602703095878,305,-0.1875,-0.9483032,-0.42633057
1602703095878,306,-0.1875,-0.9483032,-0.42633057
1602703095879,307,-0.18481445,-0.9480591,-0.42633057
1602703095879,308,-0.18481445,-0.9480591,-0.42633057
1602703095879,309,-0.18432617,-0.95025635,-0.42266846
1602703095882,310,-0.18432617,-0.95025635,-0.42266846
1602703095882,311,-0.18432617,-0.95025635,-0.42266846
1602703095882,312,-0.1875,-0.94781494,-0.42877197
1602703095883,313,-0.1875,-0.94781494,-0.42877197
1602703095884,314,-0.1875,-0.94781494,-0.42877197
1602703095885,315,-0.18554688,-0.9463501,-0.42852783
1602703095887,316,-0.18554688,-0.9463501,-0.42852783
1602703095888,317,-0.18554688,-0.9463501,-0.42852783
1602703095892,318,-0.18237305,-0.94659424,-0.4258423
1602703095892,319,-0.18237305,-0.94659424,-0.4258423
1602703095892,320,-0.18237305,-0.94659424,-0.4258423
1602703095893,321,-0.18579102,-0.95025635,-0.4258423
1602703095893,322,-0.18579102,-0.95025635,-0.4258423
1602703095893,323,-0.18579102,-0.95025635,-0.4258423
1602703095896,324,-0.18334961,-0.94537354,-0.425354
1602703095897,325,-0.18334961,-0.94537354,-0.425354
1602703095897,326,-0.18334961,-0.94537354,-0.425354
1602703095897,327,-0.18481445,-0.9487915,-0.43218994
1602703095901,328,-0.18481445,-0.9487915,-0.43218994
1602703095901,329,-0.18066406,-0.94903564,-0.42608643
1602703095901,330,-0.18481445,-0.9487915,-0.43218994
1602703095901,331,-0.18066406,-0.94903564,-0.42608643
1602703095902,332,-0.18652344,-0.95269775,-0.43023682
1602703095905,333,-0.18652344,-0.95269775,-0.43023682
1602703095905,334,-0.18066406,-0.94903564,-0.42608643
1602703095906,335,-0.17822266,-0.94854736,-0.42559814
1602703095907,336,-0.17822266,-0.94854736,-0.42559814
1602703095909,337,-0.18554688,-0.9470825,-0.42681885
1602703095909,338,-0.18652344,-0.95269775,-0.43023682
1602703095910,339,-0.18554688,-0.9470825,-0.42681885
1602703095911,340,-0.18334961,-0.9470825,-0.427063
1602703095918,341,-0.18334961,-0.9470825,-0.427063
1602703095918,342,-0.17822266,-0.94854736,-0.42559814
1602703095919,343,-0.19091797,-0.9524536,-0.42388916
1602703095919,344,-0.18554688,-0.9470825,-0.42681885
1602703095919,345,-0.18334961,-0.94781494,-0.42486572
1602703095920,346,-0.18334961,-0.9470825,-0.427063
1602703095920,347,-0.18457031,-0.9483032,-0.42364502
1602703095920,348,-0.19091797,-0.9524536,-0.42388916
1602703095920,349,-0.19091797,-0.9524536,-0.42388916
1602703095923,350,-0.1862793,-0.9512329,-0.4204712
1602703095923,351,-0.18334961,-0.94781494,-0.42486572
1602703095924,352,-0.18334961,-0.94781494,-0.42486572
1602703095928,353,-0.18408203,-0.95147705,-0.4187622
1602703095928,354,-0.18457031,-0.9483032,-0.42364502
1602703095929,355,-0.18457031,-0.9483032,-0.42364502
1602703095929,356,-0.1862793,-0.9512329,-0.4204712
1602703095929,357,-0.18310547,-0.9500122,-0.41973877
1602703095930,358,-0.18408203,-0.95147705,-0.4187622
1602703095930,359,-0.1862793,-0.9512329,-0.4204712
1602703095939,360,-0.18359375,-0.9500122,-0.4216919
1602703095939,361,-0.18310547,-0.9500122,-0.41973877
1602703095939,362,-0.18408203,-0.95147705,-0.4187622
1602703095940,363,-0.1809082,-0.9500122,-0.42510986
1602703095943,364,-0.18310547,-0.9500122,-0.41973877
1602703095943,365,-0.18359375,-0.9500122,-0.4216919
1602703095943,366,-0.18359375,-0.9500122,-0.4216919
1602703095943,367,-0.18041992,-0.9529419,-0.41558838
1602703095945,368,-0.1809082,-0.9500122,-0.42510986
1602703095945,369,-0.1809082,-0.9500122,-0.42510986
1602703095945,370,-0.18041992,-0.9529419,-0.41558838
1602703095945,371,-0.17504883,-0.94976807,-0.4175415
1602703095949,372,-0.18041992,-0.9529419,-0.41558838
1602703095949,373,-0.17504883,-0.94976807,-0.4175415
1602703095949,374,-0.18164062,-0.94903564,-0.42388916
1602703095950,375,-0.18164062,-0.94903564,-0.42388916
1602703095952,376,-0.18261719,-0.94903564,-0.4212036
1602703095957,377,-0.18261719,-0.94903564,-0.4212036
1602703095957,378,-0.1809082,-0.9492798,-0.41778564
1602703095957,379,-0.1809082,-0.9492798,-0.41778564
1602703095961,380,-0.17504883,-0.94976807,-0.4175415
1602703095962,381,-0.18164062,-0.94903564,-0.42388916
1602703095964,382,-0.18261719,-0.94903564,-0.4212036
1602703095965,383,-0.1809082,-0.9492798,-0.41778564
1602703098348,384,-0.18359375,-0.9546509,-0.4187622
1602703098357,385,-0.18359375,-0.9546509,-0.4187622
1602703098358,386,-0.18359375,-0.9546509,-0.4187622
1602703098358,387,-0.18725586,-0.9495239,-0.42218018
1602703098359,388,-0.18725586,-0.9495239,-0.42218018
1602703098359,389,-0.18701172,-0.94903564,-0.42681885
1602703098360,390,-0.18725586,-0.9495239,-0.42218018
1602703098365,391,-0.18701172,-0.94903564,-0.42681885
1602703098366,392,-0.1862793,-0.95440674,-0.41900635
1602703098366,393,-0.18701172,-0.94903564,-0.42681885
1602703098377,394,-0.1862793,-0.95440674,-0.41900635
1602703098377,395,-0.18432617,-0.9470825,-0.42633057
1602703098378,396,-0.1862793,-0.95440674,-0.41900635
1602703098379,397,-0.18432617,-0.95025635,-0.42486572
1602703098379,398,-0.18432617,-0.9470825,-0.42633057
1602703098380,399,-0.18920898,-0.9475708,-0.4282837
1602703098380,400,-0.18432617,-0.9470825,-0.42633057
1602703098385,401,-0.18432617,-0.95025635,-0.42486572
1602703098385,402,-0.18017578,-0.95098877,-0.42608643
1602703098385,403,-0.18432617,-0.95025635,-0.42486572
1602703098394,404,-0.18920898,-0.9475708,-0.4282837
1602703098395,405,-0.1862793,-0.9480591,-0.42071533
1602703098397,406,-0.18920898,-0.9475708,-0.4282837
1602703098398,407,-0.1875,-0.95196533,-0.42462158
1602703098398,408,-0.18017578,-0.95098877,-0.42608643
1602703098399,409,-0.18481445,-0.94537354,-0.4258423
1602703098403,410,-0.18017578,-0.95098877,-0.42608643
1602703098404,411,-0.1862793,-0.9480591,-0.42071533
1602703098405,412,-0.19042969,-0.95196533,-0.42681885
1602703098411,413,-0.1862793,-0.9480591,-0.42071533
1602703098412,414,-0.1875,-0.95196533,-0.42462158
1602703098413,415,-0.19165039,-0.9522095,-0.4212036
1602703098413,416,-0.18481445,-0.94537354,-0.4258423
1602703098430,417,-0.1875,-0.95196533,-0.42462158
1602703098430,418,-0.18969727,-0.9475708,-0.4241333
1602703098431,419,-0.18481445,-0.94537354,-0.4258423
1602703098431,420,-0.19042969,-0.95196533,-0.42681885
1602703098432,421,-0.19042969,-0.95196533,-0.42681885
1602703098433,422,-0.18920898,-0.9483032,-0.4216919
1602703098433,423,-0.19165039,-0.9522095,-0.4212036
1602703098434,424,-0.1862793,-0.9487915,-0.42633057
1602703098435,425,-0.19165039,-0.9522095,-0.4212036
1602703098435,426,-0.18969727,-0.9475708,-0.4241333
1602703098436,427,-0.18969727,-0.9475708,-0.4241333
1602703098437,428,-0.18774414,-0.9505005,-0.42242432
1602703098444,429,-0.18920898,-0.9483032,-0.4216919
1602703098444,430,-0.18920898,-0.9483032,-0.4216919
1602703098444,431,-0.19018555,-0.9492798,-0.42633057
1602703098445,432,-0.1862793,-0.9487915,-0.42633057
1602703098448,433,-0.1862793,-0.9487915,-0.42633057
1602703098452,434,-0.18774414,-0.9505005,-0.42242432
1602703098453,435,-0.18896484,-0.9456177,-0.42926025
1602703098453,436,-0.18774414,-0.9505005,-0.42242432
1602703098455,437,-0.19018555,-0.9492798,-0.42633057
1602703098458,438,-0.19018555,-0.9492798,-0.42633057
1602703098461,439,-0.18896484,-0.9456177,-0.42926025
1602703098461,440,-0.18847656,-0.9495239,-0.43048096
1602703098462,441,-0.18896484,-0.9456177,-0.42926025
1602703098471,442,-0.18847656,-0.9495239,-0.43048096
1602703098472,443,-0.18798828,-0.9463501,-0.42510986
1602703098472,444,-0.18847656,-0.9495239,-0.43048096
1602703098472,445,-0.18798828,-0.9463501,-0.42510986
1602703098473,446,-0.18798828,-0.9463501,-0.42510986
1602703098473,447,-0.1899414,-0.9475708,-0.4277954
1602703098474,448,-0.1899414,-0.9475708,-0.4277954
1602703098474,449,-0.1899414,-0.9475708,-0.4277954
1602703098475,450,-0.18701172,-0.94781494,-0.4212036
1602703098478,451,-0.18701172,-0.94781494,-0.4212036
1602703098478,452,-0.18701172,-0.94781494,-0.4212036
1602703098479,453,-0.1875,-0.94732666,-0.42999268
1602703098483,454,-0.1875,-0.94732666,-0.42999268
1602703098483,455,-0.1875,-0.94732666,-0.42999268
1602703098484,456,-0.18579102,-0.9483032,-0.4241333
1602703098484,457,-0.18579102,-0.9483032,-0.4241333
1602703098493,458,-0.18579102,-0.9483032,-0.4241333
1602703098493,459,-0.18969727,-0.94732666,-0.42730713
1602703098493,460,-0.18969727,-0.94732666,-0.42730713
1602703098493,461,-0.18969727,-0.94732666,-0.42730713
1602703098494,462,-0.18798828,-0.9470825,-0.42852783
1602703098495,463,-0.18798828,-0.9470825,-0.42852783
1602703098495,464,-0.18701172,-0.9483032,-0.42877197
1602703098495,465,-0.18798828,-0.9470825,-0.42852783
1602703098495,466,-0.18383789,-0.9470825,-0.42803955
1602703098496,467,-0.18701172,-0.9483032,-0.42877197
1602703098504,468,-0.18701172,-0.9483032,-0.42877197
1602703098505,469,-0.18969727,-0.94903564,-0.42681885
1602703098505,470,-0.18383789,-0.9470825,-0.42803955
1602703098505,471,-0.18969727,-0.94903564,-0.42681885
1602703098505,472,-0.18383789,-0.9470825,-0.42803955
1602703098506,473,-0.1862793,-0.9487915,-0.42486572
1602703098506,474,-0.1862793,-0.9487915,-0.42486572
1602703098507,475,-0.1875,-0.9470825,-0.42510986
1602703098507,476,-0.1875,-0.9470825,-0.42510986
1602703098509,477,-0.18969727,-0.94903564,-0.42681885
1602703098513,478,-0.1862793,-0.9487915,-0.42486572
1602703098514,479,-0.1875,-0.9470825,-0.42510986
1602703100845,480,-0.18823242,-0.94854736,-0.42437744
1602703100848,481,-0.18823242,-0.94854736,-0.42437744
1602703100849,482,-0.18823242,-0.94854736,-0.42437744
1602703100850,483,-0.18798828,-0.9505005,-0.427063
1602703100908,484,-0.18798828,-0.9505005,-0.427063
1602703100909,485,-0.18798828,-0.9505005,-0.427063
1602703100909,486,-0.18798828,-0.9507446,-0.42315674
1602703100909,487,-0.18798828,-0.9507446,-0.42315674
1602703100910,488,-0.18554688,-0.9483032,-0.42218018
1602703100910,489,-0.18554688,-0.9483032,-0.42218018
1602703100910,490,-0.18798828,-0.9507446,-0.42315674
1602703100911,491,-0.1899414,-0.9483032,-0.42242432
1602703100911,492,-0.1899414,-0.9483032,-0.42242432
1602703100913,493,-0.1862793,-0.94976807,-0.4241333
1602703100913,494,-0.1862793,-0.94976807,-0.4241333
1602703100914,495,-0.18823242,-0.95196533,-0.41851807
1602703100914,496,-0.18823242,-0.95196533,-0.41851807
1602703100915,497,-0.18725586,-0.95098877,-0.42144775
1602703100915,498,-0.18554688,-0.9483032,-0.42218018
1602703100916,499,-0.19091797,-0.9522095,-0.42437744
1602703100916,500,-0.1899414,-0.9483032,-0.42242432
1602703100916,501,-0.1887207,-0.9534302,-0.42193604
1602703100917,502,-0.1862793,-0.94976807,-0.4241333
1602703100917,503,-0.18725586,-0.95098877,-0.42144775
1602703100918,504,-0.19213867,-0.942688,-0.42852783
1602703100920,505,-0.18823242,-0.95196533,-0.41851807
1602703100922,506,-0.18725586,-0.95098877,-0.42144775
1602703100924,507,-0.19091797,-0.9522095,-0.42437744
1602703100929,508,-0.19091797,-0.9522095,-0.42437744
1602703100930,509,-0.1940918,-0.94122314,-0.42852783
1602703100930,510,-0.19042969,-0.9463501,-0.42559814
1602703100933,511,-0.1887207,-0.9534302,-0.42193604
1602703100947,512,-0.18969727,-0.9451294,-0.42803955
1602703100949,513,-0.1887207,-0.9534302,-0.42193604
1602703100983,514,-0.19213867,-0.942688,-0.42852783
1602703100983,515,-0.18896484,-0.94659424,-0.42608643
1602703100984,516,-0.19213867,-0.942688,-0.42852783
1602703100984,517,-0.1940918,-0.94122314,-0.42852783
1602703100985,518,-0.1899414,-0.9507446,-0.42388916
1602703100985,519,-0.19042969,-0.9463501,-0.42559814
1602703100985,520,-0.1940918,-0.94122314,-0.42852783
1602703100986,521,-0.18798828,-0.9480591,-0.42633057
1602703100987,522,-0.19042969,-0.9463501,-0.42559814
1602703100987,523,-0.18969727,-0.9451294,-0.42803955
1602703100988,524,-0.18896484,-0.94659424,-0.42608643
1602703100988,525,-0.18969727,-0.9451294,-0.42803955
1602703100988,526,-0.19506836,-0.9468384,-0.4307251
1602703100988,527,-0.1899414,-0.94537354,-0.42608643
1602703100988,528,-0.18896484,-0.94659424,-0.42608643
1602703100988,529,-0.18798828,-0.9505005,-0.42437744
1602703100988,530,-0.1899414,-0.9507446,-0.42388916
1602703100988,531,-0.18920898,-0.95025635,-0.4258423
1602703100988,532,-0.1899414,-0.9507446,-0.42388916
1602703100988,533,-0.18823242,-0.9483032,-0.4277954
1602703100988,534,-0.18798828,-0.9480591,-0.42633057
1602703100988,535,-0.19506836,-0.9468384,-0.4307251
1602703100989,536,-0.18798828,-0.9480591,-0.42633057
1602703100989,537,-0.1899414,-0.9456177,-0.43023682
1602703100990,538,-0.19506836,-0.9468384,-0.4307251
1602703100990,539,-0.1899414,-0.94537354,-0.42608643
1602703100996,540,-0.1899414,-0.94537354,-0.42608643
1602703100997,541,-0.1850586,-0.9480591,-0.43048096
1602703100998,542,-0.18798828,-0.9505005,-0.42437744
1602703100999,543,-0.19433594,-0.95025635,-0.4290161
1602703101005,544,-0.1875,-0.9456177,-0.43267822
1602703101005,545,-0.18798828,-0.9505005,-0.42437744
1602703101005,546,-0.18920898,-0.95025635,-0.4258423
1602703101006,547,-0.18920898,-0.95025635,-0.4258423
1602703101006,548,-0.18579102,-0.9475708,-0.4295044
1602703101006,549,-0.18823242,-0.9483032,-0.4277954
1602703101008,550,-0.18823242,-0.9483032,-0.4277954
1602703101012,551,-0.19018555,-0.94976807,-0.4277954
1602703101013,552,-0.1899414,-0.9456177,-0.43023682
1602703101013,553,-0.1899414,-0.9456177,-0.43023682
1602703101014,554,-0.1850586,-0.9480591,-0.43048096
1602703101014,555,-0.18554688,-0.9492798,-0.42242432
1602703101016,556,-0.1850586,-0.9480591,-0.43048096
1602703101018,557,-0.18701172,-0.9475708,-0.42340088
1602703101020,558,-0.19433594,-0.95025635,-0.4290161
1602703101020,559,-0.19433594,-0.95025635,-0.4290161
1602703101022,560,-0.18310547,-0.95025635,-0.4282837
1602703101023,561,-0.1875,-0.9456177,-0.43267822
1602703101024,562,-0.1875,-0.9456177,-0.43267822
1602703101026,563,-0.18579102,-0.9475708,-0.4295044
1602703101028,564,-0.18579102,-0.9475708,-0.4295044
1602703101031,565,-0.19018555,-0.94976807,-0.4277954
1602703101031,566,-0.18579102,-0.9495239,-0.427063
1602703101032,567,-0.19018555,-0.94976807,-0.4277954
1602703101033,568,-0.18554688,-0.9492798,-0.42242432
1602703101037,569,-0.18701172,-0.9475708,-0.42340088
1602703101038,570,-0.18554688,-0.9492798,-0.42242432
1602703101040,571,-0.18310547,-0.95025635,-0.4282837
1602703101041,572,-0.18701172,-0.9475708,-0.42340088
1602703101043,573,-0.18310547,-0.95025635,-0.4282837
1602703101046,574,-0.18579102,-0.9495239,-0.427063
1602703101046,575,-0.18579102,-0.9495239,-0.427063
1602703103450,576,-0.18286133,-0.9483032,-0.42633057
1602703103462,577,-0.18286133,-0.9483032,-0.42633057
1602703103462,578,-0.18286133,-0.9483032,-0.42633057
1602703103462,579,-0.18579102,-0.94976807,-0.42877197
1602703103463,580,-0.18579102,-0.94976807,-0.42877197
1602703103464,581,-0.18579102,-0.94976807,-0.42877197
1602703103465,582,-0.18164062,-0.9475708,-0.4258423
1602703103466,583,-0.18164062,-0.9475708,-0.4258423
1602703103473,584,-0.18164062,-0.9475708,-0.4258423
1602703103474,585,-0.18457031,-0.9500122,-0.42437744
1602703103475,586,-0.18457031,-0.9500122,-0.42437744
1602703103476,587,-0.18701172,-0.9468384,-0.4277954
1602703103477,588,-0.18457031,-0.9500122,-0.42437744
1602703103482,589,-0.18701172,-0.9468384,-0.4277954
1602703103483,590,-0.18286133,-0.95025635,-0.42510986
1602703103483,591,-0.18701172,-0.9468384,-0.4277954
1602703103484,592,-0.18286133,-0.95025635,-0.42510986
1602703103497,593,-0.18383789,-0.94732666,-0.42340088
1602703103498,594,-0.18383789,-0.94732666,-0.42340088
1602703103498,595,-0.18286133,-0.95025635,-0.42510986
1602703103498,596,-0.18383789,-0.94781494,-0.42559814
1602703103499,597,-0.18383789,-0.94732666,-0.42340088
1602703103500,598,-0.18188477,-0.9507446,-0.42266846
1602703103500,599,-0.18383789,-0.94781494,-0.42559814
1602703103501,600,-0.18725586,-0.94854736,-0.427063
1602703103501,601,-0.18188477,-0.9507446,-0.42266846
1602703103510,602,-0.18383789,-0.94781494,-0.42559814
1602703103511,603,-0.18774414,-0.95098877,-0.425354
1602703103511,604,-0.18725586,-0.94854736,-0.427063
1602703103512,605,-0.18188477,-0.9507446,-0.42266846
1602703103513,606,-0.18774414,-0.95098877,-0.425354
1602703103515,607,-0.18725586,-0.94854736,-0.427063
1602703103525,608,-0.18481445,-0.9470825,-0.42730713
1602703103526,609,-0.18481445,-0.9470825,-0.42730713
1602703103530,610,-0.18774414,-0.95098877,-0.425354
1602703103531,611,-0.18286133,-0.9541626,-0.427063
1602703103531,612,-0.18481445,-0.9470825,-0.42730713
1602703103531,613,-0.18286133,-0.9541626,-0.427063
1602703103532,614,-0.18286133,-0.9541626,-0.427063
1602703103532,615,-0.17895508,-0.94610596,-0.42462158
1602703103541,616,-0.17895508,-0.94610596,-0.42462158
1602703103541,617,-0.17895508,-0.94610596,-0.42462158
1602703103542,618,-0.17993164,-0.94976807,-0.4295044
1602703103542,619,-0.17993164,-0.94976807,-0.4295044
1602703103543,620,-0.17822266,-0.9512329,-0.42462158
1602703103543,621,-0.17993164,-0.94976807,-0.4295044
1602703103543,622,-0.1821289,-0.9492798,-0.4241333
1602703103548,623,-0.17822266,-0.9512329,-0.42462158
1602703103548,624,-0.17822266,-0.9512329,-0.42462158
1602703103549,625,-0.1821289,-0.9492798,-0.4241333
1602703103549,626,-0.1821289,-0.9492798,-0.4241333
1602703103558,627,-0.17895508,-0.9492798,-0.42681885
1602703103558,628,-0.17895508,-0.9492798,-0.42681885
1602703103559,629,-0.17895508,-0.9492798,-0.42681885
1602703103561,630,-0.18041992,-0.9505005,-0.42144775
1602703103561,631,-0.18041992,-0.9505005,-0.42144775
1602703103561,632,-0.18041992,-0.9505005,-0.42144775
1602703103561,633,-0.17382812,-0.9492798,-0.42022705
1602703103565,634,-0.17382812,-0.9492798,-0.42022705
1602703103566,635,-0.17382812,-0.9492798,-0.42022705
1602703103566,636,-0.1796875,-0.94781494,-0.427063
1602703103568,637,-0.1796875,-0.94781494,-0.427063
1602703103570,638,-0.17944336,-0.9500122,-0.4241333
1602703103577,639,-0.17944336,-0.9500122,-0.4241333
1602703103577,640,-0.1796875,-0.94781494,-0.427063
1602703103577,641,-0.18115234,-0.94854736,-0.42462158
1602703103578,642,-0.18115234,-0.94854736,-0.42462158
1602703103578,643,-0.17944336,-0.9500122,-0.4241333
1602703103585,644,-0.1809082,-0.9487915,-0.42730713
1602703103585,645,-0.18115234,-0.94854736,-0.42462158
1602703103585,646,-0.1809082,-0.9487915,-0.42730713
1602703103585,647,-0.1809082,-0.9487915,-0.42730713
1602703103586,648,-0.1875,-0.94976807,-0.43243408
1602703103586,649,-0.17553711,-0.9470825,-0.42559814
1602703103587,650,-0.1875,-0.94976807,-0.43243408
1602703103587,651,-0.1875,-0.94976807,-0.43243408
1602703103591,652,-0.17749023,-0.9505005,-0.42315674
1602703103591,653,-0.17553711,-0.9470825,-0.42559814
1602703103591,654,-0.17553711,-0.9470825,-0.42559814
1602703103592,655,-0.1796875,-0.9500122,-0.43536377
1602703103592,656,-0.17749023,-0.9505005,-0.42315674
1602703103593,657,-0.17749023,-0.9505005,-0.42315674
1602703103593,658,-0.18408203,-0.9470825,-0.4336548
1602703103595,659,-0.18383789,-0.94732666,-0.43218994
1602703103595,660,-0.1796875,-0.9500122,-0.43536377
1602703103595,661,-0.18432617,-0.9463501,-0.43096924
1602703103596,662,-0.1796875,-0.9500122,-0.43536377
1602703103598,663,-0.18457031,-0.9483032,-0.4307251
1602703103600,664,-0.18408203,-0.9470825,-0.4336548
1602703103600,665,-0.18408203,-0.9470825,-0.4336548
1602703103602,666,-0.18383789,-0.94732666,-0.43218994
1602703103603,667,-0.18383789,-0.94732666,-0.43218994
1602703103604,668,-0.18432617,-0.9463501,-0.43096924
1602703103606,669,-0.18432617,-0.9463501,-0.43096924
1602703103607,670,-0.18457031,-0.9483032,-0.4307251
1602703103607,671,-0.18457031,-0.9483032,-0.4307251
1602703105950,672,-0.18017578,-0.94976807,-0.42852783
1602703105963,673,-0.18017578,-0.94976807,-0.42852783
1602703105964,674,-0.18017578,-0.94976807,-0.42852783
1602703105964,675,-0.18359375,-0.942688,-0.4348755
1602703105965,676,-0.18359375,-0.942688,-0.4348755
1602703105967,677,-0.18359375,-0.942688,-0.4348755
1602703105968,678,-0.1772461,-0.94244385,-0.43341064
1602703105976,679,-0.1772461,-0.94244385,-0.43341064
1602703105978,680,-0.18603516,-0.9500122,-0.42974854
1602703105978,681,-0.1772461,-0.94244385,-0.43341064
1602703105981,682,-0.18603516,-0.9500122,-0.42974854
1602703105982,683,-0.18603516,-0.9500122,-0.42974854
1602703105982,684,-0.18066406,-0.9463501,-0.43048096
1602703105982,685,-0.18066406,-0.9463501,-0.43048096
1602703105983,686,-0.18066406,-0.9463501,-0.43048096
1602703105985,687,-0.18554688,-0.9487915,-0.42633057
1602703105986,688,-0.18554688,-0.9487915,-0.42633057
1602703105989,689,-0.1821289,-0.94659424,-0.4336548
1602703105989,690,-0.18554688,-0.9487915,-0.42633057
1602703105990,691,-0.1821289,-0.94659424,-0.4336548
1602703105991,692,-0.1796875,-0.94903564,-0.4295044
1602703105992,693,-0.1821289,-0.94659424,-0.4336548
1602703105997,694,-0.1821289,-0.9500122,-0.42974854
1602703105997,695,-0.1796875,-0.94903564,-0.4295044
1602703105998,696,-0.18261719,-0.94415283,-0.42877197
1602703105998,697,-0.1821289,-0.9500122,-0.42974854
1602703105998,698,-0.1796875,-0.94903564,-0.4295044
1602703106000,699,-0.17700195,-0.94903564,-0.43585205
1602703106001,700,-0.18261719,-0.94415283,-0.42877197
1602703106004,701,-0.18774414,-0.9517212,-0.4277954
1602703106004,702,-0.1821289,-0.9500122,-0.42974854
1602703106004,703,-0.17700195,-0.94903564,-0.43585205
1602703106005,704,-0.18261719,-0.94415283,-0.42877197
1602703106005,705,-0.18774414,-0.9517212,-0.4277954
1602703106008,706,-0.17700195,-0.94537354,-0.4307251
1602703106008,707,-0.17700195,-0.94903564,-0.43585205
1602703106009,708,-0.17700195,-0.94537354,-0.4307251
1602703106009,709,-0.18774414,-0.9517212,-0.4277954
1602703106011,710,-0.1809082,-0.9492798,-0.43121338
1602703106011,711,-0.1809082,-0.9492798,-0.43121338
1602703106012,712,-0.17700195,-0.94537354,-0.4307251
1602703106016,713,-0.17895508,-0.94537354,-0.42974854
1602703106016,714,-0.17895508,-0.94537354,-0.42974854
1602703106016,715,-0.1809082,-0.9492798,-0.43121338
1602703106016,716,-0.1796875,-0.9492798,-0.42877197
1602703106017,717,-0.17895508,-0.94537354,-0.42974854
1602703106017,718,-0.17700195,-0.94854736,-0.4307251
1602703106019,719,-0.1796875,-0.9492798,-0.42877197
1602703106020,720,-0.1796875,-0.9492798,-0.42877197
1602703106020,721,-0.18261719,-0.9500122,-0.4229126
1602703106022,722,-0.17700195,-0.94854736,-0.4307251
1602703106022,723,-0.17700195,-0.94854736,-0.4307251
1602703106022,724,-0.17626953,-0.9512329,-0.42755127
1602703106025,725,-0.18261719,-0.9500122,-0.4229126
1602703106025,726,-0.18261719,-0.9500122,-0.4229126
1602703106026,727,-0.17871094,-0.9492798,-0.4258423
1602703106026,728,-0.17626953,-0.9512329,-0.42755127
1602703106027,729,-0.17626953,-0.9512329,-0.42755127
1602703106028,730,-0.17871094,-0.9492798,-0.4258423
1602703106030,731,-0.17871094,-0.9492798,-0.4258423
1602703106031,732,-0.17993164,-0.9505005,-0.4290161
1602703106031,733,-0.17993164,-0.9505005,-0.4290161
1602703106032,734,-0.17993164,-0.9505005,-0.4290161
1602703106035,735,-0.17797852,-0.95196533,-0.4163208
1602703106035,736,-0.17797852,-0.95196533,-0.4163208
1602703106035,737,-0.17797852,-0.95196533,-0.4163208
1602703106036,738,-0.17358398,-0.9529419,-0.42510986
1602703106038,739,-0.17358398,-0.9529419,-0.42510986
1602703106039,740,-0.17749023,-0.9492798,-0.42218018
1602703106040,741,-0.17749023,-0.9492798,-0.42218018
1602703106042,742,-0.17700195,-0.9524536,-0.41729736
1602703106043,743,-0.17358398,-0.9529419,-0.42510986
1602703106043,744,-0.17700195,-0.9524536,-0.41729736
1602703106044,745,-0.17749023,-0.9505005,-0.41949463
1602703106045,746,-0.17749023,-0.9505005,-0.41949463
1602703106048,747,-0.18115234,-0.9500122,-0.4187622
1602703106048,748,-0.17749023,-0.9492798,-0.42218018
1602703106048,749,-0.18115234,-0.9500122,-0.4187622
1602703106048,750,-0.17895508,-0.9463501,-0.4282837
1602703106050,751,-0.17700195,-0.9524536,-0.41729736
1602703106051,752,-0.18554688,-0.9534302,-0.42266846
1602703106052,753,-0.17749023,-0.9505005,-0.41949463
1602703106053,754,-0.17626953,-0.9529419,-0.42437744
1602703106054,755,-0.18115234,-0.9500122,-0.4187622
1602703106055,756,-0.18115234,-0.94976807,-0.42315674
1602703106056,757,-0.17895508,-0.9463501,-0.4282837
1602703106057,758,-0.18066406,-0.95098877,-0.425354
1602703106058,759,-0.18554688,-0.9534302,-0.42266846
1602703106060,760,-0.17626953,-0.9529419,-0.42437744
1602703106062,761,-0.17895508,-0.9463501,-0.4282837
1602703106064,762,-0.18115234,-0.94976807,-0.42315674
1602703106065,763,-0.18066406,-0.95098877,-0.425354
1602703106065,764,-0.18554688,-0.9534302,-0.42266846
1602703106068,765,-0.17626953,-0.9529419,-0.42437744
1602703106069,766,-0.18115234,-0.94976807,-0.42315674
1602703106070,767,-0.18066406,-0.95098877,-0.425354
1602703108549,768,-0.18188477,-0.9500122,-0.4216919
1602703108559,769,-0.18188477,-0.95196533,-0.4212036
1602703108560,770,-0.18188477,-0.9500122,-0.4216919
1602703108560,771,-0.18188477,-0.9500122,-0.4216919
1602703108561,772,-0.18286133,-0.9470825,-0.4295044
1602703108568,773,-0.18188477,-0.95196533,-0.4212036
1602703108569,774,-0.17602539,-0.9507446,-0.427063
1602703108570,775,-0.18188477,-0.95196533,-0.4212036
1602703108570,776,-0.18286133,-0.9470825,-0.4295044
1602703108576,777,-0.18310547,-0.95269775,-0.425354
1602703108582,778,-0.17602539,-0.9507446,-0.427063
1602703108583,779,-0.18286133,-0.9470825,-0.4295044
1602703108584,780,-0.17895508,-0.9480591,-0.4290161
1602703108586,781,-0.18310547,-0.95269775,-0.425354
1602703108592,782,-0.18115234,-0.95025635,-0.42852783
1602703108601,783,-0.17895508,-0.9480591,-0.4290161
1602703108601,784,-0.17602539,-0.9507446,-0.427063
1602703108601,785,-0.18139648,-0.9451294,-0.4277954
1602703108601,786,-0.18115234,-0.95025635,-0.42852783
1602703108602,787,-0.18164062,-0.9480591,-0.42608643
1602703108619,788,-0.18139648,-0.9451294,-0.4277954
1602703108621,789,-0.18310547,-0.95269775,-0.425354
1602703108621,790,-0.18164062,-0.9480591,-0.42608643
1602703108622,791,-0.1821289,-0.95025635,-0.42437744
1602703108629,792,-0.17895508,-0.9480591,-0.4290161
1602703108629,793,-0.1821289,-0.95025635,-0.42437744
1602703108629,794,-0.18115234,-0.94781494,-0.4282837
1602703108631,795,-0.18115234,-0.94976807,-0.42437744
1602703108634,796,-0.18115234,-0.94781494,-0.4282837
1602703108635,797,-0.18115234,-0.95025635,-0.42852783
1602703108636,798,-0.18115234,-0.94976807,-0.42437744
1602703108638,799,-0.18139648,-0.9451294,-0.4277954
1602703108640,800,-0.18286133,-0.9480591,-0.4265747
1602703108641,801,-0.18164062,-0.9480591,-0.42608643
1602703108642,802,-0.18286133,-0.9480591,-0.4265747
1602703108643,803,-0.18066406,-0.9512329,-0.42510986
1602703108650,804,-0.18066406,-0.9512329,-0.42510986
1602703108651,805,-0.18164062,-0.94903564,-0.42242432
1602703108651,806,-0.1821289,-0.95025635,-0.42437744
1602703108651,807,-0.18115234,-0.94781494,-0.4282837
1602703108656,808,-0.18017578,-0.9480591,-0.43145752
1602703108656,809,-0.18164062,-0.94903564,-0.42242432
1602703108659,810,-0.18017578,-0.9480591,-0.43145752
1602703108659,811,-0.17919922,-0.9517212,-0.4265747
1602703108660,812,-0.18115234,-0.94976807,-0.42437744
1602703108662,813,-0.17919922,-0.9517212,-0.4265747
1602703108663,814,-0.18286133,-0.9480591,-0.4265747
1602703108664,815,-0.1821289,-0.9495239,-0.425354
1602703108666,816,-0.1821289,-0.9495239,-0.425354
1602703108667,817,-0.18066406,-0.9512329,-0.42510986
1602703108668,818,-0.17797852,-0.95025635,-0.42388916
1602703108669,819,-0.17797852,-0.95025635,-0.42388916
1602703108670,820,-0.18115234,-0.9480591,-0.425354
1602703108671,821,-0.18115234,-0.9480591,-0.425354
1602703108672,822,-0.18017578,-0.94610596,-0.42510986
1602703108674,823,-0.18017578,-0.94610596,-0.42510986
1602703108678,824,-0.1821289,-0.9546509,-0.42437744
1602703108678,825,-0.1821289,-0.9546509,-0.42437744
1602703108679,826,-0.17895508,-0.9475708,-0.42510986
1602703108679,827,-0.17895508,-0.9475708,-0.42510986
1602703108679,828,-0.18164062,-0.94903564,-0.42242432
1602703108680,829,-0.1887207,-0.94903564,-0.42510986
1602703108682,830,-0.18017578,-0.9480591,-0.43145752
1602703108683,831,-0.1821289,-0.95147705,-0.42388916
1602703108685,832,-0.17919922,-0.9517212,-0.4265747
1602703108687,833,-0.18334961,-0.9534302,-0.4187622
1602703108688,834,-0.1887207,-0.94903564,-0.42510986
1602703108688,835,-0.1821289,-0.9495239,-0.425354
1602703108689,836,-0.17993164,-0.9522095,-0.41973877
1602703108690,837,-0.17797852,-0.95025635,-0.42388916
1602703108692,838,-0.18310547,-0.95196533,-0.4192505
1602703108694,839,-0.18115234,-0.9480591,-0.425354
1602703108695,840,-0.1821289,-0.94903564,-0.42340088
1602703108696,841,-0.18017578,-0.94610596,-0.42510986
1602703108699,842,-0.18139648,-0.9541626,-0.41851807
1602703108700,843,-0.1821289,-0.95147705,-0.42388916
1602703108700,844,-0.1821289,-0.9546509,-0.42437744
1602703108701,845,-0.18334961,-0.9534302,-0.4187622
1602703108703,846,-0.17895508,-0.9475708,-0.42510986
1602703108703,847,-0.17993164,-0.9522095,-0.41973877
1602703108705,848,-0.1887207,-0.94903564,-0.42510986
1602703108707,849,-0.18310547,-0.95196533,-0.4192505
1602703108709,850,-0.1821289,-0.95147705,-0.42388916
1602703108709,851,-0.1772461,-0.9512329,-0.41705322
1602703108709,852,-0.1821289,-0.94903564,-0.42340088
1602703108711,853,-0.1850586,-0.9487915,-0.42022705
1602703108714,854,-0.18139648,-0.9541626,-0.41851807
1602703108715,855,-0.18334961,-0.9534302,-0.4187622
1602703108715,856,-0.17993164,-0.9522095,-0.41973877
1602703108717,857,-0.18310547,-0.95196533,-0.4192505
1602703108718,858,-0.1772461,-0.9512329,-0.41705322
1602703108719,859,-0.1821289,-0.94903564,-0.42340088
1602703108720,860,-0.1850586,-0.9487915,-0.42022705
1602703108721,861,-0.18139648,-0.9541626,-0.41851807
1602703108723,862,-0.1772461,-0.9512329,-0.41705322
1602703108723,863,-0.1850586,-0.9487915,-0.42022705
1602703111051,864,-0.18286133,-0.94903564,-0.42364502
1602703111055,865,-0.18041992,-0.9500122,-0.4192505
1602703111060,866,-0.18286133,-0.94903564,-0.42364502
1602703111061,867,-0.18286133,-0.94903564,-0.42364502
1602703111062,868,-0.18237305,-0.9536743,-0.4204712
1602703111068,869,-0.18041992,-0.9500122,-0.4192505
1602703111068,870,-0.18041992,-0.9500122,-0.4192505
1602703111069,871,-0.18334961,-0.9505005,-0.42144775
1602703111069,872,-0.18237305,-0.9536743,-0.4204712
1602703111079,873,-0.18237305,-0.9536743,-0.4204712
1602703111080,874,-0.18139648,-0.9512329,-0.4277954
1602703111081,875,-0.18334961,-0.9505005,-0.42144775
1602703111081,876,-0.18408203,-0.95147705,-0.41900635
1602703111081,877,-0.18334961,-0.9505005,-0.42144775
1602703111082,878,-0.18359375,-0.9505005,-0.42633057
1602703111082,879,-0.18139648,-0.9512329,-0.4277954
1602703111087,880,-0.18139648,-0.9512329,-0.4277954
1602703111088,881,-0.18579102,-0.9500122,-0.4216919
1602703111089,882,-0.18408203,-0.95147705,-0.41900635
1602703111095,883,-0.18408203,-0.95147705,-0.41900635
1602703111095,884,-0.18383789,-0.94781494,-0.4277954
1602703111096,885,-0.18359375,-0.9505005,-0.42633057
1602703111097,886,-0.18017578,-0.95098877,-0.4265747
1602703111099,887,-0.18359375,-0.9505005,-0.42633057
1602703111103,888,-0.18432617,-0.9505005,-0.42510986
1602703111104,889,-0.18579102,-0.9500122,-0.4216919
1602703111104,890,-0.18579102,-0.9500122,-0.4216919
1602703111110,891,-0.18237305,-0.9495239,-0.42510986
1602703111111,892,-0.18383789,-0.94781494,-0.4277954
1602703111111,893,-0.18383789,-0.94781494,-0.4277954
1602703111113,894,-0.18359375,-0.9463501,-0.4290161
1602703111121,895,-0.18017578,-0.95098877,-0.4265747
1602703111121,896,-0.1821289,-0.94781494,-0.425354
1602703111121,897,-0.18017578,-0.95098877,-0.4265747
1602703111122,898,-0.18188477,-0.95025635,-0.42388916
1602703111122,899,-0.18432617,-0.9505005,-0.42510986
1602703111126,900,-0.18432617,-0.9505005,-0.42510986
1602703111130,901,-0.18237305,-0.9495239,-0.42510986
1602703111131,902,-0.18359375,-0.9456177,-0.42340088
1602703111132,903,-0.18237305,-0.9495239,-0.42510986
1602703111134,904,-0.18359375,-0.9463501,-0.4290161
1602703111136,905,-0.18359375,-0.9463501,-0.4290161
1602703111139,906,-0.1821289,-0.94781494,-0.425354
1602703111148,907,-0.1821289,-0.94781494,-0.425354
1602703111149,908,-0.1862793,-0.9480591,-0.42852783
1602703111149,909,-0.18188477,-0.95025635,-0.42388916
1602703111149,910,-0.18432617,-0.9475708,-0.42559814
1602703111149,911,-0.18188477,-0.95025635,-0.42388916
1602703111161,912,-0.18359375,-0.9456177,-0.42340088
1602703111161,913,-0.18286133,-0.95025635,-0.42486572
1602703111162,914,-0.18359375,-0.9456177,-0.42340088
1602703111162,915,-0.18432617,-0.9487915,-0.42681885
1602703111163,916,-0.1862793,-0.9480591,-0.42852783
1602703111164,917,-0.1862793,-0.9480591,-0.42852783
1602703111164,918,-0.18432617,-0.9475708,-0.42559814
1602703111165,919,-0.18383789,-0.9468384,-0.4290161
1602703111165,920,-0.18286133,-0.95025635,-0.42486572
1602703111172,921,-0.18432617,-0.9475708,-0.42559814
1602703111182,922,-0.18286133,-0.95025635,-0.42486572
1602703111184,923,-0.18432617,-0.9487915,-0.42681885
1602703111184,924,-0.17993164,-0.9480591,-0.42877197
1602703111184,925,-0.18432617,-0.9487915,-0.42681885
1602703111185,926,-0.1875,-0.9529419,-0.42340088
1602703111185,927,-0.18383789,-0.9468384,-0.4290161
1602703111185,928,-0.18383789,-0.9468384,-0.4290161
1602703111188,929,-0.18066406,-0.9475708,-0.4258423
1602703111191,930,-0.17993164,-0.9480591,-0.42877197
1602703111191,931,-0.17993164,-0.9480591,-0.42877197
1602703111192,932,-0.18261719,-0.9492798,-0.42559814
1602703111195,933,-0.1875,-0.9529419,-0.42340088
1602703111196,934,-0.1875,-0.9529419,-0.42340088
1602703111196,935,-0.18554688,-0.9512329,-0.4241333
1602703111198,936,-0.18066406,-0.9475708,-0.4258423
1602703111199,937,-0.18164062,-0.9492798,-0.41900635
1602703111204,938,-0.18261719,-0.9492798,-0.42559814
1602703111204,939,-0.18066406,-0.9475708,-0.4258423
1602703111204,940,-0.18554688,-0.9512329,-0.4241333
1602703111205,941,-0.18579102,-0.9517212,-0.4241333
1602703111207,942,-0.18164062,-0.9492798,-0.41900635
1602703111211,943,-0.1809082,-0.9517212,-0.42315674
1602703111211,944,-0.18261719,-0.9492798,-0.42559814
1602703111212,945,-0.18579102,-0.9517212,-0.4241333
1602703111215,946,-0.17749023,-0.9492798,-0.42144775
1602703111215,947,-0.18554688,-0.9512329,-0.4241333
1602703111216,948,-0.1809082,-0.9517212,-0.42315674
1602703111221,949,-0.18261719,-0.954895,-0.4151001
1602703111221,950,-0.18164062,-0.9492798,-0.41900635
1602703111221,951,-0.17749023,-0.9492798,-0.42144775
1602703111221,952,-0.18579102,-0.9517212,-0.4241333
1602703111222,953,-0.17944336,-0.9495239,-0.42144775
1602703111224,954,-0.18261719,-0.954895,-0.4151001
1602703111224,955,-0.1809082,-0.9517212,-0.42315674
1602703111226,956,-0.17944336,-0.9495239,-0.42144775
1602703111228,957,-0.17749023,-0.9492798,-0.42144775
1602703111229,958,-0.18261719,-0.954895,-0.4151001
1602703111230,959,-0.17944336,-0.9495239,-0.42144775
1602703113459,960,-0.18115234,-0.95318604,-0.42144775
1602703113460,961,-0.18115234,-0.95318604,-0.42144775
1602703113460,962,-0.18115234,-0.95318604,-0.42144775
1602703113464,963,-0.18041992,-0.94976807,-0.42022705
1602703113470,964,-0.18041992,-0.94976807,-0.42022705
1602703113470,965,-0.18041992,-0.94976807,-0.42022705
1602703113471,966,-0.1796875,-0.9524536,-0.41851807
1602703113477,967,-0.1796875,-0.9524536,-0.41851807
1602703113478,968,-0.1796875,-0.9524536,-0.41851807
1602703113480,969,-0.17822266,-0.9500122,-0.4180298
1602703113485,970,-0.17822266,-0.9500122,-0.4180298
1602703113487,971,-0.18237305,-0.94854736,-0.4229126
1602703113488,972,-0.17822266,-0.9500122,-0.4180298
1602703113501,973,-0.18237305,-0.94854736,-0.4229126
1602703113502,974,-0.18237305,-0.9487915,-0.41827393
1602703113502,975,-0.18237305,-0.9487915,-0.41827393
1602703113502,976,-0.1821289,-0.9534302,-0.42218018
1602703113503,977,-0.18237305,-0.94854736,-0.4229126
1602703113503,978,-0.1821289,-0.9534302,-0.42218018
1602703113504,979,-0.18457031,-0.9492798,-0.42340088
1602703113504,980,-0.18237305,-0.9487915,-0.41827393
1602703113504,981,-0.18457031,-0.9492798,-0.42340088
1602703113505,982,-0.1821289,-0.9534302,-0.42218018
1602703113505,983,-0.18286133,-0.95025635,-0.42681885
1602703113507,984,-0.18457031,-0.9492798,-0.42340088
1602703113511,985,-0.18041992,-0.9529419,-0.42095947
1602703113511,986,-0.18286133,-0.95025635,-0.42681885
1602703113512,987,-0.18286133,-0.95025635,-0.42681885
1602703113512,988,-0.18041992,-0.9529419,-0.42095947
1602703113515,989,-0.18041992,-0.9529419,-0.42095947
1602703113515,990,-0.18261719,-0.9492798,-0.42193604
1602703113516,991,-0.18261719,-0.9492798,-0.42193604
1602703113519,992,-0.18334961,-0.95269775,-0.4199829
1602703113520,993,-0.18261719,-0.9492798,-0.42193604
1602703113520,994,-0.18261719,-0.9463501,-0.4241333
1602703113523,995,-0.18334961,-0.95269775,-0.4199829
1602703113523,996,-0.18334961,-0.95269775,-0.4199829
1602703113523,997,-0.17993164,-0.94854736,-0.42242432
1602703113525,998,-0.18261719,-0.9463501,-0.4241333
1602703113533,999,-0.18261719,-0.9463501,-0.4241333
1602703113533,1000,-0.18188477,-0.95977783,-0.4163208
1602703113534,1001,-0.17993164,-0.94854736,-0.42242432
1602703113534,1002,-0.17919922,-0.94976807,-0.41900635
1602703113535,1003,-0.17993164,-0.94854736,-0.42242432
1602703113535,1004,-0.18188477,-0.95977783,-0.4163208
1602703113535,1005,-0.18188477,-0.95977783,-0.4163208
1602703113536,1006,-0.1809082,-0.9558716,-0.4175415
1602703113540,1007,-0.17919922,-0.94976807,-0.41900635
1602703113541,1008,-0.17919922,-0.94976807,-0.41900635
1602703113541,1009,-0.1809082,-0.9558716,-0.4175415
1602703113541,1010,-0.1809082,-0.9558716,-0.4175415
1602703113542,1011,-0.17993164,-0.95758057,-0.4126587
1602703113543,1012,-0.17993164,-0.95758057,-0.4126587
1602703113545,1013,-0.17504883,-0.9534302,-0.41461182
1602703113549,1014,-0.17504883,-0.9534302,-0.41461182
1602703113549,1015,-0.17993164,-0.95758057,-0.4126587
1602703113550,1016,-0.18115234,-0.95269775,-0.41534424
1602703113550,1017,-0.17504883,-0.9534302,-0.41461182
1602703113556,1018,-0.18115234,-0.95269775,-0.41534424
1602703113556,1019,-0.17553711,-0.95147705,-0.41778564
1602703113557,1020,-0.18115234,-0.95269775,-0.41534424
1602703113557,1021,-0.18334961,-0.9541626,-0.41534424
1602703113558,1022,-0.17553711,-0.95147705,-0.41778564
1602703113558,1023,-0.17553711,-0.95147705,-0.41778564
1602703113566,1024,-0.18261719,-0.95269775,-0.41851807
1602703113566,1025,-0.18334961,-0.9541626,-0.41534424
1602703113568,1026,-0.18334961,-0.9541626,-0.41534424
1602703113568,1027,-0.18359375,-0.95147705,-0.41534424
1602703113568,1028,-0.18261719,-0.95269775,-0.41851807
1602703113568,1029,-0.18261719,-0.95269775,-0.41851807
1602703113568,1030,-0.18359375,-0.95147705,-0.41534424
1602703113568,1031,-0.1784668,-0.95318604,-0.41729736
1602703113569,1032,-0.1784668,-0.95318604,-0.41729736
1602703113569,1033,-0.18359375,-0.95147705,-0.41534424
1602703113573,1034,-0.17602539,-0.9512329,-0.41485596
1602703113575,1035,-0.17602539,-0.9512329,-0.41485596
1602703113576,1036,-0.1784668,-0.95318604,-0.41729736
1602703113576,1037,-0.1796875,-0.95098877,-0.4151001
1602703113583,1038,-0.1796875,-0.95098877,-0.4151001
1602703113584,1039,-0.17602539,-0.9512329,-0.41485596
1602703113584,1040,-0.17797852,-0.95269775,-0.41900635
1602703113584,1041,-0.17797852,-0.95269775,-0.41900635
1602703113584,1042,-0.17993164,-0.94903564,-0.42315674
1602703113584,1043,-0.1796875,-0.95098877,-0.4151001
1602703113585,1044,-0.17993164,-0.94903564,-0.42315674
1602703113591,1045,-0.18383789,-0.95318604,-0.41705322
1602703113591,1046,-0.17797852,-0.95269775,-0.41900635
1602703113591,1047,-0.18383789,-0.95318604,-0.41705322
1602703113592,1048,-0.17993164,-0.94903564,-0.42315674
1602703113592,1049,-0.17993164,-0.95196533,-0.4187622
1602703113595,1050,-0.17993164,-0.95196533,-0.4187622
1602703113596,1051,-0.18383789,-0.95318604,-0.41705322
1602703113596,1052,-0.17919922,-0.9541626,-0.425354
1602703113600,1053,-0.17993164,-0.95196533,-0.4187622
1602703113601,1054,-0.17919922,-0.9541626,-0.425354
1602703113603,1055,-0.17919922,-0.9541626,-0.425354
1602703115752,1056,-0.18359375,-0.95196533,-0.4258423
1602703115757,1057,-0.18359375,-0.95196533,-0.4258423
1602703115757,1058,-0.18359375,-0.95196533,-0.4258423
1602703115758,1059,-0.18188477,-0.9492798,-0.42364502
1602703115760,1060,-0.18188477,-0.9492798,-0.42364502
1602703115762,1061,-0.18139648,-0.95098877,-0.42437744
1602703115764,1062,-0.18188477,-0.9492798,-0.42364502
1602703115766,1063,-0.18481445,-0.9492798,-0.4258423
1602703115777,1064,-0.18139648,-0.95098877,-0.42437744
1602703115778,1065,-0.18139648,-0.95098877,-0.42437744
1602703115778,1066,-0.1772461,-0.9517212,-0.42462158
1602703115779,1067,-0.18481445,-0.9492798,-0.4258423
1602703115779,1068,-0.18334961,-0.95269775,-0.4199829
1602703115779,1069,-0.18481445,-0.9492798,-0.4258423
1602703115780,1070,-0.18017578,-0.9468384,-0.42486572
1602703115780,1071,-0.1772461,-0.9517212,-0.42462158
1602703115781,1072,-0.18286133,-0.9507446,-0.42681885
1602703115781,1073,-0.1772461,-0.9517212,-0.42462158
1602703115783,1074,-0.18334961,-0.95269775,-0.4199829
1602703115790,1075,-0.18334961,-0.95269775,-0.4199829
1602703115790,1076,-0.18579102,-0.9475708,-0.4265747
1602703115791,1077,-0.18017578,-0.9468384,-0.42486572
1602703115792,1078,-0.18017578,-0.9468384,-0.42486572
1602703115793,1079,-0.18286133,-0.9507446,-0.42681885
1602703115793,1080,-0.18286133,-0.9507446,-0.42681885
1602703115798,1081,-0.17700195,-0.9487915,-0.42437744
1602703115798,1082,-0.18579102,-0.9475708,-0.4265747
1602703115798,1083,-0.18579102,-0.9475708,-0.4265747
1602703115802,1084,-0.1821289,-0.95147705,-0.42364502
1602703115802,1085,-0.17700195,-0.9487915,-0.42437744
1602703115803,1086,-0.17700195,-0.9487915,-0.42437744
1602703115806,1087,-0.1821289,-0.95147705,-0.42364502
1602703115807,1088,-0.18164062,-0.9487915,-0.42462158
1602703115808,1089,-0.1821289,-0.95147705,-0.42364502
1602703115813,1090,-0.18164062,-0.9487915,-0.42462158
1602703115816,1091,-0.18164062,-0.9487915,-0.42462158
1602703115817,1092,-0.18139648,-0.9500122,-0.42974854
1602703115817,1093,-0.18139648,-0.9500122,-0.42974854
1602703115818,1094,-0.18334961,-0.9517212,-0.4229126
1602703115819,1095,-0.18334961,-0.9517212,-0.4229126
1602703115821,1096,-0.18115234,-0.94781494,-0.425354
1602703115824,1097,-0.18725586,-0.9517212,-0.42803955
1602703115824,1098,-0.18139648,-0.9500122,-0.42974854
1602703115824,1099,-0.18115234,-0.94781494,-0.425354
1602703115828,1100,-0.18310547,-0.9468384,-0.427063
1602703115829,1101,-0.18334961,-0.9517212,-0.4229126
1602703115829,1102,-0.18725586,-0.9517212,-0.42803955
1602703115831,1103,-0.1821289,-0.95147705,-0.4277954
1602703115832,1104,-0.18115234,-0.94781494,-0.425354
1602703115832,1105,-0.18310547,-0.9468384,-0.427063
1602703115839,1106,-0.17773438,-0.9507446,-0.42242432
1602703115839,1107,-0.18725586,-0.9517212,-0.42803955
1602703115840,1108,-0.1821289,-0.95147705,-0.4277954
1602703115840,1109,-0.18261719,-0.95098877,-0.42437744
1602703115840,1110,-0.17773438,-0.9507446,-0.42242432
1602703115840,1111,-0.18310547,-0.9468384,-0.427063
1602703115841,1112,-0.18432617,-0.9507446,-0.42437744
1602703115843,1113,-0.18261719,-0.95098877,-0.42437744
1602703115844,1114,-0.1821289,-0.95147705,-0.4277954
1602703115844,1115,-0.18164062,-0.9495239,-0.42633057
1602703115845,1116,-0.18432617,-0.9507446,-0.42437744
1602703115846,1117,-0.17773438,-0.9507446,-0.42242432
1602703115851,1118,-0.18164062,-0.9495239,-0.42633057
1602703115851,1119,-0.18554688,-0.95269775,-0.42218018
1602703115852,1120,-0.18261719,-0.95098877,-0.42437744
1602703115852,1121,-0.17919922,-0.95025635,-0.41949463
1602703115852,1122,-0.18432617,-0.9507446,-0.42437744
1602703115853,1123,-0.18554688,-0.95269775,-0.42218018
1602703115853,1124,-0.18164062,-0.9495239,-0.42633057
1602703115857,1125,-0.18334961,-0.9468384,-0.42633057
1602703115858,1126,-0.17919922,-0.95025635,-0.41949463
1602703115858,1127,-0.18554688,-0.95269775,-0.42218018
1602703115858,1128,-0.18139648,-0.9507446,-0.42218018
1602703115859,1129,-0.18334961,-0.9468384,-0.42633057
1602703115863,1130,-0.17993164,-0.9492798,-0.41973877
1602703115863,1131,-0.17919922,-0.95025635,-0.41949463
1602703115863,1132,-0.18286133,-0.95098877,-0.42510986
1602703115863,1133,-0.18139648,-0.9507446,-0.42218018
1602703115865,1134,-0.18334961,-0.9468384,-0.42633057
1602703115866,1135,-0.18164062,-0.9517212,-0.42144775
1602703115869,1136,-0.18139648,-0.9507446,-0.42218018
1602703115869,1137,-0.17993164,-0.9492798,-0.41973877
1602703115869,1138,-0.17993164,-0.9492798,-0.41973877
1602703115871,1139,-0.18286133,-0.95098877,-0.42510986
1602703115875,1140,-0.18286133,-0.95098877,-0.42510986
1602703115875,1141,-0.1821289,-0.95025635,-0.42803955
1602703115875,1142,-0.18164062,-0.9517212,-0.42144775
1602703115876,1143,-0.18164062,-0.9517212,-0.42144775
1602703115876,1144,-0.18286133,-0.9517212,-0.4187622
1602703115877,1145,-0.1821289,-0.95025635,-0.42803955
1602703115879,1146,-0.1821289,-0.954895,-0.42218018
1602703115880,1147,-0.1821289,-0.95025635,-0.42803955
1602703115880,1148,-0.18286133,-0.9517212,-0.4187622
1602703115883,1149,-0.18286133,-0.9517212,-0.4187622
1602703115884,1150,-0.1821289,-0.954895,-0.42218018
1602703115884,1151,-0.1821289,-0.954895,-0.42218018
