# Sensor position: Front pocket (trouser)
# Sensor side: Right
# Activity type: Sitting
# Activity code: 0
# Subject id: s1758499
timestamp,seq,accel_x,accel_y,accel_z
1602697223445,0,-0.2578125,-0.15802002,0.91864014
1602697223449,1,-0.2578125,-0.15802002,0.91864014
1602697223450,2,-0.2578125,-0.15802002,0.91864014
1602697223450,3,-0.2619629,-0.15435791,0.9176636
1602697223451,4,-0.2619629,-0.15435791,0.9176636
1602697223455,5,-0.2614746,-0.15509033,0.91815186
1602697223456,6,-0.2619629,-0.15435791,0.9176636
1602697223457,7,-0.2614746,-0.15509033,0.91815186
1602697223457,8,-0.26171875,-0.15631104,0.91986084
1602697223461,9,-0.2614746,-0.15509033,0.91815186
1602697223462,10,-0.26171875,-0.15631104,0.91986084
1602697223462,11,-0.25878906,-0.15362549,0.91986084
1602697223470,12,-0.26171875,-0.15631104,0.91986084
1602697223470,13,-0.25878906,-0.15362549,0.91986084
1602697223471,14,-0.25952148,-0.15411377,0.9188843
1602697223471,15,-0.25952148,-0.15411377,0.9188843
1602697223472,16,-0.25952148,-0.15557861,0.9188843
1602697223472,17,-0.25952148,-0.15557861,0.9188843
1602697223473,18,-0.25878906,-0.15362549,0.91986084
1602697223473,19,-0.26342773,-0.15460205,0.91741943
1602697223475,20,-0.26342773,-0.15460205,0.91741943
1602697223479,21,-0.2602539,-0.15338135,0.91693115
1602697223480,22,-0.25952148,-0.15411377,0.9188843
1602697223480,23,-0.2602539,-0.15338135,0.91693115
1602697223484,24,-0.25756836,-0.15753174,0.9164429
1602697223484,25,-0.25756836,-0.15753174,0.9164429
1602697223485,26,-0.25952148,-0.15557861,0.9188843
1602697223485,27,-0.25878906,-0.15484619,0.9196167
1602697223489,28,-0.25878906,-0.15484619,0.9196167
1602697223489,29,-0.26342773,-0.15460205,0.91741943
1602697223490,30,-0.2602539,-0.15362549,0.9188843
1602697223499,31,-0.2602539,-0.15362549,0.9188843
1602697223499,32,-0.2602539,-0.15338135,0.91693115
1602697223500,33,-0.2607422,-0.15289307,0.92059326
1602697223500,34,-0.25756836,-0.15753174,0.9164429
1602697223501,35,-0.2607422,-0.15289307,0.92059326
1602697223501,36,-0.25878906,-0.15484619,0.9196167
1602697223501,37,-0.26171875,-0.15509033,0.91815186
1602697223502,38,-0.26171875,-0.15509033,0.91815186
1602697223504,39,-0.2602539,-0.15362549,0.9188843
1602697223506,40,-0.2602539,-0.15460205,0.91741943
1602697223510,41,-0.2607422,-0.15289307,0.92059326
1602697223510,42,-0.2602539,-0.15460205,0.91741943
1602697223511,43,-0.26171875,-0.15509033,0.91815186
1602697223513,44,-0.26123047,-0.15875244,0.9179077
1602697223519,45,-0.26123047,-0.15875244,0.9179077
1602697223520,46,-0.2602539,-0.15460205,0.91741943
1602697223520,47,-0.26220703,-0.15509033,0.91693115
1602697223521,48,-0.26123047,-0.15875244,0.9179077
1602697223521,49,-0.26220703,-0.1572876,0.91693115
1602697223522,50,-0.26220703,-0.15509033,0.91693115
1602697223528,51,-0.26220703,-0.15509033,0.91693115
1602697223528,52,-0.26464844,-0.15899658,0.920105
1602697223528,53,-0.26220703,-0.1572876,0.91693115
1602697223532,54,-0.26220703,-0.1572876,0.91693115
1602697223532,55,-0.26611328,-0.15631104,0.9176636
1602697223533,56,-0.26464844,-0.15899658,0.920105
1602697223537,57,-0.26464844,-0.15899658,0.920105
1602697223537,58,-0.26611328,-0.15631104,0.9176636
1602697223538,59,-0.26367188,-0.15802002,0.91815186
1602697223542,60,-0.26611328,-0.15631104,0.9176636
1602697223543,61,-0.2668457,-0.1609497,0.91864014
1602697223544,62,-0.26367188,-0.15802002,0.91815186
1602697223546,63,-0.2644043,-0.15655518,0.91522217
1602697223547,64,-0.26367188,-0.15802002,0.91815186
1602697223548,65,-0.2668457,-0.1609497,0.91864014
1602697223549,66,-0.26660156,-0.1585083,0.91619873
1602697223550,67,-0.2644043,-0.15655518,0.91522217
1602697223551,68,-0.26464844,-0.15655518,0.91741943
1602697223554,69,-0.26660156,-0.1585083,0.91619873
1602697223554,70,-0.2668457,-0.1609497,0.91864014
1602697223555,71,-0.26464844,-0.15655518,0.91741943
1602697223556,72,-0.2644043,-0.15655518,0.91522217
1602697223558,73,-0.26538086,-0.15753174,0.9179077
1602697223559,74,-0.26538086,-0.15753174,0.9179077
1602697223559,75,-0.26660156,-0.1585083,0.91619873
1602697223560,76,-0.26245117,-0.1585083,0.91571045
1602697223561,77,-0.26464844,-0.15655518,0.91741943
1602697223562,78,-0.25927734,-0.15704346,0.92230225
1602697223563,79,-0.26538086,-0.15753174,0.9179077
1602697223566,80,-0.2626953,-0.15338135,0.920105
1602697223566,81,-0.26245117,-0.1585083,0.91571045
1602697223566,82,-0.26245117,-0.1585083,0.91571045
1602697223567,83,-0.25390625,-0.16192627,0.91448975
1602697223569,84,-0.25927734,-0.15704346,0.92230225
1602697223569,85,-0.25927734,-0.15704346,0.92230225
1602697223569,86,-0.25756836,-0.16265869,0.918396
1602697223570,87,-0.2626953,-0.15338135,0.920105
1602697223574,88,-0.25683594,-0.1572876,0.9164429
1602697223574,89,-0.2626953,-0.15338135,0.920105
1602697223574,90,-0.25390625,-0.16192627,0.91448975
1602697223574,91,-0.25390625,-0.16192627,0.91448975
1602697223577,92,-0.25756836,-0.16265869,0.918396
1602697223577,93,-0.25756836,-0.16265869,0.918396
1602697223578,94,-0.25683594,-0.1572876,0.9164429
1602697223579,95,-0.25683594,-0.1572876,0.9164429
1602697226044,96,-0.26098633,-0.1531372,0.9196167
1602697226045,97,-0.26098633,-0.1531372,0.9196167
1602697226061,98,-0.26098633,-0.1531372,0.9196167
1602697226062,99,-0.2590332,-0.15631104,0.91937256
1602697226062,100,-0.2590332,-0.15631104,0.91937256
1602697226062,101,-0.2524414,-0.16241455,0.91693115
1602697226063,102,-0.2590332,-0.15631104,0.91937256
1602697226063,103,-0.2524414,-0.16241455,0.91693115
1602697226063,104,-0.2524414,-0.16241455,0.91693115
1602697226064,105,-0.2578125,-0.15753174,0.9179077
1602697226064,106,-0.2578125,-0.15753174,0.9179077
1602697226065,107,-0.2578125,-0.15753174,0.9179077
1602697226065,108,-0.25805664,-0.15020752,0.91937256
1602697226066,109,-0.25805664,-0.15020752,0.91937256
1602697226066,110,-0.2524414,-0.1482544,0.91815186
1602697226067,111,-0.2524414,-0.1482544,0.91815186
1602697226067,112,-0.26171875,-0.16021729,0.9196167
1602697226068,113,-0.25805664,-0.15020752,0.91937256
1602697226088,114,-0.26171875,-0.16021729,0.9196167
1602697226090,115,-0.25927734,-0.17706299,0.91448975
1602697226090,116,-0.2524414,-0.1482544,0.91815186
1602697226090,117,-0.26049805,-0.16949463,0.91815186
1602697226090,118,-0.26171875,-0.16021729,0.9196167
1602697226091,119,-0.25830078,-0.15484619,0.92181396
1602697226091,120,-0.25927734,-0.17706299,0.91448975
1602697226093,121,-0.2553711,-0.15045166,0.91986084
1602697226094,122,-0.26049805,-0.16949463,0.91815186
1602697226094,123,-0.2529297,-0.15826416,0.91986084
1602697226094,124,-0.25830078,-0.15484619,0.92181396
1602697226094,125,-0.25927734,-0.17706299,0.91448975
1602697226094,126,-0.2553711,-0.15045166,0.91986084
1602697226095,127,-0.26049805,-0.16949463,0.91815186
1602697226095,128,-0.2529297,-0.15826416,0.91986084
1602697226095,129,-0.25830078,-0.15484619,0.92181396
1602697226096,130,-0.2553711,-0.1609497,0.9191284
1602697226096,131,-0.2553711,-0.15045166,0.91986084
1602697226096,132,-0.25439453,-0.14141846,0.92059326
1602697226106,133,-0.2529297,-0.15826416,0.91986084
1602697226107,134,-0.2553711,-0.1609497,0.9191284
1602697226108,135,-0.25439453,-0.13800049,0.91864014
1602697226108,136,-0.2536621,-0.14703369,0.9215698
1602697226108,137,-0.2553711,-0.1609497,0.9191284
1602697226109,138,-0.2553711,-0.15899658,0.9191284
1602697226110,139,-0.25439453,-0.14141846,0.92059326
1602697226111,140,-0.26049805,-0.15899658,0.92181396
1602697226127,141,-0.25439453,-0.13800049,0.91864014
1602697226127,142,-0.25439453,-0.14141846,0.92059326
1602697226127,143,-0.26098633,-0.15802002,0.918396
1602697226129,144,-0.2536621,-0.14703369,0.9215698
1602697226132,145,-0.2553711,-0.15899658,0.9191284
1602697226132,146,-0.25561523,-0.1560669,0.916687
1602697226132,147,-0.25439453,-0.13800049,0.91864014
1602697226132,148,-0.26049805,-0.15899658,0.92181396
1602697226139,149,-0.2512207,-0.15142822,0.9249878
1602697226139,150,-0.2536621,-0.14703369,0.9215698
1602697226140,151,-0.26098633,-0.15802002,0.918396
1602697226140,152,-0.2553711,-0.15899658,0.9191284
1602697226140,153,-0.25830078,-0.15582275,0.91815186
1602697226143,154,-0.26049805,-0.15899658,0.92181396
1602697226143,155,-0.25512695,-0.1572876,0.9176636
1602697226143,156,-0.26098633,-0.15802002,0.918396
1602697226147,157,-0.25561523,-0.1560669,0.916687
1602697226147,158,-0.25805664,-0.1572876,0.9176636
1602697226147,159,-0.2512207,-0.15142822,0.9249878
1602697226147,160,-0.25561523,-0.1560669,0.916687
1602697226148,161,-0.25341797,-0.16339111,0.92108154
1602697226149,162,-0.25830078,-0.15582275,0.91815186
1602697226152,163,-0.25976562,-0.15338135,0.91986084
1602697226159,164,-0.25512695,-0.1572876,0.9176636
1602697226160,165,-0.2512207,-0.15142822,0.9249878
1602697226160,166,-0.25878906,-0.15484619,0.9196167
1602697226160,167,-0.25830078,-0.15582275,0.91815186
1602697226160,168,-0.25610352,-0.15509033,0.918396
1602697226175,169,-0.25512695,-0.1572876,0.9176636
1602697226176,170,-0.25610352,-0.15802002,0.920105
1602697226176,171,-0.25805664,-0.1572876,0.9176636
1602697226176,172,-0.25805664,-0.1572876,0.9176636
1602697226177,173,-0.25708008,-0.15582275,0.9203491
1602697226178,174,-0.25341797,-0.16339111,0.92108154
1602697226179,175,-0.25341797,-0.16339111,0.92108154
1602697226179,176,-0.25976562,-0.15338135,0.91986084
1602697226179,177,-0.25976562,-0.15338135,0.91986084
1602697226179,178,-0.25439453,-0.15289307,0.9176636
1602697226180,179,-0.25878906,-0.15484619,0.9196167
1602697226193,180,-0.25878906,-0.15484619,0.9196167
1602697226194,181,-0.2541504,-0.15777588,0.918396
1602697226194,182,-0.25610352,-0.15509033,0.918396
1602697226194,183,-0.25610352,-0.15509033,0.918396
1602697226194,184,-0.25610352,-0.15802002,0.920105
1602697226195,185,-0.25610352,-0.15802002,0.920105
1602697226197,186,-0.25708008,-0.15582275,0.9203491
1602697226197,187,-0.25708008,-0.15582275,0.9203491
1602697226197,188,-0.25439453,-0.15289307,0.9176636
1602697226199,189,-0.2541504,-0.15777588,0.918396
1602697226200,190,-0.25439453,-0.15289307,0.9176636
1602697226204,191,-0.2541504,-0.15777588,0.918396
1602697228551,192,-0.25585938,-0.15655518,0.91986084
1602697228551,193,-0.25585938,-0.15655518,0.91986084
1602697228551,194,-0.25830078,-0.15679932,0.91815186
1602697228551,195,-0.25585938,-0.15655518,0.91986084
1602697228552,196,-0.25512695,-0.15679932,0.9164429
1602697228552,197,-0.25830078,-0.15679932,0.91815186
1602697228553,198,-0.2548828,-0.15460205,0.91864014
1602697228554,199,-0.25512695,-0.15679932,0.9164429
1602697228554,200,-0.25830078,-0.15679932,0.91815186
1602697228554,201,-0.25512695,-0.15509033,0.9191284
1602697228558,202,-0.2548828,-0.15460205,0.91864014
1602697228558,203,-0.25756836,-0.1572876,0.91937256
1602697228558,204,-0.25512695,-0.15679932,0.9164429
1602697228563,205,-0.25512695,-0.15509033,0.9191284
1602697228563,206,-0.25732422,-0.15557861,0.9171753
1602697228564,207,-0.25756836,-0.1572876,0.91937256
1602697228564,208,-0.25830078,-0.15753174,0.91693115
1602697228565,209,-0.2548828,-0.15460205,0.91864014
1602697228570,210,-0.25732422,-0.15557861,0.9171753
1602697228570,211,-0.25830078,-0.16070557,0.91864014
1602697228570,212,-0.25512695,-0.15509033,0.9191284
1602697228570,213,-0.25830078,-0.15753174,0.91693115
1602697228574,214,-0.2590332,-0.15582275,0.9179077
1602697228574,215,-0.25830078,-0.16070557,0.91864014
1602697228574,216,-0.25976562,-0.16143799,0.9191284
1602697228575,217,-0.26245117,-0.1572876,0.91937256
1602697228575,218,-0.25756836,-0.1572876,0.91937256
1602697228578,219,-0.2602539,-0.15631104,0.9179077
1602697228578,220,-0.2590332,-0.15582275,0.9179077
1602697228578,221,-0.25732422,-0.15557861,0.9171753
1602697228578,222,-0.2619629,-0.15826416,0.916687
1602697228583,223,-0.25976562,-0.16143799,0.9191284
1602697228584,224,-0.25830078,-0.15753174,0.91693115
1602697228584,225,-0.26049805,-0.1609497,0.9154663
1602697228584,226,-0.26245117,-0.1572876,0.91937256
1602697228584,227,-0.25854492,-0.15533447,0.91937256
1602697228585,228,-0.25830078,-0.16070557,0.91864014
1602697228585,229,-0.2602539,-0.15631104,0.9179077
1602697228590,230,-0.26098633,-0.159729,0.9213257
1602697228590,231,-0.2590332,-0.15582275,0.9179077
1602697228590,232,-0.2619629,-0.15826416,0.916687
1602697228591,233,-0.25976562,-0.16143799,0.9191284
1602697228591,234,-0.2626953,-0.15875244,0.91619873
1602697228591,235,-0.26245117,-0.1572876,0.91937256
1602697228592,236,-0.26049805,-0.1609497,0.9154663
1602697228592,237,-0.26367188,-0.16143799,0.91448975
1602697228596,238,-0.2602539,-0.15631104,0.9179077
1602697228597,239,-0.25854492,-0.15533447,0.91937256
1602697228597,240,-0.2590332,-0.15948486,0.91864014
1602697228598,241,-0.26098633,-0.159729,0.9213257
1602697228598,242,-0.2619629,-0.15826416,0.916687
1602697228602,243,-0.26220703,-0.15777588,0.9164429
1602697228602,244,-0.2626953,-0.15875244,0.91619873
1602697228602,245,-0.26049805,-0.1609497,0.9154663
1602697228603,246,-0.25952148,-0.15826416,0.91815186
1602697228603,247,-0.26367188,-0.16143799,0.91448975
1602697228604,248,-0.25854492,-0.15533447,0.91937256
1602697228605,249,-0.2590332,-0.15948486,0.91864014
1602697228607,250,-0.26098633,-0.159729,0.9213257
1602697228608,251,-0.25683594,-0.16192627,0.9208374
1602697228608,252,-0.26220703,-0.15777588,0.9164429
1602697228610,253,-0.2626953,-0.15875244,0.91619873
1602697228610,254,-0.2607422,-0.16290283,0.91937256
1602697228610,255,-0.25952148,-0.15826416,0.91815186
1602697228612,256,-0.26367188,-0.16143799,0.91448975
1602697228613,257,-0.25683594,-0.16192627,0.9208374
1602697228616,258,-0.2590332,-0.15948486,0.91864014
1602697228616,259,-0.25805664,-0.16021729,0.918396
1602697228616,260,-0.2607422,-0.16290283,0.91937256
1602697228617,261,-0.26098633,-0.1572876,0.91522217
1602697228617,262,-0.26220703,-0.15777588,0.9164429
1602697228618,263,-0.25805664,-0.16021729,0.918396
1602697228620,264,-0.25952148,-0.15826416,0.91815186
1602697228621,265,-0.26098633,-0.1572876,0.91522217
1602697228623,266,-0.2590332,-0.16412354,0.92059326
1602697228623,267,-0.2590332,-0.16412354,0.92059326
1602697228623,268,-0.25683594,-0.16192627,0.9208374
1602697228625,269,-0.2590332,-0.159729,0.91619873
1602697228626,270,-0.2607422,-0.16290283,0.91937256
1602697228627,271,-0.25952148,-0.15802002,0.9171753
1602697228629,272,-0.25805664,-0.16021729,0.918396
1602697228629,273,-0.2590332,-0.159729,0.91619873
1602697228629,274,-0.26049805,-0.15802002,0.9213257
1602697228631,275,-0.26098633,-0.1572876,0.91522217
1602697228633,276,-0.25805664,-0.15899658,0.91522217
1602697228633,277,-0.25952148,-0.15802002,0.9171753
1602697228633,278,-0.2602539,-0.1609497,0.9188843
1602697228635,279,-0.2590332,-0.16412354,0.92059326
1602697228636,280,-0.26049805,-0.15802002,0.9213257
1602697228638,281,-0.2590332,-0.159729,0.91619873
1602697228638,282,-0.25805664,-0.15899658,0.91522217
1602697228639,283,-0.25952148,-0.15802002,0.9171753
1602697228640,284,-0.2602539,-0.1609497,0.9188843
1602697228641,285,-0.26049805,-0.15802002,0.9213257
1602697228643,286,-0.25805664,-0.15899658,0.91522217
1602697228644,287,-0.2602539,-0.1609497,0.9188843
1602697231143,288,-0.25927734,-0.16070557,0.9196167
1602697231148,289,-0.25927734,-0.16070557,0.9196167
1602697231148,290,-0.25927734,-0.16070557,0.9196167
1602697231149,291,-0.26000977,-0.15655518,0.9188843
1602697231155,292,-0.26000977,-0.15655518,0.9188843
1602697231155,293,-0.2578125,-0.1572876,0.9191284
1602697231156,294,-0.26000977,-0.15655518,0.9188843
1602697231162,295,-0.2578125,-0.1572876,0.9191284
1602697231162,296,-0.25732422,-0.1609497,0.9176636
1602697231163,297,-0.2578125,-0.1572876,0.9191284
1602697231163,298,-0.25732422,-0.1609497,0.9176636
1602697231170,299,-0.26123047,-0.15753174,0.9164429
1602697231171,300,-0.25732422,-0.1609497,0.9176636
1602697231172,301,-0.26123047,-0.15753174,0.9164429
1602697231173,302,-0.26123047,-0.15753174,0.9164429
1602697231173,303,-0.25952148,-0.15557861,0.9171753
1602697231179,304,-0.25952148,-0.15557861,0.9171753
1602697231180,305,-0.25952148,-0.15557861,0.9171753
1602697231180,306,-0.25708008,-0.1572876,0.9191284
1602697231181,307,-0.25708008,-0.1572876,0.9191284
1602697231184,308,-0.25708008,-0.1572876,0.9191284
1602697231189,309,-0.26000977,-0.1585083,0.9171753
1602697231190,310,-0.26000977,-0.1585083,0.9171753
1602697231190,311,-0.26000977,-0.1585083,0.9171753
1602697231202,312,-0.25610352,-0.15899658,0.918396
1602697231202,313,-0.25610352,-0.15899658,0.918396
1602697231203,314,-0.25683594,-0.15631104,0.9196167
1602697231205,315,-0.25683594,-0.15631104,0.9196167
1602697231207,316,-0.2565918,-0.15582275,0.9196167
1602697231208,317,-0.25610352,-0.15899658,0.918396
1602697231222,318,-0.2565918,-0.15582275,0.9196167
1602697231222,319,-0.25317383,-0.15704346,0.918396
1602697231224,320,-0.25317383,-0.15704346,0.918396
1602697231225,321,-0.25708008,-0.15533447,0.9213257
1602697231225,322,-0.25683594,-0.15631104,0.9196167
1602697231225,323,-0.25708008,-0.15533447,0.9213257
1602697231226,324,-0.2590332,-0.15679932,0.9196167
1602697231242,325,-0.2590332,-0.15679932,0.9196167
1602697231243,326,-0.2565918,-0.15582275,0.9196167
1602697231243,327,-0.25585938,-0.15899658,0.91986084
1602697231243,328,-0.25805664,-0.15655518,0.91693115
1602697231244,329,-0.25585938,-0.15899658,0.91986084
1602697231244,330,-0.25634766,-0.15557861,0.9176636
1602697231244,331,-0.25805664,-0.15655518,0.91693115
1602697231245,332,-0.25317383,-0.15704346,0.918396
1602697231245,333,-0.25634766,-0.15557861,0.9176636
1602697231245,334,-0.25708008,-0.15533447,0.9213257
1602697231246,335,-0.25585938,-0.15948486,0.91986084
1602697231246,336,-0.25585938,-0.15948486,0.91986084
1602697231246,337,-0.25732422,-0.16070557,0.91619873
1602697231247,338,-0.2565918,-0.15924072,0.920105
1602697231247,339,-0.2590332,-0.15679932,0.9196167
1602697231251,340,-0.25732422,-0.16070557,0.91619873
1602697231251,341,-0.2553711,-0.15802002,0.9225464
1602697231252,342,-0.25585938,-0.15899658,0.91986084
1602697231252,343,-0.2565918,-0.15924072,0.920105
1602697231255,344,-0.25805664,-0.15655518,0.91693115
1602697231256,345,-0.25683594,-0.15802002,0.9203491
1602697231256,346,-0.2553711,-0.15802002,0.9225464
1602697231258,347,-0.25634766,-0.15557861,0.9176636
1602697231262,348,-0.25683594,-0.15802002,0.9203491
1602697231262,349,-0.25976562,-0.15826416,0.91815186
1602697231263,350,-0.25585938,-0.15948486,0.91986084
1602697231263,351,-0.25805664,-0.1572876,0.91448975
1602697231264,352,-0.25976562,-0.15826416,0.91815186
1602697231265,353,-0.25805664,-0.15802002,0.9179077
1602697231268,354,-0.25805664,-0.1572876,0.91448975
1602697231268,355,-0.25732422,-0.16070557,0.91619873
1602697231268,356,-0.25732422,-0.15826416,0.9220581
1602697231270,357,-0.25805664,-0.15802002,0.9179077
1602697231271,358,-0.2565918,-0.15924072,0.920105
1602697231271,359,-0.25854492,-0.15875244,0.918396
1602697231273,360,-0.25732422,-0.15826416,0.9220581
1602697231274,361,-0.2590332,-0.1609497,0.91986084
1602697231276,362,-0.25854492,-0.15875244,0.918396
1602697231276,363,-0.2553711,-0.15802002,0.9225464
1602697231276,364,-0.25976562,-0.15948486,0.9188843
1602697231280,365,-0.2590332,-0.1609497,0.91986084
1602697231280,366,-0.25683594,-0.15802002,0.9203491
1602697231280,367,-0.25952148,-0.15924072,0.9164429
1602697231281,368,-0.25976562,-0.15948486,0.9188843
1602697231282,369,-0.25976562,-0.15826416,0.91815186
1602697231284,370,-0.25952148,-0.15924072,0.9164429
1602697231284,371,-0.25952148,-0.15557861,0.91815186
1602697231285,372,-0.25805664,-0.1572876,0.91448975
1602697231286,373,-0.25952148,-0.15557861,0.91815186
1602697231287,374,-0.26245117,-0.15948486,0.91986084
1602697231289,375,-0.26245117,-0.15948486,0.91986084
1602697231290,376,-0.25805664,-0.15802002,0.9179077
1602697231291,377,-0.25732422,-0.15826416,0.9220581
1602697231292,378,-0.25854492,-0.15875244,0.918396
1602697231294,379,-0.2590332,-0.1609497,0.91986084
1602697231295,380,-0.25976562,-0.15948486,0.9188843
1602697231296,381,-0.25952148,-0.15924072,0.9164429
1602697231298,382,-0.25952148,-0.15557861,0.91815186
1602697231299,383,-0.26245117,-0.15948486,0.91986084
1602697233652,384,-0.26000977,-0.15997314,0.91864014
1602697233656,385,-0.26000977,-0.15997314,0.91864014
1602697233662,386,-0.26049805,-0.16070557,0.9179077
1602697233663,387,-0.26000977,-0.15997314,0.91864014
1602697233663,388,-0.26049805,-0.16070557,0.9179077
1602697233666,389,-0.26049805,-0.16070557,0.9179077
1602697233669,390,-0.2614746,-0.15924072,0.9159546
1602697233671,391,-0.2614746,-0.15924072,0.9159546
1602697233683,392,-0.26000977,-0.159729,0.91619873
1602697233683,393,-0.2614746,-0.15924072,0.9159546
1602697233683,394,-0.25830078,-0.15924072,0.91937256
1602697233684,395,-0.26000977,-0.159729,0.91619873
1602697233684,396,-0.26000977,-0.159729,0.91619873
1602697233684,397,-0.26220703,-0.16046143,0.91864014
1602697233688,398,-0.25830078,-0.15924072,0.91937256
1602697233689,399,-0.25830078,-0.15924072,0.91937256
1602697233690,400,-0.26171875,-0.15924072,0.91693115
1602697233692,401,-0.26220703,-0.16046143,0.91864014
1602697233704,402,-0.26171875,-0.15924072,0.91693115
1602697233706,403,-0.26220703,-0.16046143,0.91864014
1602697233706,404,-0.25927734,-0.1572876,0.9171753
1602697233707,405,-0.25927734,-0.1572876,0.9171753
1602697233708,406,-0.26171875,-0.15924072,0.91693115
1602697233709,407,-0.2602539,-0.15899658,0.9147339
1602697233709,408,-0.2602539,-0.15899658,0.9147339
1602697233718,409,-0.25927734,-0.1572876,0.9171753
1602697233719,410,-0.2578125,-0.15802002,0.91693115
1602697233719,411,-0.2602539,-0.15899658,0.9147339
1602697233725,412,-0.25708008,-0.15899658,0.91741943
1602697233725,413,-0.2578125,-0.15802002,0.91693115
1602697233726,414,-0.2578125,-0.15802002,0.91693115
1602697233732,415,-0.25708008,-0.15899658,0.91741943
1602697233732,416,-0.25878906,-0.15875244,0.9164429
1602697233732,417,-0.25708008,-0.15899658,0.91741943
1602697233746,418,-0.25878906,-0.15875244,0.9164429
1602697233747,419,-0.25927734,-0.15826416,0.920105
1602697233747,420,-0.25927734,-0.15826416,0.920105
1602697233748,421,-0.2590332,-0.159729,0.91937256
1602697233748,422,-0.25878906,-0.15875244,0.9164429
1602697233748,423,-0.25976562,-0.15655518,0.914978
1602697233748,424,-0.25927734,-0.15826416,0.920105
1602697233748,425,-0.2590332,-0.159729,0.91937256
1602697233748,426,-0.2590332,-0.159729,0.91937256
1602697233749,427,-0.2578125,-0.15777588,0.920105
1602697233749,428,-0.25976562,-0.15655518,0.914978
1602697233749,429,-0.25976562,-0.15655518,0.914978
1602697233749,430,-0.25756836,-0.15899658,0.9159546
1602697233750,431,-0.2578125,-0.15777588,0.920105
1602697233750,432,-0.2578125,-0.15777588,0.920105
1602697233750,433,-0.2590332,-0.15899658,0.9171753
1602697233750,434,-0.25756836,-0.15899658,0.9159546
1602697233751,435,-0.25805664,-0.1572876,0.91815186
1602697233751,436,-0.2590332,-0.15899658,0.9171753
1602697233758,437,-0.25756836,-0.15899658,0.9159546
1602697233758,438,-0.25732422,-0.1572876,0.916687
1602697233758,439,-0.25805664,-0.1572876,0.91815186
1602697233758,440,-0.2590332,-0.15899658,0.9171753
1602697233759,441,-0.25561523,-0.15679932,0.9191284
1602697233759,442,-0.25805664,-0.1572876,0.91815186
1602697233759,443,-0.25732422,-0.1572876,0.916687
1602697233759,444,-0.25805664,-0.15631104,0.9147339
1602697233759,445,-0.25561523,-0.15679932,0.9191284
1602697233760,446,-0.25732422,-0.1572876,0.916687
1602697233761,447,-0.25610352,-0.1560669,0.9176636
1602697233762,448,-0.25561523,-0.15679932,0.9191284
1602697233764,449,-0.25756836,-0.15362549,0.91741943
1602697233765,450,-0.25805664,-0.15631104,0.9147339
1602697233765,451,-0.25805664,-0.15631104,0.9147339
1602697233765,452,-0.2553711,-0.15411377,0.9191284
1602697233771,453,-0.25610352,-0.1560669,0.9176636
1602697233771,454,-0.25610352,-0.1560669,0.9176636
1602697233772,455,-0.25732422,-0.15631104,0.918396
1602697233772,456,-0.25756836,-0.15362549,0.91741943
1602697233772,457,-0.25610352,-0.15240479,0.9203491
1602697233772,458,-0.2553711,-0.15411377,0.9191284
1602697233773,459,-0.25561523,-0.15289307,0.92059326
1602697233773,460,-0.25732422,-0.15631104,0.918396
1602697233773,461,-0.25683594,-0.15093994,0.9208374
1602697233774,462,-0.25756836,-0.15362549,0.91741943
1602697233775,463,-0.25341797,-0.15582275,0.91815186
1602697233778,464,-0.2553711,-0.15411377,0.9191284
1602697233778,465,-0.25610352,-0.15240479,0.9203491
1602697233779,466,-0.25512695,-0.15362549,0.91986084
1602697233779,467,-0.25732422,-0.15631104,0.918396
1602697233780,468,-0.25561523,-0.15289307,0.92059326
1602697233781,469,-0.25585938,-0.15362549,0.9196167
1602697233783,470,-0.25610352,-0.15240479,0.9203491
1602697233783,471,-0.25683594,-0.15093994,0.9208374
1602697233785,472,-0.25561523,-0.15289307,0.92059326
1602697233787,473,-0.25341797,-0.15582275,0.91815186
1602697233788,474,-0.25683594,-0.15093994,0.9208374
1602697233789,475,-0.25512695,-0.15362549,0.91986084
1602697233791,476,-0.25341797,-0.15582275,0.91815186
1602697233792,477,-0.25585938,-0.15362549,0.9196167
1602697233794,478,-0.25512695,-0.15362549,0.91986084
1602697233796,479,-0.25585938,-0.15362549,0.9196167
1602697236248,480,-0.25805664,-0.15362549,0.9176636
1602697236254,481,-0.25805664,-0.1531372,0.9176636
1602697236254,482,-0.25805664,-0.15362549,0.9176636
1602697236255,483,-0.2565918,-0.15289307,0.9179077
1602697236257,484,-0.25805664,-0.1531372,0.9176636
1602697236264,485,-0.25805664,-0.15362549,0.9176636
1602697236264,486,-0.25756836,-0.15533447,0.918396
1602697236265,487,-0.2565918,-0.15289307,0.9179077
1602697236265,488,-0.25732422,-0.1531372,0.9176636
1602697236265,489,-0.25805664,-0.1531372,0.9176636
1602697236266,490,-0.25756836,-0.15533447,0.918396
1602697236266,491,-0.2565918,-0.15289307,0.9179077
1602697236267,492,-0.25683594,-0.1560669,0.91741943
1602697236279,493,-0.25732422,-0.1531372,0.9176636
1602697236280,494,-0.25683594,-0.1560669,0.91741943
1602697236280,495,-0.2590332,-0.15582275,0.9196167
1602697236281,496,-0.25854492,-0.1560669,0.9213257
1602697236281,497,-0.26245117,-0.15631104,0.91693115
1602697236281,498,-0.2590332,-0.15582275,0.9196167
1602697236281,499,-0.25756836,-0.15533447,0.918396
1602697236281,500,-0.25854492,-0.1560669,0.9213257
1602697236281,501,-0.26000977,-0.1560669,0.9188843
1602697236283,502,-0.25732422,-0.1531372,0.9176636
1602697236285,503,-0.26245117,-0.15631104,0.91693115
1602697236286,504,-0.25976562,-0.15533447,0.9154663
1602697236286,505,-0.26000977,-0.1560669,0.9188843
1602697236286,506,-0.26220703,-0.15924072,0.91937256
1602697236292,507,-0.25683594,-0.1560669,0.91741943
1602697236292,508,-0.25976562,-0.15533447,0.9154663
1602697236292,509,-0.2619629,-0.1572876,0.9154663
1602697236293,510,-0.26220703,-0.15924072,0.91937256
1602697236293,511,-0.2590332,-0.15582275,0.9196167
1602697236293,512,-0.2619629,-0.1572876,0.9154663
1602697236293,513,-0.25854492,-0.1560669,0.9213257
1602697236293,514,-0.26171875,-0.15826416,0.91815186
1602697236293,515,-0.26245117,-0.15631104,0.91693115
1602697236296,516,-0.26171875,-0.15826416,0.91815186
1602697236297,517,-0.2602539,-0.15704346,0.9159546
1602697236297,518,-0.26000977,-0.1560669,0.9188843
1602697236297,519,-0.26098633,-0.15655518,0.9191284
1602697236298,520,-0.2602539,-0.15704346,0.9159546
1602697236299,521,-0.2626953,-0.15582275,0.9179077
1602697236302,522,-0.26098633,-0.15655518,0.9191284
1602697236302,523,-0.25976562,-0.15533447,0.9154663
1602697236302,524,-0.2626953,-0.15582275,0.9179077
1602697236302,525,-0.26220703,-0.15924072,0.91937256
1602697236303,526,-0.26293945,-0.15899658,0.91571045
1602697236306,527,-0.2619629,-0.1572876,0.9154663
1602697236306,528,-0.26293945,-0.15899658,0.91571045
1602697236306,529,-0.2619629,-0.15704346,0.918396
1602697236306,530,-0.26171875,-0.15826416,0.91815186
1602697236308,531,-0.2619629,-0.15704346,0.918396
1602697236310,532,-0.2602539,-0.15704346,0.9159546
1602697236312,533,-0.2619629,-0.15655518,0.9191284
1602697236312,534,-0.2619629,-0.15655518,0.9191284
1602697236312,535,-0.26098633,-0.15655518,0.9191284
1602697236315,536,-0.2619629,-0.15264893,0.91571045
1602697236315,537,-0.2619629,-0.15264893,0.91571045
1602697236315,538,-0.26293945,-0.15435791,0.91741943
1602697236316,539,-0.2626953,-0.15582275,0.9179077
1602697236319,540,-0.2614746,-0.1585083,0.91937256
1602697236319,541,-0.26293945,-0.15899658,0.91571045
1602697236319,542,-0.25952148,-0.15460205,0.91815186
1602697236320,543,-0.2619629,-0.15704346,0.918396
1602697236321,544,-0.25854492,-0.15338135,0.91986084
1602697236322,545,-0.2619629,-0.15655518,0.9191284
1602697236324,546,-0.26123047,-0.15484619,0.9164429
1602697236324,547,-0.26293945,-0.15435791,0.91741943
1602697236325,548,-0.2619629,-0.15264893,0.91571045
1602697236326,549,-0.26220703,-0.15509033,0.92108154
1602697236328,550,-0.26293945,-0.15435791,0.91741943
1602697236328,551,-0.2614746,-0.1585083,0.91937256
1602697236328,552,-0.26293945,-0.15631104,0.9176636
1602697236330,553,-0.2614746,-0.1585083,0.91937256
1602697236332,554,-0.2631836,-0.1519165,0.92108154
1602697236333,555,-0.25952148,-0.15460205,0.91815186
1602697236333,556,-0.25952148,-0.15460205,0.91815186
1602697236336,557,-0.26245117,-0.15411377,0.9203491
1602697236337,558,-0.25854492,-0.15338135,0.91986084
1602697236337,559,-0.25854492,-0.15338135,0.91986084
1602697236337,560,-0.26220703,-0.1531372,0.91937256
1602697236338,561,-0.2590332,-0.15679932,0.91986084
1602697236340,562,-0.26123047,-0.15484619,0.9164429
1602697236341,563,-0.26123047,-0.15484619,0.9164429
1602697236342,564,-0.26220703,-0.15509033,0.92108154
1602697236343,565,-0.26220703,-0.15509033,0.92108154
1602697236344,566,-0.26293945,-0.15631104,0.9176636
1602697236345,567,-0.26293945,-0.15631104,0.9176636
1602697236347,568,-0.2631836,-0.1519165,0.92108154
1602697236347,569,-0.2631836,-0.1519165,0.92108154
1602697236348,570,-0.26245117,-0.15411377,0.9203491
1602697236350,571,-0.26245117,-0.15411377,0.9203491
1602697236350,572,-0.26220703,-0.1531372,0.91937256
1602697236352,573,-0.26220703,-0.1531372,0.91937256
1602697236352,574,-0.2590332,-0.15679932,0.91986084
1602697236354,575,-0.2590332,-0.15679932,0.91986084
1602697238759,576,-0.2607422,-0.15362549,0.9213257
1602697238760,577,-0.2607422,-0.15362549,0.9213257
1602697238761,578,-0.26000977,-0.15264893,0.9176636
1602697238761,579,-0.26000977,-0.15264893,0.9176636
1602697238762,580,-0.26000977,-0.15533447,0.91741943
1602697238762,581,-0.2607422,-0.15362549,0.9213257
1602697238775,582,-0.25927734,-0.15362549,0.9191284
1602697238775,583,-0.25952148,-0.15435791,0.918396
1602697238775,584,-0.26000977,-0.15264893,0.9176636
1602697238776,585,-0.26000977,-0.15533447,0.91741943
1602697238776,586,-0.26171875,-0.15435791,0.91619873
1602697238782,587,-0.25927734,-0.15362549,0.9191284
1602697238783,588,-0.26000977,-0.15533447,0.91741943
1602697238783,589,-0.2614746,-0.15338135,0.920105
1602697238783,590,-0.25927734,-0.15362549,0.9191284
1602697238783,591,-0.25952148,-0.15435791,0.918396
1602697238785,592,-0.25976562,-0.15411377,0.92059326
1602697238786,593,-0.25952148,-0.15435791,0.918396
1602697238786,594,-0.26171875,-0.15435791,0.91619873
1602697238789,595,-0.26171875,-0.15435791,0.91619873
1602697238790,596,-0.25585938,-0.15509033,0.9203491
1602697238790,597,-0.2614746,-0.15338135,0.920105
1602697238794,598,-0.2614746,-0.15338135,0.920105
1602697238794,599,-0.25976562,-0.15411377,0.92059326
1602697238795,600,-0.26000977,-0.15093994,0.9191284
1602697238795,601,-0.25927734,-0.1506958,0.9188843
1602697238795,602,-0.25976562,-0.15411377,0.92059326
1602697238798,603,-0.25585938,-0.15509033,0.9203491
1602697238798,604,-0.25585938,-0.15509033,0.9203491
1602697238799,605,-0.25854492,-0.15582275,0.9213257
1602697238801,606,-0.26000977,-0.15093994,0.9191284
1602697238801,607,-0.26000977,-0.15093994,0.9191284
1602697238801,608,-0.25830078,-0.15338135,0.9188843
1602697238803,609,-0.25927734,-0.1506958,0.9188843
1602697238803,610,-0.25927734,-0.1506958,0.9188843
1602697238804,611,-0.2590332,-0.15338135,0.916687
1602697238805,612,-0.25854492,-0.15582275,0.9213257
1602697238807,613,-0.26000977,-0.15411377,0.9164429
1602697238808,614,-0.25854492,-0.15582275,0.9213257
1602697238808,615,-0.25830078,-0.15338135,0.9188843
1602697238811,616,-0.25952148,-0.1519165,0.9164429
1602697238811,617,-0.25830078,-0.15338135,0.9188843
1602697238811,618,-0.25976562,-0.1531372,0.91619873
1602697238812,619,-0.2590332,-0.15338135,0.916687
1602697238813,620,-0.2590332,-0.15338135,0.916687
1602697238815,621,-0.26000977,-0.15411377,0.9164429
1602697238816,622,-0.25830078,-0.1560669,0.91986084
1602697238816,623,-0.25952148,-0.1519165,0.9164429
1602697238817,624,-0.26220703,-0.15362549,0.9191284
1602697238818,625,-0.25976562,-0.1531372,0.91619873
1602697238820,626,-0.25830078,-0.1560669,0.91986084
1602697238821,627,-0.26416016,-0.15411377,0.9171753
1602697238823,628,-0.26220703,-0.15362549,0.9191284
1602697238823,629,-0.26000977,-0.15411377,0.9164429
1602697238824,630,-0.2590332,-0.15631104,0.91986084
1602697238825,631,-0.26416016,-0.15411377,0.9171753
1602697238826,632,-0.25952148,-0.1519165,0.9164429
1602697238826,633,-0.25976562,-0.15411377,0.916687
1602697238827,634,-0.2590332,-0.15631104,0.91986084
1602697238828,635,-0.25976562,-0.1531372,0.91619873
1602697238829,636,-0.25976562,-0.15411377,0.916687
1602697238830,637,-0.25830078,-0.1560669,0.91986084
1602697238831,638,-0.26367188,-0.15582275,0.9147339
1602697238832,639,-0.26220703,-0.15362549,0.9191284
1602697238834,640,-0.26367188,-0.15802002,0.91741943
1602697238835,641,-0.26416016,-0.15411377,0.9171753
1602697238836,642,-0.26391602,-0.15679932,0.9147339
1602697238839,643,-0.2590332,-0.15631104,0.91986084
1602697238840,644,-0.26367188,-0.15582275,0.9147339
1602697238840,645,-0.25952148,-0.1585083,0.92059326
1602697238840,646,-0.26367188,-0.15802002,0.91741943
1602697238840,647,-0.25976562,-0.15411377,0.916687
1602697238841,648,-0.26171875,-0.15655518,0.9171753
1602697238842,649,-0.26367188,-0.15582275,0.9147339
1602697238844,650,-0.26367188,-0.15704346,0.91815186
1602697238844,651,-0.26391602,-0.15679932,0.9147339
1602697238845,652,-0.26367188,-0.15802002,0.91741943
1602697238847,653,-0.26586914,-0.1519165,0.918396
1602697238847,654,-0.25952148,-0.1585083,0.92059326
1602697238848,655,-0.26391602,-0.15679932,0.9147339
1602697238849,656,-0.26220703,-0.15362549,0.9176636
1602697238853,657,-0.25952148,-0.1585083,0.92059326
1602697238854,658,-0.26171875,-0.15655518,0.9171753
1602697238854,659,-0.2626953,-0.16070557,0.91937256
1602697238854,660,-0.2619629,-0.16192627,0.92230225
1602697238854,661,-0.26171875,-0.15655518,0.9171753
1602697238854,662,-0.26367188,-0.15704346,0.91815186
1602697238858,663,-0.26586914,-0.1519165,0.918396
1602697238858,664,-0.26367188,-0.15704346,0.91815186
1602697238860,665,-0.26220703,-0.15362549,0.9176636
1602697238860,666,-0.26586914,-0.1519165,0.918396
1602697238860,667,-0.2626953,-0.16070557,0.91937256
1602697238862,668,-0.26220703,-0.15362549,0.9176636
1602697238862,669,-0.2619629,-0.16192627,0.92230225
1602697238863,670,-0.2626953,-0.16070557,0.91937256
1602697238865,671,-0.2619629,-0.16192627,0.92230225
1602697241242,672,-0.26123047,-0.16046143,0.9171753
1602697241245,673,-0.26733398,-0.15386963,0.916687
1602697241246,674,-0.26123047,-0.16046143,0.9171753
1602697241246,675,-0.26123047,-0.16046143,0.9171753
1602697241252,676,-0.26733398,-0.15386963,0.916687
1602697241253,677,-0.26733398,-0.15386963,0.916687
1602697241253,678,-0.26293945,-0.15020752,0.91619873
1602697241253,679,-0.26293945,-0.15020752,0.91619873
1602697241254,680,-0.2607422,-0.15264893,0.916687
1602697241255,681,-0.26293945,-0.15020752,0.91619873
1602697241255,682,-0.2607422,-0.15264893,0.916687
1602697241262,683,-0.2631836,-0.15216064,0.9159546
1602697241262,684,-0.2607422,-0.15264893,0.916687
1602697241263,685,-0.2631836,-0.15216064,0.9159546
1602697241263,686,-0.2631836,-0.15216064,0.9159546
1602697241264,687,-0.26000977,-0.15435791,0.9208374
1602697241264,688,-0.26000977,-0.15435791,0.9208374
1602697241264,689,-0.25732422,-0.15802002,0.91741943
1602697241265,690,-0.26000977,-0.15435791,0.9208374
1602697241266,691,-0.25732422,-0.15802002,0.91741943
1602697241268,692,-0.25732422,-0.15802002,0.91741943
1602697241271,693,-0.26220703,-0.1560669,0.91864014
1602697241271,694,-0.26220703,-0.1560669,0.91864014
1602697241273,695,-0.26220703,-0.1560669,0.91864014
1602697241279,696,-0.26391602,-0.15338135,0.9188843
1602697241285,697,-0.26391602,-0.15338135,0.9188843
1602697241285,698,-0.26391602,-0.15338135,0.9188843
1602697241286,699,-0.25805664,-0.15826416,0.9188843
1602697241286,700,-0.25805664,-0.15826416,0.9188843
1602697241290,701,-0.2626953,-0.15411377,0.91864014
1602697241291,702,-0.25805664,-0.15826416,0.9188843
1602697241291,703,-0.2626953,-0.15411377,0.91864014
1602697241294,704,-0.2626953,-0.15411377,0.91864014
1602697241294,705,-0.2590332,-0.14630127,0.91864014
1602697241295,706,-0.2590332,-0.14630127,0.91864014
1602697241296,707,-0.25585938,-0.15118408,0.9225464
1602697241297,708,-0.25585938,-0.15118408,0.9225464
1602697241299,709,-0.25805664,-0.15533447,0.9188843
1602697241300,710,-0.25805664,-0.15533447,0.9188843
1602697241301,711,-0.2578125,-0.15338135,0.91693115
1602697241302,712,-0.2578125,-0.15338135,0.91693115
1602697241303,713,-0.25854492,-0.15289307,0.920105
1602697241305,714,-0.25854492,-0.15289307,0.920105
1602697241305,715,-0.2590332,-0.14630127,0.91864014
1602697241305,716,-0.25927734,-0.15289307,0.91937256
1602697241306,717,-0.25927734,-0.15289307,0.91937256
1602697241309,718,-0.25585938,-0.15118408,0.9225464
1602697241310,719,-0.2565918,-0.15484619,0.92303467
1602697241310,720,-0.2565918,-0.15484619,0.92303467
1602697241310,721,-0.25854492,-0.15093994,0.9159546
1602697241315,722,-0.25805664,-0.15533447,0.9188843
1602697241315,723,-0.25854492,-0.15093994,0.9159546
1602697241315,724,-0.25830078,-0.16168213,0.9179077
1602697241315,725,-0.2578125,-0.15338135,0.91693115
1602697241315,726,-0.25830078,-0.16168213,0.9179077
1602697241316,727,-0.25854492,-0.15289307,0.920105
1602697241316,728,-0.25585938,-0.15142822,0.9208374
1602697241317,729,-0.25585938,-0.15142822,0.9208374
1602697241318,730,-0.25683594,-0.15093994,0.91741943
1602697241319,731,-0.25683594,-0.15093994,0.91741943
1602697241320,732,-0.25830078,-0.14630127,0.92181396
1602697241321,733,-0.25830078,-0.14630127,0.92181396
1602697241324,734,-0.25976562,-0.15020752,0.9213257
1602697241324,735,-0.25927734,-0.15289307,0.91937256
1602697241324,736,-0.25976562,-0.15020752,0.9213257
1602697241325,737,-0.25634766,-0.15362549,0.91693115
1602697241326,738,-0.25634766,-0.15362549,0.91693115
1602697241328,739,-0.25805664,-0.16070557,0.9188843
1602697241329,740,-0.2565918,-0.15484619,0.92303467
1602697241329,741,-0.25805664,-0.16070557,0.9188843
1602697241332,742,-0.2590332,-0.15362549,0.9176636
1602697241332,743,-0.25854492,-0.15093994,0.9159546
1602697241332,744,-0.25683594,-0.1482544,0.91619873
1602697241338,745,-0.25830078,-0.16168213,0.9179077
1602697241338,746,-0.2590332,-0.15362549,0.9176636
1602697241338,747,-0.25756836,-0.15875244,0.9179077
1602697241338,748,-0.25683594,-0.1482544,0.91619873
1602697241339,749,-0.26123047,-0.15484619,0.91693115
1602697241339,750,-0.25585938,-0.15142822,0.9208374
1602697241339,751,-0.2644043,-0.14849854,0.91693115
1602697241339,752,-0.25683594,-0.15093994,0.91741943
1602697241341,753,-0.25756836,-0.15875244,0.9179077
1602697241341,754,-0.26367188,-0.15240479,0.9171753
1602697241341,755,-0.25830078,-0.14630127,0.92181396
1602697241343,756,-0.26123047,-0.15484619,0.91693115
1602697241344,757,-0.25976562,-0.15020752,0.9213257
1602697241345,758,-0.2644043,-0.14849854,0.91693115
1602697241346,759,-0.25634766,-0.15362549,0.91693115
1602697241348,760,-0.26367188,-0.15240479,0.9171753
1602697241348,761,-0.25805664,-0.16070557,0.9188843
1602697241350,762,-0.2590332,-0.15362549,0.9176636
1602697241352,763,-0.25683594,-0.1482544,0.91619873
1602697241353,764,-0.25756836,-0.15875244,0.9179077
1602697241354,765,-0.26123047,-0.15484619,0.91693115
1602697241356,766,-0.2644043,-0.14849854,0.91693115
1602697241357,767,-0.26367188,-0.15240479,0.9171753
1602697243844,768,-0.26391602,-0.15216064,0.916687
1602697243845,769,-0.2590332,-0.1531372,0.91864014
1602697243852,770,-0.26391602,-0.15216064,0.916687
1602697243853,771,-0.26391602,-0.15216064,0.916687
1602697243853,772,-0.25439453,-0.15338135,0.9188843
1602697243854,773,-0.2590332,-0.1531372,0.91864014
1602697243855,774,-0.2590332,-0.1531372,0.91864014
1602697243855,775,-0.25439453,-0.15338135,0.9188843
1602697243862,776,-0.25439453,-0.15338135,0.9188843
1602697243863,777,-0.2602539,-0.15753174,0.91864014
1602697243863,778,-0.2602539,-0.15753174,0.91864014
1602697243864,779,-0.2722168,-0.14996338,0.91326904
1602697243864,780,-0.2602539,-0.15753174,0.91864014
1602697243864,781,-0.26586914,-0.15411377,0.9142456
1602697243866,782,-0.2722168,-0.14996338,0.91326904
1602697243873,783,-0.2553711,-0.15704346,0.91937256
1602697243873,784,-0.2722168,-0.14996338,0.91326904
1602697243873,785,-0.26586914,-0.15411377,0.9142456
1602697243873,786,-0.2602539,-0.15338135,0.92401123
1602697243877,787,-0.26586914,-0.15411377,0.9142456
1602697243877,788,-0.2553711,-0.15704346,0.91937256
1602697243878,789,-0.26391602,-0.14898682,0.91619873
1602697243884,790,-0.2553711,-0.15704346,0.91937256
1602697243885,791,-0.2602539,-0.15338135,0.92401123
1602697243885,792,-0.2668457,-0.14996338,0.9171753
1602697243885,793,-0.26391602,-0.14898682,0.91619873
1602697243886,794,-0.2602539,-0.15338135,0.92401123
1602697243886,795,-0.2619629,-0.15533447,0.91937256
1602697243892,796,-0.2668457,-0.14996338,0.9171753
1602697243892,797,-0.26049805,-0.15411377,0.92108154
1602697243893,798,-0.26391602,-0.14898682,0.91619873
1602697243894,799,-0.2602539,-0.15411377,0.9164429
1602697243895,800,-0.2619629,-0.15533447,0.91937256
1602697243897,801,-0.2668457,-0.14996338,0.9171753
1602697243900,802,-0.26049805,-0.15411377,0.92108154
1602697243900,803,-0.26098633,-0.15411377,0.91741943
1602697243901,804,-0.2619629,-0.15533447,0.91937256
1602697243905,805,-0.2602539,-0.15411377,0.9164429
1602697243905,806,-0.26098633,-0.15386963,0.91741943
1602697243906,807,-0.26049805,-0.15411377,0.92108154
1602697243906,808,-0.26098633,-0.15411377,0.91741943
1602697243911,809,-0.2607422,-0.15167236,0.9196167
1602697243911,810,-0.2602539,-0.15411377,0.9164429
1602697243911,811,-0.26098633,-0.15386963,0.91741943
1602697243914,812,-0.25927734,-0.15264893,0.91986084
1602697243915,813,-0.26098633,-0.15411377,0.91741943
1602697243927,814,-0.2607422,-0.15167236,0.9196167
1602697243927,815,-0.26049805,-0.15533447,0.91986084
1602697243928,816,-0.26098633,-0.15386963,0.91741943
1602697243929,817,-0.25927734,-0.15264893,0.91986084
1602697243929,818,-0.26049805,-0.15533447,0.91986084
1602697243929,819,-0.2607422,-0.15167236,0.9196167
1602697243935,820,-0.25976562,-0.15362549,0.9191284
1602697243935,821,-0.25927734,-0.15264893,0.91986084
1602697243936,822,-0.25976562,-0.15362549,0.9191284
1602697243939,823,-0.26245117,-0.15216064,0.920105
1602697243950,824,-0.26049805,-0.15533447,0.91986084
1602697243950,825,-0.26245117,-0.15216064,0.920105
1602697243951,826,-0.26293945,-0.15045166,0.9164429
1602697243951,827,-0.25976562,-0.15362549,0.9191284
1602697243952,828,-0.26293945,-0.15045166,0.9164429
1602697243953,829,-0.2602539,-0.15240479,0.91864014
1602697243954,830,-0.2614746,-0.15289307,0.91693115
1602697243954,831,-0.26245117,-0.15216064,0.920105
1602697243955,832,-0.2602539,-0.15240479,0.91864014
1602697243955,833,-0.25976562,-0.1494751,0.91741943
1602697243957,834,-0.26293945,-0.15045166,0.9164429
1602697243962,835,-0.26000977,-0.15338135,0.918396
1602697243962,836,-0.2614746,-0.15289307,0.91693115
1602697243962,837,-0.2602539,-0.15240479,0.91864014
1602697243963,838,-0.25976562,-0.1494751,0.91741943
1602697243963,839,-0.25976562,-0.15142822,0.9188843
1602697243963,840,-0.26000977,-0.15338135,0.918396
1602697243965,841,-0.2614746,-0.15289307,0.91693115
1602697243967,842,-0.25976562,-0.15142822,0.9188843
1602697243968,843,-0.25976562,-0.1494751,0.91741943
1602697243968,844,-0.26123047,-0.15142822,0.9215698
1602697243968,845,-0.26123047,-0.15142822,0.9215698
1602697243969,846,-0.26000977,-0.15338135,0.918396
1602697243970,847,-0.26000977,-0.15142822,0.9203491
1602697243974,848,-0.25976562,-0.15142822,0.9188843
1602697243974,849,-0.26000977,-0.15142822,0.9203491
1602697243974,850,-0.26123047,-0.15142822,0.9215698
1602697243975,851,-0.2590332,-0.15289307,0.91937256
1602697243975,852,-0.2590332,-0.15289307,0.91937256
1602697243976,853,-0.26000977,-0.15142822,0.9203491
1602697243978,854,-0.26000977,-0.15240479,0.918396
1602697243979,855,-0.26000977,-0.15240479,0.918396
1602697243979,856,-0.2590332,-0.15289307,0.91937256
1602697243980,857,-0.26000977,-0.15240479,0.918396
1602697243982,858,-0.2578125,-0.15216064,0.91986084
1602697243984,859,-0.2578125,-0.15216064,0.91986084
1602697243984,860,-0.2578125,-0.15216064,0.91986084
1602697243984,861,-0.25854492,-0.15020752,0.9196167
1602697243987,862,-0.25854492,-0.15020752,0.9196167
1602697243987,863,-0.25854492,-0.15020752,0.9196167
1602697246341,864,-0.25585938,-0.14801025,0.9203491
1602697246346,865,-0.25585938,-0.14801025,0.9203491
1602697246347,866,-0.25585938,-0.14801025,0.9203491
1602697246347,867,-0.26000977,-0.15289307,0.9191284
1602697246349,868,-0.2578125,-0.14898682,0.91864014
1602697246351,869,-0.26000977,-0.15289307,0.9191284
1602697246355,870,-0.25830078,-0.15093994,0.91815186
1602697246356,871,-0.26000977,-0.15289307,0.9191284
1602697246356,872,-0.2578125,-0.14898682,0.91864014
1602697246358,873,-0.2578125,-0.14898682,0.91864014
1602697246362,874,-0.25927734,-0.15142822,0.91986084
1602697246363,875,-0.25830078,-0.15093994,0.91815186
1602697246363,876,-0.25830078,-0.15093994,0.91815186
1602697246364,877,-0.25952148,-0.15484619,0.9208374
1602697246366,878,-0.25927734,-0.15142822,0.91986084
1602697246367,879,-0.25927734,-0.15142822,0.91986084
1602697246371,880,-0.2578125,-0.15216064,0.91619873
1602697246372,881,-0.25952148,-0.15484619,0.9208374
1602697246372,882,-0.25952148,-0.15484619,0.9208374
1602697246373,883,-0.25610352,-0.15240479,0.9196167
1602697246375,884,-0.2578125,-0.15216064,0.91619873
1602697246376,885,-0.2578125,-0.15216064,0.91619873
1602697246385,886,-0.2578125,-0.15167236,0.91937256
1602697246386,887,-0.25634766,-0.15118408,0.9203491
1602697246387,888,-0.25610352,-0.15240479,0.9196167
1602697246387,889,-0.2553711,-0.14971924,0.92230225
1602697246388,890,-0.2578125,-0.15167236,0.91937256
1602697246388,891,-0.25390625,-0.14898682,0.9213257
1602697246389,892,-0.25610352,-0.15240479,0.9196167
1602697246393,893,-0.25634766,-0.15118408,0.9203491
1602697246393,894,-0.25976562,-0.1506958,0.91986084
1602697246394,895,-0.2578125,-0.15167236,0.91937256
1602697246401,896,-0.2553711,-0.14971924,0.92230225
1602697246401,897,-0.25927734,-0.15167236,0.9220581
1602697246402,898,-0.25390625,-0.14898682,0.9213257
1602697246402,899,-0.2548828,-0.15240479,0.91937256
1602697246403,900,-0.25976562,-0.1506958,0.91986084
1602697246403,901,-0.25927734,-0.15655518,0.91815186
1602697246404,902,-0.25927734,-0.15167236,0.9220581
1602697246409,903,-0.25634766,-0.15118408,0.9203491
1602697246409,904,-0.25830078,-0.15386963,0.916687
1602697246410,905,-0.2548828,-0.15240479,0.91937256
1602697246410,906,-0.2590332,-0.15093994,0.9179077
1602697246411,907,-0.25927734,-0.15655518,0.91815186
1602697246415,908,-0.2553711,-0.14971924,0.92230225
1602697246416,909,-0.25854492,-0.1519165,0.9196167
1602697246416,910,-0.25390625,-0.14898682,0.9213257
1602697246419,911,-0.25854492,-0.15557861,0.9203491
1602697246420,912,-0.25830078,-0.15386963,0.916687
1602697246420,913,-0.25976562,-0.1506958,0.91986084
1602697246423,914,-0.2619629,-0.1531372,0.92108154
1602697246424,915,-0.2590332,-0.15093994,0.9179077
1602697246424,916,-0.25927734,-0.15167236,0.9220581
1602697246427,917,-0.2614746,-0.15484619,0.9154663
1602697246429,918,-0.2548828,-0.15240479,0.91937256
1602697246429,919,-0.25854492,-0.1519165,0.9196167
1602697246430,920,-0.2607422,-0.15264893,0.91741943
1602697246431,921,-0.25927734,-0.15655518,0.91815186
1602697246432,922,-0.2607422,-0.15216064,0.918396
1602697246436,923,-0.25830078,-0.15386963,0.916687
1602697246436,924,-0.25854492,-0.15557861,0.9203491
1602697246436,925,-0.2607422,-0.15509033,0.9196167
1602697246440,926,-0.2590332,-0.15093994,0.9179077
1602697246440,927,-0.2619629,-0.1531372,0.92108154
1602697246440,928,-0.2590332,-0.1572876,0.918396
1602697246445,929,-0.25854492,-0.1519165,0.9196167
1602697246446,930,-0.2614746,-0.15484619,0.9154663
1602697246446,931,-0.26049805,-0.15167236,0.91864014
1602697246448,932,-0.2607422,-0.15264893,0.91741943
1602697246449,933,-0.2619629,-0.15533447,0.920105
1602697246450,934,-0.25854492,-0.15557861,0.9203491
1602697246454,935,-0.2607422,-0.15216064,0.918396
1602697246454,936,-0.2614746,-0.15460205,0.91619873
1602697246455,937,-0.2607422,-0.15509033,0.9196167
1602697246458,938,-0.26123047,-0.15704346,0.91693115
1602697246458,939,-0.2619629,-0.1531372,0.92108154
1602697246458,940,-0.2590332,-0.1572876,0.918396
1602697246463,941,-0.26123047,-0.15411377,0.916687
1602697246464,942,-0.2614746,-0.15484619,0.9154663
1602697246465,943,-0.26049805,-0.15167236,0.91864014
1602697246465,944,-0.2607422,-0.15264893,0.91741943
1602697246465,945,-0.2631836,-0.15411377,0.91619873
1602697246465,946,-0.2619629,-0.15533447,0.920105
1602697246468,947,-0.2607422,-0.15216064,0.918396
1602697246468,948,-0.2614746,-0.15460205,0.91619873
1602697246470,949,-0.2607422,-0.15509033,0.9196167
1602697246471,950,-0.26123047,-0.15704346,0.91693115
1602697246472,951,-0.2590332,-0.1572876,0.918396
1602697246473,952,-0.26123047,-0.15411377,0.916687
1602697246474,953,-0.26049805,-0.15167236,0.91864014
1602697246475,954,-0.2631836,-0.15411377,0.91619873
1602697246475,955,-0.2619629,-0.15533447,0.920105
1602697246476,956,-0.2614746,-0.15460205,0.91619873
1602697246479,957,-0.26123047,-0.15704346,0.91693115
1602697246480,958,-0.26123047,-0.15411377,0.916687
1602697246481,959,-0.2631836,-0.15411377,0.91619873
1602697248845,960,-0.2614746,-0.15386963,0.9176636
1602697248861,961,-0.2614746,-0.15386963,0.9176636
1602697248862,962,-0.2614746,-0.15386963,0.9176636
1602697248862,963,-0.2602539,-0.1560669,0.91864014
1602697248863,964,-0.2602539,-0.1560669,0.91864014
1602697248864,965,-0.2602539,-0.1560669,0.91864014
1602697248864,966,-0.26171875,-0.15240479,0.9191284
1602697248865,967,-0.26171875,-0.15240479,0.9191284
1602697248866,968,-0.26123047,-0.15338135,0.9203491
1602697248866,969,-0.26171875,-0.15240479,0.9191284
1602697248867,970,-0.26123047,-0.15338135,0.9203491
1602697248873,971,-0.26123047,-0.15435791,0.9176636
1602697248874,972,-0.26123047,-0.15338135,0.9203491
1602697248874,973,-0.26123047,-0.15435791,0.9176636
1602697248874,974,-0.26123047,-0.15435791,0.9176636
1602697248875,975,-0.25952148,-0.15411377,0.9196167
1602697248878,976,-0.25952148,-0.15411377,0.9196167
1602697248878,977,-0.25952148,-0.15411377,0.9196167
1602697248884,978,-0.2619629,-0.15460205,0.91741943
1602697248884,979,-0.2619629,-0.15460205,0.91741943
1602697248885,980,-0.2619629,-0.15460205,0.91741943
1602697248885,981,-0.26220703,-0.15460205,0.91571045
1602697248885,982,-0.26220703,-0.15460205,0.91571045
1602697248887,983,-0.26220703,-0.15460205,0.91571045
1602697248889,984,-0.26220703,-0.15289307,0.918396
1602697248896,985,-0.26220703,-0.15289307,0.918396
1602697248897,986,-0.26220703,-0.15289307,0.918396
1602697248898,987,-0.2619629,-0.15386963,0.9176636
1602697248898,988,-0.2619629,-0.15386963,0.9176636
1602697248899,989,-0.2619629,-0.15386963,0.9176636
1602697248899,990,-0.26098633,-0.15264893,0.9171753
1602697248909,991,-0.26098633,-0.15264893,0.9171753
1602697248910,992,-0.26098633,-0.15264893,0.9171753
1602697248910,993,-0.25830078,-0.15045166,0.9191284
1602697248911,994,-0.25830078,-0.15045166,0.9191284
1602697248911,995,-0.26049805,-0.15264893,0.920105
1602697248912,996,-0.25830078,-0.15045166,0.9191284
1602697248912,997,-0.26049805,-0.15264893,0.920105
1602697248912,998,-0.26049805,-0.15264893,0.920105
1602697248913,999,-0.25878906,-0.15338135,0.91741943
1602697248913,1000,-0.25878906,-0.15338135,0.91741943
1602697248917,1001,-0.25878906,-0.15338135,0.91741943
1602697248918,1002,-0.25756836,-0.15264893,0.9203491
1602697248918,1003,-0.25756836,-0.15264893,0.9203491
1602697248922,1004,-0.25756836,-0.15264893,0.9203491
1602697248923,1005,-0.25854492,-0.1531372,0.91815186
1602697248924,1006,-0.25854492,-0.1531372,0.91815186
1602697248924,1007,-0.25854492,-0.1531372,0.91815186
1602697248928,1008,-0.2565918,-0.15557861,0.92108154
1602697248928,1009,-0.2565918,-0.15557861,0.92108154
1602697248929,1010,-0.2565918,-0.15557861,0.92108154
1602697248931,1011,-0.25878906,-0.15216064,0.91619873
1602697248949,1012,-0.25878906,-0.15216064,0.91619873
1602697248949,1013,-0.25878906,-0.15216064,0.91619873
1602697248950,1014,-0.2565918,-0.15216064,0.9208374
1602697248950,1015,-0.2565918,-0.15216064,0.9208374
1602697248951,1016,-0.25634766,-0.15118408,0.920105
1602697248951,1017,-0.2565918,-0.15216064,0.9208374
1602697248951,1018,-0.25634766,-0.15118408,0.920105
1602697248954,1019,-0.25634766,-0.15118408,0.920105
1602697248954,1020,-0.2565918,-0.1482544,0.9191284
1602697248954,1021,-0.2565918,-0.1482544,0.9191284
1602697248955,1022,-0.25683594,-0.1506958,0.918396
1602697248955,1023,-0.2565918,-0.1482544,0.9191284
1602697248955,1024,-0.25634766,-0.15118408,0.9196167
1602697248955,1025,-0.25683594,-0.1506958,0.918396
1602697248955,1026,-0.25683594,-0.1506958,0.918396
1602697248957,1027,-0.25634766,-0.15118408,0.9196167
1602697248959,1028,-0.25634766,-0.15118408,0.9196167
1602697248961,1029,-0.2565918,-0.15118408,0.9179077
1602697248962,1030,-0.2565918,-0.15118408,0.9179077
1602697248963,1031,-0.2565918,-0.15118408,0.9179077
1602697248965,1032,-0.2590332,-0.15264893,0.918396
1602697248968,1033,-0.2565918,-0.15411377,0.92059326
1602697248968,1034,-0.2590332,-0.15264893,0.918396
1602697248974,1035,-0.25927734,-0.15411377,0.9179077
1602697248975,1036,-0.2590332,-0.15264893,0.918396
1602697248975,1037,-0.2565918,-0.15411377,0.92059326
1602697248975,1038,-0.2607422,-0.15386963,0.9213257
1602697248976,1039,-0.2565918,-0.15411377,0.92059326
1602697248977,1040,-0.25683594,-0.15338135,0.9191284
1602697248979,1041,-0.25927734,-0.15411377,0.9179077
1602697248980,1042,-0.26000977,-0.15362549,0.918396
1602697248982,1043,-0.2607422,-0.15386963,0.9213257
1602697248986,1044,-0.25854492,-0.15362549,0.91937256
1602697248988,1045,-0.25927734,-0.15411377,0.9179077
1602697248988,1046,-0.25683594,-0.15338135,0.9191284
1602697248988,1047,-0.2607422,-0.15386963,0.9213257
1602697248989,1048,-0.26000977,-0.15362549,0.918396
1602697248989,1049,-0.25708008,-0.15264893,0.9171753
1602697248995,1050,-0.25683594,-0.15338135,0.9191284
1602697248995,1051,-0.25854492,-0.15362549,0.91937256
1602697248997,1052,-0.26000977,-0.15362549,0.918396
1602697248997,1053,-0.25854492,-0.15362549,0.91937256
1602697248997,1054,-0.25708008,-0.15264893,0.9171753
1602697248998,1055,-0.25708008,-0.15264893,0.9171753
1602697251546,1056,-0.25976562,-0.15240479,0.9213257
1602697251548,1057,-0.25976562,-0.15240479,0.9213257
1602697251551,1058,-0.25976562,-0.15240479,0.9213257
1602697251555,1059,-0.26098633,-0.15557861,0.91937256
1602697251555,1060,-0.26098633,-0.15557861,0.91937256
1602697251560,1061,-0.26342773,-0.15460205,0.9164429
1602697251561,1062,-0.26098633,-0.15557861,0.91937256
1602697251561,1063,-0.26342773,-0.15460205,0.9164429
1602697251562,1064,-0.26342773,-0.15460205,0.9164429
1602697251562,1065,-0.26171875,-0.15386963,0.9179077
1602697251565,1066,-0.26171875,-0.15386963,0.9179077
1602697251566,1067,-0.26171875,-0.15386963,0.9179077
1602697251566,1068,-0.25854492,-0.15557861,0.9176636
1602697251576,1069,-0.25854492,-0.15557861,0.9176636
1602697251576,1070,-0.25854492,-0.15557861,0.9176636
1602697251578,1071,-0.26000977,-0.15167236,0.9164429
1602697251578,1072,-0.26000977,-0.15167236,0.9164429
1602697251579,1073,-0.26000977,-0.15167236,0.9164429
1602697251579,1074,-0.25927734,-0.15557861,0.9176636
1602697251580,1075,-0.25927734,-0.15557861,0.9176636
1602697251580,1076,-0.25927734,-0.15557861,0.9176636
1602697251580,1077,-0.25878906,-0.15557861,0.9191284
1602697251581,1078,-0.25878906,-0.15557861,0.9191284
1602697251583,1079,-0.25878906,-0.15557861,0.9191284
1602697251593,1080,-0.2631836,-0.15240479,0.9171753
1602697251594,1081,-0.2631836,-0.15240479,0.9171753
1602697251594,1082,-0.2631836,-0.15240479,0.9171753
1602697251595,1083,-0.2631836,-0.15289307,0.9191284
1602697251595,1084,-0.2631836,-0.15289307,0.9191284
1602697251596,1085,-0.2631836,-0.15289307,0.9191284
1602697251596,1086,-0.2631836,-0.15216064,0.91815186
1602697251597,1087,-0.2631836,-0.15216064,0.91815186
1602697251597,1088,-0.26293945,-0.15142822,0.91815186
1602697251598,1089,-0.2631836,-0.15216064,0.91815186
1602697251598,1090,-0.26123047,-0.15484619,0.9179077
1602697251608,1091,-0.26293945,-0.15142822,0.91815186
1602697251608,1092,-0.26293945,-0.15142822,0.91815186
1602697251609,1093,-0.2631836,-0.15362549,0.91937256
1602697251609,1094,-0.26123047,-0.15484619,0.9179077
1602697251610,1095,-0.2626953,-0.1506958,0.9164429
1602697251610,1096,-0.26123047,-0.15484619,0.9179077
1602697251610,1097,-0.2631836,-0.15362549,0.91937256
1602697251611,1098,-0.2631836,-0.15362549,0.91937256
1602697251611,1099,-0.26000977,-0.15460205,0.9188843
1602697251617,1100,-0.2626953,-0.1506958,0.9164429
1602697251618,1101,-0.2626953,-0.1506958,0.9164429
1602697251618,1102,-0.26049805,-0.1519165,0.92059326
1602697251619,1103,-0.26000977,-0.15460205,0.9188843
1602697251619,1104,-0.25976562,-0.15289307,0.9164429
1602697251624,1105,-0.26049805,-0.1519165,0.92059326
1602697251624,1106,-0.26000977,-0.15460205,0.9188843
1602697251625,1107,-0.2607422,-0.15338135,0.9196167
1602697251625,1108,-0.25976562,-0.15289307,0.9164429
1602697251631,1109,-0.25732422,-0.15386963,0.92059326
1602697251632,1110,-0.26049805,-0.1519165,0.92059326
1602697251632,1111,-0.2607422,-0.15338135,0.9196167
1602697251633,1112,-0.2607422,-0.15142822,0.91986084
1602697251633,1113,-0.25732422,-0.15386963,0.92059326
1602697251634,1114,-0.25976562,-0.15289307,0.9164429
1602697251639,1115,-0.2590332,-0.1531372,0.91937256
1602697251639,1116,-0.2607422,-0.15142822,0.91986084
1602697251640,1117,-0.2607422,-0.15338135,0.9196167
1602697251640,1118,-0.2590332,-0.1531372,0.91937256
1602697251641,1119,-0.25732422,-0.15386963,0.92059326
1602697251651,1120,-0.2590332,-0.1506958,0.92230225
1602697251652,1121,-0.2590332,-0.1506958,0.92230225
1602697251652,1122,-0.2607422,-0.15142822,0.91986084
1602697251653,1123,-0.25610352,-0.14801025,0.91741943
1602697251653,1124,-0.2590332,-0.1531372,0.91937256
1602697251654,1125,-0.25610352,-0.14801025,0.91741943
1602697251654,1126,-0.2590332,-0.1506958,0.92230225
1602697251655,1127,-0.25634766,-0.15093994,0.918396
1602697251655,1128,-0.25634766,-0.15093994,0.918396
1602697251656,1129,-0.25610352,-0.14801025,0.91741943
1602697251667,1130,-0.25634766,-0.1519165,0.91937256
1602697251668,1131,-0.25634766,-0.1519165,0.91937256
1602697251669,1132,-0.25634766,-0.15093994,0.918396
1602697251669,1133,-0.25634766,-0.1519165,0.91937256
1602697251669,1134,-0.2590332,-0.15093994,0.9191284
1602697251670,1135,-0.2590332,-0.15093994,0.9191284
1602697251670,1136,-0.25732422,-0.15386963,0.9203491
1602697251671,1137,-0.25732422,-0.15386963,0.9203491
1602697251671,1138,-0.2590332,-0.15093994,0.9191284
1602697251672,1139,-0.25732422,-0.15142822,0.92108154
1602697251672,1140,-0.25732422,-0.15142822,0.92108154
1602697251679,1141,-0.25732422,-0.15386963,0.9203491
1602697251680,1142,-0.2548828,-0.15093994,0.91815186
1602697251680,1143,-0.25732422,-0.15142822,0.92108154
1602697251681,1144,-0.2565918,-0.15167236,0.91937256
1602697251681,1145,-0.2548828,-0.15093994,0.91815186
1602697251682,1146,-0.2548828,-0.15093994,0.91815186
1602697251684,1147,-0.2548828,-0.15045166,0.9188843
1602697251687,1148,-0.2565918,-0.15167236,0.91937256
1602697251688,1149,-0.2565918,-0.15167236,0.91937256
1602697251690,1150,-0.2548828,-0.15045166,0.9188843
1602697251694,1151,-0.2548828,-0.15045166,0.9188843
