# Sensor position: Chest
# Sensor side: Left
# Activity type: Running
# Activity code: 11
# Subject id: s1758499
timestamp,seq,accel_x,accel_y,accel_z
1602702824449,0,-0.08178711,0.94647217,0.08099365
1602702824459,1,-0.08178711,0.94647217,0.08099365
1602702824459,2,-0.08178711,0.94647217,0.08099365
1602702824460,3,-0.07543945,0.94866943,0.082458496
1602702824460,4,-0.07543945,0.94866943,0.082458496
1602702824461,5,-0.07543945,0.94866943,0.082458496
1602702824461,6,-0.0769043,0.94696045,0.0836792
1602702824465,7,-0.0769043,0.94696045,0.0836792
1602702824469,8,-0.0793457,0.946228,0.074401855
1602702824470,9,-0.0769043,0.94696045,0.0836792
1602702824471,10,-0.0793457,0.946228,0.074401855
1602702824490,11,-0.07763672,0.9454956,0.08392334
1602702824490,12,-0.0793457,0.946228,0.074401855
1602702824491,13,-0.07763672,0.9454956,0.08392334
1602702824491,14,-0.08105469,0.9450073,0.07611084
1602702824503,15,-0.08105469,0.9450073,0.07611084
1602702824504,16,-0.07763672,0.9454956,0.08392334
1602702824504,17,-0.06225586,0.94158936,0.086120605
1602702824505,18,-0.08105469,0.9450073,0.07611084
1602702824505,19,-0.06225586,0.94158936,0.086120605
1602702824506,20,-0.06225586,0.94158936,0.086120605
1602702824506,21,-0.07763672,0.94158936,0.081726074
1602702824507,22,-0.07763672,0.94158936,0.081726074
1602702824519,23,-0.11352539,0.93084717,0.031677246
1602702824519,24,-0.07763672,0.94158936,0.081726074
1602702824520,25,-0.11352539,0.93084717,0.031677246
1602702824520,26,-0.061523438,0.92303467,-0.008850098
1602702824521,27,-0.061523438,0.92303467,-0.008850098
1602702824521,28,-0.10595703,0.9677124,-0.03765869
1602702824523,29,-0.10595703,0.9677124,-0.03765869
1602702824523,30,-0.11352539,0.93084717,0.031677246
1602702824523,31,-0.10522461,0.94451904,-0.013977051
1602702824526,32,-0.10522461,0.94451904,-0.013977051
1602702824530,33,-0.109375,0.94207764,-0.053527832
1602702824531,34,-0.061523438,0.92303467,-0.008850098
1602702824532,35,-0.109375,0.94207764,-0.053527832
1602702824539,36,-0.2446289,0.8942261,0.04925537
1602702824539,37,-0.10595703,0.9677124,-0.03765869
1602702824540,38,-0.2446289,0.8942261,0.04925537
1602702824542,39,-0.25195312,0.9640503,0.043884277
1602702824543,40,-0.25195312,0.9640503,0.043884277
1602702824544,41,-0.10522461,0.94451904,-0.013977051
1602702824554,42,-0.26098633,0.96209717,0.014587402
1602702824556,43,-0.26098633,0.96209717,0.014587402
1602702824556,44,-0.109375,0.94207764,-0.053527832
1602702824557,45,-0.2709961,0.8619995,-0.0020141602
1602702824559,46,-0.2709961,0.8619995,-0.0020141602
1602702824563,47,-0.2446289,0.8942261,0.04925537
1602702824563,48,-0.2849121,0.84539795,-0.039123535
1602702824563,49,-0.2849121,0.84539795,-0.039123535
1602702824565,50,-0.25195312,0.9640503,0.043884277
1602702824566,51,-0.26513672,0.91986084,-0.035217285
1602702824570,52,-0.26098633,0.96209717,0.014587402
1602702824570,53,-0.26513672,0.91986084,-0.035217285
1602702824570,54,-0.27807617,0.9718628,-0.014953613
1602702824577,55,-0.2709961,0.8619995,-0.0020141602
1602702824578,56,-0.27807617,0.9718628,-0.014953613
1602702824578,57,-0.2626953,1.0372925,0.043884277
1602702824579,58,-0.2626953,1.0372925,0.043884277
1602702824579,59,-0.2849121,0.84539795,-0.039123535
1602702824579,60,-0.27954102,0.88397217,-0.26983643
1602702824579,61,-0.27954102,0.88397217,-0.26983643
1602702824583,62,-0.26513672,0.91986084,-0.035217285
1602702824584,63,-0.17407227,0.92718506,-0.39874268
1602702824584,64,-0.17407227,0.92718506,-0.39874268
1602702824584,65,-0.27807617,0.9718628,-0.014953613
1602702824586,66,-0.24975586,1.604187,-0.22784424
1602702824587,67,-0.2626953,1.0372925,0.043884277
1602702824590,68,-0.25927734,1.3478394,-0.25372314
1602702824591,69,-0.24975586,1.604187,-0.22784424
1602702824591,70,-0.27954102,0.88397217,-0.26983643
1602702824594,71,-0.35766602,0.46697998,-0.26153564
1602702824598,72,-0.17407227,0.92718506,-0.39874268
1602702824599,73,-0.014160156,-0.24395752,-0.28497314
1602702824599,74,-0.25927734,1.3478394,-0.25372314
1602702824600,75,-0.24975586,1.604187,-0.22784424
1602702824600,76,-0.513916,1.7289429,-0.19537354
1602702824600,77,-0.35766602,0.46697998,-0.26153564
1602702824604,78,-0.25927734,1.3478394,-0.25372314
1602702824604,79,-0.4638672,1.5175171,-0.1531372
1602702824605,80,-0.014160156,-0.24395752,-0.28497314
1602702824606,81,-0.35766602,0.46697998,-0.26153564
1602702824609,82,-0.513916,1.7289429,-0.19537354
1602702824610,83,-0.4111328,1.0326538,0.039001465
1602702824610,84,-0.014160156,-0.24395752,-0.28497314
1602702824617,85,-0.4638672,1.5175171,-0.1531372
1602702824618,86,0.26367188,-0.30621338,-0.19146729
1602702824618,87,-0.513916,1.7289429,-0.19537354
1602702824618,88,-0.4111328,1.0326538,0.039001465
1602702824619,89,-0.23120117,0.8041382,-0.27398682
1602702824619,90,0.26367188,-0.30621338,-0.19146729
1602702824619,91,-0.4638672,1.5175171,-0.1531372
1602702824622,92,-0.23120117,0.8041382,-0.27398682
1602702824623,93,-0.4111328,1.0326538,0.039001465
1602702824625,94,0.26367188,-0.30621338,-0.19146729
1602702824628,95,-0.23120117,0.8041382,-0.27398682
1602702827047,96,-0.2434082,1.9721069,-0.11602783
1602702827058,97,-0.2434082,1.9721069,-0.11602783
1602702827059,98,-0.2434082,1.9721069,-0.11602783
1602702827059,99,-0.31518555,1.251648,-0.24713135
1602702827060,100,-0.31518555,1.251648,-0.24713135
1602702827060,101,-0.31518555,1.251648,-0.24713135
1602702827061,102,-0.26367188,0.387146,-0.20465088
1602702827061,103,-0.26367188,0.387146,-0.20465088
1602702827078,104,-0.11425781,-0.30596924,-0.21099854
1602702827079,105,-0.11425781,-0.30596924,-0.21099854
1602702827079,106,-0.26367188,0.387146,-0.20465088
1602702827080,107,-0.8317871,1.999939,-0.09576416
1602702827081,108,-0.8317871,1.999939,-0.09576416
1602702827081,109,-0.11425781,-0.30596924,-0.21099854
1602702827082,110,-0.2590332,1.3317261,-0.093811035
1602702827082,111,-0.2590332,1.3317261,-0.093811035
1602702827083,112,-0.8317871,1.999939,-0.09576416
1602702827084,113,-0.2590332,1.3317261,-0.093811035
1602702827084,114,-0.2355957,0.6869507,0.032409668
1602702827096,115,-0.2355957,0.6869507,0.032409668
1602702827097,116,-0.2355957,0.6869507,0.032409668
1602702827098,117,0.114746094,-0.46295166,-0.25860596
1602702827098,118,0.114746094,-0.46295166,-0.25860596
1602702827099,119,0.114746094,-0.46295166,-0.25860596
1602702827099,120,-0.234375,1.999939,-0.11383057
1602702827099,121,-0.234375,1.999939,-0.11383057
1602702827101,122,-0.234375,1.999939,-0.11383057
1602702827110,123,-0.14672852,1.5026245,-0.21783447
1602702827110,124,-0.14672852,1.5026245,-0.21783447
1602702827111,125,-0.14672852,1.5026245,-0.21783447
1602702827111,126,-0.2763672,0.90545654,-0.12188721
1602702827111,127,-0.2763672,0.90545654,-0.12188721
1602702827112,128,-0.1574707,-0.36114502,-0.22662354
1602702827112,129,-0.1574707,-0.36114502,-0.22662354
1602702827113,130,-0.37719727,1.3373413,-0.2913208
1602702827113,131,-0.37719727,1.3373413,-0.2913208
1602702827113,132,-0.2763672,0.90545654,-0.12188721
1602702827120,133,-0.5842285,1.5946655,-0.2000122
1602702827120,134,-0.5842285,1.5946655,-0.2000122
1602702827120,135,-0.1574707,-0.36114502,-0.22662354
1602702827121,136,-0.34472656,1.0116577,0.086364746
1602702827121,137,-0.34472656,1.0116577,0.086364746
1602702827121,138,-0.37719727,1.3373413,-0.2913208
1602702827125,139,0.06274414,-0.11651611,-0.19049072
1602702827125,140,0.06274414,-0.11651611,-0.19049072
1602702827126,141,-0.013671875,1.0004272,-0.31744385
1602702827127,142,-0.013671875,1.0004272,-0.31744385
1602702827129,143,-0.31835938,1.9035034,-0.07867432
1602702827133,144,-0.31835938,1.9035034,-0.07867432
1602702827133,145,-0.5842285,1.5946655,-0.2000122
1602702827133,146,-0.35229492,1.2350464,-0.20074463
1602702827133,147,-0.35229492,1.2350464,-0.20074463
1602702827140,148,-0.34472656,1.0116577,0.086364746
1602702827152,149,-0.13330078,0.17449951,-0.17510986
1602702827152,150,0.06274414,-0.11651611,-0.19049072
1602702827152,151,-0.12646484,-0.2979126,-0.27886963
1602702827153,152,-0.13330078,0.17449951,-0.17510986
1602702827153,153,-0.8144531,1.999939,-0.23101807
1602702827153,154,-0.013671875,1.0004272,-0.31744385
1602702827154,155,-0.12646484,-0.2979126,-0.27886963
1602702827154,156,-0.099365234,1.2042847,-0.18170166
1602702827157,157,-0.31835938,1.9035034,-0.07867432
1602702827158,158,-0.8144531,1.999939,-0.23101807
1602702827158,159,-0.35229492,1.2350464,-0.20074463
1602702827160,160,0.009765625,0.61224365,0.019226074
1602702827161,161,-0.13330078,0.17449951,-0.17510986
1602702827165,162,-0.04711914,-0.47735596,-0.17486572
1602702827165,163,-0.099365234,1.2042847,-0.18170166
1602702827165,164,-0.2097168,1.999939,-0.14141846
1602702827166,165,-0.12646484,-0.2979126,-0.27886963
1602702827166,166,0.009765625,0.61224365,0.019226074
1602702827166,167,-0.8144531,1.999939,-0.23101807
1602702827168,168,-0.04711914,-0.47735596,-0.17486572
1602702827169,169,-0.099365234,1.2042847,-0.18170166
1602702827171,170,-0.2097168,1.999939,-0.14141846
1602702827171,171,-0.08203125,1.364685,-0.09625244
1602702827171,172,0.009765625,0.61224365,0.019226074
1602702827176,173,-0.23364258,0.6911011,-0.124572754
1602702827177,174,-0.08203125,1.364685,-0.09625244
1602702827177,175,-0.04711914,-0.47735596,-0.17486572
1602702827178,176,0.09448242,-0.48223877,-0.22930908
1602702827181,177,-0.2097168,1.999939,-0.14141846
1602702827181,178,-0.79003906,1.9347534,-0.086242676
1602702827182,179,-0.23364258,0.6911011,-0.124572754
1602702827182,180,-0.08203125,1.364685,-0.09625244
1602702827182,181,0.012939453,1.4616089,-0.057678223
1602702827183,182,-0.23364258,0.6911011,-0.124572754
1602702827185,183,-0.24658203,1.032898,0.046325684
1602702827186,184,0.09448242,-0.48223877,-0.22930908
1602702827189,185,0.09448242,-0.48223877,-0.22930908
1602702827189,186,-0.79003906,1.9347534,-0.086242676
1602702827190,187,-0.79003906,1.9347534,-0.086242676
1602702827191,188,0.012939453,1.4616089,-0.057678223
1602702827192,189,0.012939453,1.4616089,-0.057678223
1602702827194,190,-0.24658203,1.032898,0.046325684
1602702827194,191,-0.24658203,1.032898,0.046325684
1602702829554,192,0.24682617,-0.14361572,-0.093811035
1602702829555,193,0.24682617,-0.14361572,-0.093811035
1602702829556,194,0.24682617,-0.14361572,-0.093811035
1602702829557,195,0.0847168,1.1015015,-0.31427002
1602702829571,196,0.0847168,1.1015015,-0.31427002
1602702829571,197,-0.119140625,1.7120972,-0.15045166
1602702829571,198,0.0847168,1.1015015,-0.31427002
1602702829572,199,-0.017578125,1.177185,-0.15704346
1602702829573,200,-0.119140625,1.7120972,-0.15045166
1602702829573,201,-0.119140625,1.7120972,-0.15045166
1602702829573,202,-0.017578125,1.177185,-0.15704346
1602702829574,203,-0.18188477,0.25335693,-0.12554932
1602702829574,204,-0.017578125,1.177185,-0.15704346
1602702829575,205,-0.056640625,0.32000732,-0.35064697
1602702829580,206,-0.18188477,0.25335693,-0.12554932
1602702829580,207,-0.18188477,0.25335693,-0.12554932
1602702829581,208,-0.4338379,1.999939,0.08343506
1602702829584,209,-0.056640625,0.32000732,-0.35064697
1602702829585,210,-0.056640625,0.32000732,-0.35064697
1602702829586,211,0.13623047,1.045105,-0.043518066
1602702829586,212,-0.4338379,1.999939,0.08343506
1602702829589,213,-0.04321289,0.699646,0.03314209
1602702829589,214,-0.4338379,1.999939,0.08343506
1602702829590,215,0.048828125,-0.0095825195,-0.26080322
1602702829595,216,0.13623047,1.045105,-0.043518066
1602702829596,217,0.13623047,1.045105,-0.043518066
1602702829596,218,-0.030761719,1.999939,-0.16241455
1602702829596,219,-0.04321289,0.699646,0.03314209
1602702829597,220,-0.04321289,0.699646,0.03314209
1602702829600,221,0.048828125,-0.0095825195,-0.26080322
1602702829600,222,0.09301758,1.0455933,-0.093322754
1602702829600,223,0.048828125,-0.0095825195,-0.26080322
1602702829603,224,-0.030761719,1.999939,-0.16241455
1602702829603,225,-0.036621094,0.8241577,-0.1741333
1602702829603,226,-0.030761719,1.999939,-0.16241455
1602702829605,227,0.09301758,1.0455933,-0.093322754
1602702829606,228,0.09301758,1.0455933,-0.093322754
1602702829610,229,-0.38623047,0.2164917,-0.13092041
1602702829610,230,-0.036621094,0.8241577,-0.1741333
1602702829610,231,-0.036621094,0.8241577,-0.1741333
1602702829610,232,-0.38623047,0.2164917,-0.13092041
1602702829611,233,-0.38623047,0.2164917,-0.13092041
1602702829613,234,-0.20288086,1.6298218,-0.12384033
1602702829614,235,-0.20288086,1.6298218,-0.12384033
1602702829614,236,-0.20288086,1.6298218,-0.12384033
1602702829615,237,-0.078125,1.2474976,-0.07647705
1602702829616,238,-0.078125,1.2474976,-0.07647705
1602702829617,239,-0.17919922,0.8759155,0.0692749
1602702829622,240,-0.17919922,0.8759155,0.0692749
1602702829623,241,-0.078125,1.2474976,-0.07647705
1602702829623,242,0.039794922,0.08441162,-0.22564697
1602702829623,243,0.039794922,0.08441162,-0.22564697
1602702829623,244,-0.17919922,0.8759155,0.0692749
1602702829624,245,0.24682617,1.2560425,-0.3171997
1602702829624,246,0.24682617,1.2560425,-0.3171997
1602702829624,247,-0.111328125,1.6688843,-0.13067627
1602702829625,248,0.039794922,0.08441162,-0.22564697
1602702829627,249,0.021728516,1.0180054,-0.23956299
1602702829630,250,0.24682617,1.2560425,-0.3171997
1602702829631,251,-0.111328125,1.6688843,-0.13067627
1602702829631,252,-0.21704102,0.53167725,-0.14263916
1602702829633,253,-0.111328125,1.6688843,-0.13067627
1602702829635,254,0.021728516,1.0180054,-0.23956299
1602702829636,255,0.021728516,1.0180054,-0.23956299
1602702829636,256,-0.20727539,0.3451538,-0.097961426
1602702829639,257,-0.21704102,0.53167725,-0.14263916
1602702829639,258,-0.21704102,0.53167725,-0.14263916
1602702829639,259,-0.18530273,1.6747437,-0.18218994
1602702829640,260,-0.20727539,0.3451538,-0.097961426
1602702829641,261,-0.30322266,1.4298706,0.030700684
1602702829643,262,-0.18530273,1.6747437,-0.18218994
1602702829643,263,-0.20727539,0.3451538,-0.097961426
1602702829645,264,-0.103515625,0.96551514,-0.08721924
1602702829646,265,-0.30322266,1.4298706,0.030700684
1602702829646,266,-0.18530273,1.6747437,-0.18218994
1602702829647,267,-0.13305664,0.54241943,-0.14117432
1602702829649,268,-0.103515625,0.96551514,-0.08721924
1602702829649,269,-0.30322266,1.4298706,0.030700684
1602702829650,270,-0.13305664,0.54241943,-0.14117432
1602702829651,271,0.01977539,0.16009521,-0.22369385
1602702829652,272,0.01977539,0.16009521,-0.22369385
1602702829655,273,-0.3293457,1.3729858,-0.20758057
1602702829655,274,-0.103515625,0.96551514,-0.08721924
1602702829655,275,-0.3293457,1.3729858,-0.20758057
1602702829657,276,-0.052734375,1.5289917,0.07196045
1602702829657,277,-0.13305664,0.54241943,-0.14117432
1602702829657,278,-0.052734375,1.5289917,0.07196045
1602702829660,279,-0.06298828,1.0656128,-0.2852173
1602702829660,280,0.01977539,0.16009521,-0.22369385
1602702829660,281,-0.06298828,1.0656128,-0.2852173
1602702829662,282,-0.2536621,0.6869507,-0.17974854
1602702829663,283,-0.2536621,0.6869507,-0.17974854
1602702829665,284,-0.3293457,1.3729858,-0.20758057
1602702829666,285,-0.052734375,1.5289917,0.07196045
1602702829668,286,-0.06298828,1.0656128,-0.2852173
1602702829669,287,-0.2536621,0.6869507,-0.17974854
1602702832045,288,-0.21264648,0.2741089,-0.27716064
1602702832045,289,-0.21264648,0.2741089,-0.27716064
1602702832046,290,-0.21264648,0.2741089,-0.27716064
1602702832047,291,-0.5402832,1.6815796,-0.29229736
1602702832049,292,-0.4260254,1.4191284,-0.11529541
1602702832055,293,-0.5402832,1.6815796,-0.29229736
1602702832056,294,-0.5402832,1.6815796,-0.29229736
1602702832056,295,-0.4260254,1.4191284,-0.11529541
1602702832056,296,-0.4260254,1.4191284,-0.11529541
1602702832056,297,-0.19604492,1.0202026,-0.074035645
1602702832056,298,-0.19604492,1.0202026,-0.074035645
1602702832056,299,-0.035888672,0.32073975,-0.053771973
1602702832059,300,-0.19604492,1.0202026,-0.074035645
1602702832060,301,-0.035888672,0.32073975,-0.053771973
1602702832060,302,-0.015136719,0.17913818,-0.3735962
1602702832070,303,-0.035888672,0.32073975,-0.053771973
1602702832072,304,-0.015136719,0.17913818,-0.3735962
1602702832072,305,-0.32348633,1.6754761,-0.26617432
1602702832072,306,-0.015136719,0.17913818,-0.3735962
1602702832072,307,-0.32348633,1.6754761,-0.26617432
1602702832072,308,-0.32348633,1.6754761,-0.26617432
1602702832073,309,-0.24487305,1.5255737,-0.15753174
1602702832073,310,-0.17993164,0.87493896,-0.2131958
1602702832073,311,-0.24487305,1.5255737,-0.15753174
1602702832074,312,-0.24487305,1.5255737,-0.15753174
1602702832074,313,-0.3154297,-0.117492676,-0.18829346
1602702832074,314,-0.17993164,0.87493896,-0.2131958
1602702832075,315,-0.3305664,1.1085815,-0.32037354
1602702832075,316,-0.17993164,0.87493896,-0.2131958
1602702832078,317,-0.4350586,1.6217651,-0.1375122
1602702832079,318,-0.3154297,-0.117492676,-0.18829346
1602702832079,319,-0.3154297,-0.117492676,-0.18829346
1602702832082,320,-0.3305664,1.1085815,-0.32037354
1602702832082,321,-0.3305664,1.1085815,-0.32037354
1602702832082,322,-0.4350586,1.6217651,-0.1375122
1602702832083,323,-0.4350586,1.6217651,-0.1375122
1602702832087,324,-0.2788086,1.1669312,0.0021362305
1602702832087,325,-0.2788086,1.1669312,0.0021362305
1602702832088,326,-0.2788086,1.1669312,0.0021362305
1602702832088,327,0.051513672,0.18304443,-0.07940674
1602702832090,328,0.051513672,0.18304443,-0.07940674
1602702832091,329,0.051513672,0.18304443,-0.07940674
1602702832091,330,0.022216797,0.27581787,-0.333313
1602702832094,331,0.022216797,0.27581787,-0.333313
1602702832094,332,0.022216797,0.27581787,-0.333313
1602702832095,333,-0.34692383,1.999939,-0.18609619
1602702832097,334,-0.34692383,1.999939,-0.18609619
1602702832098,335,-0.34692383,1.999939,-0.18609619
1602702832098,336,-0.3798828,1.2545776,-0.117248535
1602702832101,337,-0.3798828,1.2545776,-0.117248535
1602702832101,338,-0.3798828,1.2545776,-0.117248535
1602702832102,339,-0.25927734,0.5494995,-0.12896729
1602702832103,340,-0.25927734,0.5494995,-0.12896729
1602702832104,341,-0.25927734,0.5494995,-0.12896729
1602702832104,342,-0.16503906,-0.456604,-0.28131104
1602702832107,343,-0.16503906,-0.456604,-0.28131104
1602702832107,344,-0.16503906,-0.456604,-0.28131104
1602702832108,345,-0.9020996,1.999939,-0.11773682
1602702832109,346,-0.9020996,1.999939,-0.11773682
1602702832110,347,-0.25097656,1.4330444,-0.09820557
1602702832113,348,-0.25097656,1.4330444,-0.09820557
1602702832114,349,-0.9020996,1.999939,-0.11773682
1602702832114,350,-0.2800293,0.901062,0.08880615
1602702832116,351,-0.2800293,0.901062,0.08880615
1602702832117,352,-0.25097656,1.4330444,-0.09820557
1602702832117,353,0.16308594,-0.38433838,-0.1729126
1602702832124,354,0.16308594,-0.38433838,-0.1729126
1602702832125,355,-0.2800293,0.901062,0.08880615
1602702832126,356,-0.040039062,1.2394409,-0.26470947
1602702832126,357,0.16308594,-0.38433838,-0.1729126
1602702832126,358,-0.28710938,1.7767944,0.08709717
1602702832127,359,-0.040039062,1.2394409,-0.26470947
1602702832127,360,-0.040039062,1.2394409,-0.26470947
1602702832129,361,-0.36401367,1.1491089,-0.10601807
1602702832130,362,-0.28710938,1.7767944,0.08709717
1602702832130,363,-0.28710938,1.7767944,0.08709717
1602702832132,364,-0.21850586,0.24261475,-0.17828369
1602702832132,365,-0.36401367,1.1491089,-0.10601807
1602702832132,366,-0.36401367,1.1491089,-0.10601807
1602702832135,367,-0.13647461,-0.03302002,-0.29400635
1602702832136,368,-0.21850586,0.24261475,-0.17828369
1602702832136,369,-0.21850586,0.24261475,-0.17828369
1602702832138,370,-0.78759766,1.999939,0.09295654
1602702832139,371,-0.13647461,-0.03302002,-0.29400635
1602702832139,372,-0.13647461,-0.03302002,-0.29400635
1602702832144,373,-0.23583984,1.1932983,-0.070373535
1602702832144,374,-0.78759766,1.999939,0.09295654
1602702832145,375,-0.78759766,1.999939,0.09295654
1602702832145,376,-0.111816406,0.6102905,0.04925537
1602702832145,377,-0.23583984,1.1932983,-0.070373535
1602702832145,378,0.1184082,-0.36749268,-0.24517822
1602702832146,379,-0.111816406,0.6102905,0.04925537
1602702832147,380,-0.23583984,1.1932983,-0.070373535
1602702832148,381,0.1184082,-0.36749268,-0.24517822
1602702832151,382,-0.111816406,0.6102905,0.04925537
1602702832152,383,0.1184082,-0.36749268,-0.24517822
1602702834652,384,-0.4260254,1.999939,-0.1350708
1602702834653,385,-0.06689453,1.3568726,-0.12896729
1602702834659,386,-0.34326172,0.87957764,-0.14508057
1602702834660,387,-0.13500977,-0.18243408,-0.20025635
1602702834661,388,-0.4260254,1.999939,-0.1350708
1602702834662,389,-0.4260254,1.999939,-0.1350708
1602702834664,390,-0.3413086,1.3012085,-0.26446533
1602702834664,391,-0.06689453,1.3568726,-0.12896729
1602702834668,392,-0.46264648,1.6061401,-0.00592041
1602702834677,393,-0.32006836,1.1083374,-0.014221191
1602702834678,394,0.0949707,0.1071167,-0.11920166
1602702834678,395,-0.34326172,0.87957764,-0.14508057
1602702834679,396,0.16674805,0.4857788,-0.27178955
1602702834679,397,-0.06689453,1.3568726,-0.12896729
1602702834679,398,-0.3515625,1.999939,-0.035949707
1602702834680,399,-0.30249023,1.1564331,-0.15753174
1602702834680,400,-0.34326172,0.87957764,-0.14508057
1602702834681,401,-0.13500977,-0.18243408,-0.20025635
1602702834689,402,-0.3413086,1.3012085,-0.26446533
1602702834689,403,-0.46264648,1.6061401,-0.00592041
1602702834690,404,-0.13500977,-0.18243408,-0.20025635
1602702834690,405,-0.3413086,1.3012085,-0.26446533
1602702834690,406,-0.46264648,1.6061401,-0.00592041
1602702834690,407,-0.16064453,0.42694092,-0.16339111
1602702834690,408,-0.32006836,1.1083374,-0.014221191
1602702834695,409,-0.32006836,1.1083374,-0.014221191
1602702834695,410,-0.26953125,-0.22491455,-0.18096924
1602702834696,411,0.0949707,0.1071167,-0.11920166
1602702834698,412,0.0949707,0.1071167,-0.11920166
1602702834698,413,0.16674805,0.4857788,-0.27178955
1602702834698,414,-0.7819824,1.999939,-0.05303955
1602702834702,415,0.16674805,0.4857788,-0.27178955
1602702834702,416,-0.3515625,1.999939,-0.035949707
1602702834703,417,-0.11230469,1.1754761,-0.09429932
1602702834703,418,-0.30249023,1.1564331,-0.15753174
1602702834703,419,-0.107666016,0.87249756,0.0927124
1602702834705,420,-0.3515625,1.999939,-0.035949707
1602702834706,421,0.13378906,-0.24346924,-0.08453369
1602702834707,422,-0.30249023,1.1564331,-0.15753174
1602702834710,423,-0.20800781,1.930603,-0.14605713
1602702834710,424,-0.16064453,0.42694092,-0.16339111
1602702834711,425,-0.16040039,1.2975464,-0.045959473
1602702834713,426,-0.26953125,-0.22491455,-0.18096924
1602702834715,427,-0.12915039,0.826355,-0.09674072
1602702834716,428,-0.7819824,1.999939,-0.05303955
1602702834717,429,-0.16064453,0.42694092,-0.16339111
1602702834724,430,-0.11230469,1.1754761,-0.09429932
1602702834724,431,-0.3154297,-0.06500244,-0.1951294
1602702834724,432,-0.26953125,-0.22491455,-0.18096924
1602702834725,433,-0.78759766,1.7098999,-0.10821533
1602702834725,434,-0.107666016,0.87249756,0.0927124
1602702834725,435,-0.7819824,1.999939,-0.05303955
1602702834726,436,-0.23071289,1.1471558,-0.14703369
1602702834727,437,-0.11230469,1.1754761,-0.09429932
1602702834728,438,-0.16455078,0.9801636,0.04925537
1602702834734,439,-0.107666016,0.87249756,0.0927124
1602702834735,440,0.13378906,-0.24346924,-0.08453369
1602702834735,441,0.13378906,-0.24346924,-0.08453369
1602702834735,442,-0.20800781,1.930603,-0.14605713
1602702834735,443,0.041259766,0.27679443,-0.06109619
1602702834735,444,-0.20800781,1.930603,-0.14605713
1602702834737,445,0.06298828,0.84198,-0.22320557
1602702834738,446,-0.16040039,1.2975464,-0.045959473
1602702834742,447,-0.62280273,1.7133179,-0.07574463
1602702834742,448,-0.16040039,1.2975464,-0.045959473
1602702834743,449,-0.19140625,0.99505615,0.024841309
1602702834743,450,-0.12915039,0.826355,-0.09674072
1602702834743,451,-0.12915039,0.826355,-0.09674072
1602702834745,452,-0.16552734,0.26385498,-0.15899658
1602702834746,453,-0.3154297,-0.06500244,-0.1951294
1602702834746,454,-0.3154297,-0.06500244,-0.1951294
1602702834748,455,-0.16601562,0.2658081,-0.1531372
1602702834755,456,-0.88378906,1.999939,-0.018371582
1602702834756,457,-0.78759766,1.7098999,-0.10821533
1602702834756,458,-0.78759766,1.7098999,-0.10821533
1602702834756,459,-0.23071289,1.1471558,-0.14703369
1602702834756,460,-0.23071289,1.1471558,-0.14703369
1602702834756,461,-0.26098633,1.1532593,-0.0076293945
1602702834756,462,-0.16455078,0.9801636,0.04925537
1602702834756,463,-0.16455078,0.9801636,0.04925537
1602702834761,464,0.041259766,0.27679443,-0.06109619
1602702834762,465,0.041259766,0.27679443,-0.06109619
1602702834762,466,0.06298828,0.84198,-0.22320557
1602702834762,467,-0.62280273,1.7133179,-0.07574463
1602702834762,468,0.06298828,0.84198,-0.22320557
1602702834762,469,-0.19140625,0.99505615,0.024841309
1602702834765,470,-0.62280273,1.7133179,-0.07574463
1602702834765,471,-0.16552734,0.26385498,-0.15899658
1602702834767,472,-0.19140625,0.99505615,0.024841309
1602702834768,473,-0.16601562,0.2658081,-0.1531372
1602702834770,474,-0.16552734,0.26385498,-0.15899658
1602702834770,475,-0.88378906,1.999939,-0.018371582
1602702834773,476,-0.26098633,1.1532593,-0.0076293945
1602702834773,477,-0.16601562,0.2658081,-0.1531372
1602702834775,478,-0.88378906,1.999939,-0.018371582
1602702834777,479,-0.26098633,1.1532593,-0.0076293945
1602702837151,480,-0.08227539,0.70062256,-0.03326416
1602702837152,481,-0.08227539,0.70062256,-0.03326416
1602702837152,482,-0.12084961,0.29071045,-0.07086182
1602702837153,483,-0.12084961,0.29071045,-0.07086182
1602702837177,484,-0.08227539,0.70062256,-0.03326416
1602702837177,485,0.08544922,1.1473999,-0.20880127
1602702837178,486,-0.12084961,0.29071045,-0.07086182
1602702837178,487,0.08544922,1.1473999,-0.20880127
1602702837179,488,-0.6821289,1.687439,0.02532959
1602702837179,489,0.08544922,1.1473999,-0.20880127
1602702837180,490,-0.6821289,1.687439,0.02532959
1602702837180,491,-0.6821289,1.687439,0.02532959
1602702837180,492,-0.14111328,0.836853,-0.18341064
1602702837181,493,-0.14111328,0.836853,-0.18341064
1602702837181,494,-0.35595703,0.4557495,-0.19146729
1602702837181,495,-0.35595703,0.4557495,-0.19146729
1602702837182,496,-0.14111328,0.836853,-0.18341064
1602702837182,497,-0.35595703,0.4557495,-0.19146729
1602702837182,498,0.0021972656,0.42303467,-0.19903564
1602702837183,499,0.0021972656,0.42303467,-0.19903564
1602702837188,500,0.0021972656,0.42303467,-0.19903564
1602702837188,501,-0.5036621,1.6554565,-0.043518066
1602702837189,502,-0.5036621,1.6554565,-0.043518066
1602702837190,503,-0.4111328,1.1471558,-0.089660645
1602702837190,504,-0.5036621,1.6554565,-0.043518066
1602702837191,505,-0.4111328,1.1471558,-0.089660645
1602702837196,506,-0.4111328,1.1471558,-0.089660645
1602702837196,507,-0.24267578,0.920105,-0.054504395
1602702837199,508,-0.24267578,0.920105,-0.054504395
1602702837199,509,-0.24267578,0.920105,-0.054504395
1602702837199,510,-0.25146484,0.74139404,-0.030822754
1602702837201,511,-0.25146484,0.74139404,-0.030822754
1602702837205,512,-0.07104492,0.65789795,-0.043029785
1602702837205,513,-0.25146484,0.74139404,-0.030822754
1602702837206,514,-0.07104492,0.65789795,-0.043029785
1602702837206,515,-0.07714844,0.701355,-0.16729736
1602702837208,516,-0.07104492,0.65789795,-0.043029785
1602702837212,517,-0.07861328,1.1835327,-0.13214111
1602702837213,518,-0.07714844,0.701355,-0.16729736
1602702837213,519,-0.07714844,0.701355,-0.16729736
1602702837213,520,-0.13916016,1.6608276,0.08514404
1602702837215,521,-0.07861328,1.1835327,-0.13214111
1602702837215,522,-0.07861328,1.1835327,-0.13214111
1602702837219,523,-0.23583984,1.2765503,-0.0010375977
1602702837219,524,-0.13916016,1.6608276,0.08514404
1602702837220,525,-0.13916016,1.6608276,0.08514404
1602702837224,526,-0.23583984,1.2765503,-0.0010375977
1602702837224,527,-0.37841797,0.19085693,-0.22833252
1602702837224,528,-0.23583984,1.2765503,-0.0010375977
1602702837225,529,-0.09643555,0.4706421,-0.39727783
1602702837225,530,-0.37841797,0.19085693,-0.22833252
1602702837229,531,-0.37841797,0.19085693,-0.22833252
1602702837230,532,-0.09643555,0.4706421,-0.39727783
1602702837230,533,-0.5908203,1.8031616,-0.09429932
1602702837230,534,-0.09643555,0.4706421,-0.39727783
1602702837234,535,-0.5908203,1.8031616,-0.09429932
1602702837234,536,-0.42626953,1.335144,-0.10040283
1602702837235,537,-0.5908203,1.8031616,-0.09429932
1602702837235,538,-0.42626953,1.335144,-0.10040283
1602702837238,539,-0.09472656,0.64349365,0.03338623
1602702837239,540,-0.42626953,1.335144,-0.10040283
1602702837239,541,-0.09472656,0.64349365,0.03338623
1602702837243,542,0.14160156,-0.25860596,-0.24884033
1602702837243,543,-0.09472656,0.64349365,0.03338623
1602702837243,544,0.14160156,-0.25860596,-0.24884033
1602702837245,545,-0.26342773,1.5040894,-0.23712158
1602702837247,546,-0.26342773,1.5040894,-0.23712158
1602702837252,547,-0.14257812,1.6447144,-0.082092285
1602702837252,548,0.14160156,-0.25860596,-0.24884033
1602702837253,549,-0.14257812,1.6447144,-0.082092285
1602702837253,550,-0.23999023,1.1105347,-0.21636963
1602702837253,551,-0.23999023,1.1105347,-0.21636963
1602702837254,552,-0.26342773,1.5040894,-0.23712158
1602702837256,553,-0.2734375,0.25042725,-0.19195557
1602702837261,554,-0.055419922,-0.0134887695,-0.2263794
1602702837261,555,-0.2734375,0.25042725,-0.19195557
1602702837261,556,-0.14257812,1.6447144,-0.082092285
1602702837261,557,-0.055419922,-0.0134887695,-0.2263794
1602702837261,558,-0.7631836,1.999939,-0.033996582
1602702837265,559,-0.23999023,1.1105347,-0.21636963
1602702837265,560,-0.7631836,1.999939,-0.033996582
1602702837265,561,-0.29345703,1.2597046,-0.09967041
1602702837271,562,-0.2734375,0.25042725,-0.19195557
1602702837271,563,-0.29345703,1.2597046,-0.09967041
1602702837272,564,-0.21899414,0.7416382,0.059753418
1602702837272,565,-0.21899414,0.7416382,0.059753418
1602702837272,566,0.19555664,-0.3081665,-0.19537354
1602702837273,567,-0.055419922,-0.0134887695,-0.2263794
1602702837273,568,-0.1965332,1.6317749,-0.16436768
1602702837273,569,0.19555664,-0.3081665,-0.19537354
1602702837276,570,-0.7631836,1.999939,-0.033996582
1602702837276,571,-0.1965332,1.6317749,-0.16436768
1602702837278,572,-0.29345703,1.2597046,-0.09967041
1602702837280,573,-0.21899414,0.7416382,0.059753418
1602702837281,574,0.19555664,-0.3081665,-0.19537354
1602702837282,575,-0.1965332,1.6317749,-0.16436768
1602702839745,576,-0.2397461,1.5773315,-0.0413208
1602702839751,577,-0.2397461,1.5773315,-0.0413208
1602702839751,578,-0.2397461,1.5773315,-0.0413208
1602702839752,579,-0.2355957,1.0639038,-0.144104
1602702839755,580,-0.2355957,1.0639038,-0.144104
1602702839755,581,-0.2355957,1.0639038,-0.144104
1602702839762,582,-0.20263672,0.11224365,-0.17803955
1602702839762,583,-0.20263672,0.11224365,-0.17803955
1602702839763,584,-0.20263672,0.11224365,-0.17803955
1602702839763,585,-0.001953125,0.1395874,-0.29937744
1602702839763,586,-0.001953125,0.1395874,-0.29937744
1602702839764,587,-0.001953125,0.1395874,-0.29937744
1602702839775,588,-0.9460449,1.999939,-0.0076293945
1602702839775,589,-0.9460449,1.999939,-0.0076293945
1602702839776,590,-0.20507812,1.296814,0.022644043
1602702839776,591,-0.9460449,1.999939,-0.0076293945
1602702839776,592,-0.1418457,0.6117554,0.048034668
1602702839776,593,-0.20507812,1.296814,0.022644043
1602702839776,594,-0.20507812,1.296814,0.022644043
1602702839784,595,0.14746094,-0.22125244,-0.15777588
1602702839785,596,-0.1418457,0.6117554,0.048034668
1602702839785,597,-0.1418457,0.6117554,0.048034668
1602702839786,598,-0.2692871,1.8414917,-0.28497314
1602702839786,599,0.14746094,-0.22125244,-0.15777588
1602702839786,600,-0.31030273,1.5316772,-0.09942627
1602702839787,601,0.14746094,-0.22125244,-0.15777588
1602702839789,602,-0.2692871,1.8414917,-0.28497314
1602702839790,603,-0.2692871,1.8414917,-0.28497314
1602702839795,604,-0.31030273,1.5316772,-0.09942627
1602702839795,605,-0.29638672,0.8500366,-0.18829346
1602702839795,606,-0.31030273,1.5316772,-0.09942627
1602702839797,607,-0.29638672,0.8500366,-0.18829346
1602702839798,608,-0.29638672,0.8500366,-0.18829346
1602702839800,609,-0.18188477,-0.09259033,-0.15875244
1602702839802,610,-0.18188477,-0.09259033,-0.15875244
1602702839806,611,-0.16308594,0.7694702,-0.3435669
1602702839807,612,-0.16308594,0.7694702,-0.3435669
1602702839807,613,-0.18188477,-0.09259033,-0.15875244
1602702839807,614,-0.68115234,1.999939,0.0026245117
1602702839808,615,-0.68115234,1.999939,0.0026245117
1602702839814,616,-0.16308594,0.7694702,-0.3435669
1602702839814,617,-0.68115234,1.999939,0.0026245117
1602702839814,618,-0.3330078,1.2323608,0.038269043
1602702839815,619,-0.3330078,1.2323608,0.038269043
1602702839815,620,-0.3330078,1.2323608,0.038269043
1602702839818,621,0.051513672,0.3053589,-0.059143066
1602702839818,622,0.051513672,0.3053589,-0.059143066
1602702839818,623,0.051513672,0.3053589,-0.059143066
1602702839822,624,-0.011962891,-0.21026611,-0.19903564
1602702839822,625,-0.011962891,-0.21026611,-0.19903564
1602702839823,626,-0.011962891,-0.21026611,-0.19903564
1602702839823,627,-0.30493164,1.999939,-0.12408447
1602702839823,628,-0.30493164,1.999939,-0.12408447
1602702839823,629,-0.30493164,1.999939,-0.12408447
1602702839826,630,-0.061035156,1.444519,-0.046691895
1602702839826,631,-0.061035156,1.444519,-0.046691895
1602702839826,632,-0.35375977,0.63275146,-0.16021729
1602702839828,633,-0.35375977,0.63275146,-0.16021729
1602702839831,634,-0.12915039,-0.34332275,-0.22686768
1602702839831,635,-0.061035156,1.444519,-0.046691895
1602702839831,636,-0.7145996,1.6725464,-0.15460205
1602702839832,637,-0.35375977,0.63275146,-0.16021729
1602702839832,638,-0.12915039,-0.34332275,-0.22686768
1602702839834,639,-0.30786133,1.4738159,-0.14385986
1602702839835,640,-0.12915039,-0.34332275,-0.22686768
1602702839835,641,-0.7145996,1.6725464,-0.15460205
1602702839837,642,-0.33764648,1.1078491,0.077819824
1602702839838,643,-0.7145996,1.6725464,-0.15460205
1602702839838,644,-0.30786133,1.4738159,-0.14385986
1602702839840,645,0.13867188,0.08831787,-0.11065674
1602702839840,646,-0.30786133,1.4738159,-0.14385986
1602702839841,647,-0.33764648,1.1078491,0.077819824
1602702839843,648,0.18676758,0.5741577,-0.36724854
1602702839844,649,-0.33764648,1.1078491,0.077819824
1602702839844,650,0.13867188,0.08831787,-0.11065674
1602702839846,651,-0.34570312,1.9760132,-0.03277588
1602702839847,652,0.13867188,0.08831787,-0.11065674
1602702839847,653,0.18676758,0.5741577,-0.36724854
1602702839849,654,-0.122558594,1.1713257,-0.11993408
1602702839849,655,0.18676758,0.5741577,-0.36724854
1602702839850,656,-0.34570312,1.9760132,-0.03277588
1602702839851,657,-0.2548828,0.49505615,-0.18267822
1602702839852,658,-0.34570312,1.9760132,-0.03277588
1602702839852,659,-0.122558594,1.1713257,-0.11993408
1602702839854,660,-0.14990234,-0.25836182,-0.19000244
1602702839854,661,-0.2548828,0.49505615,-0.18267822
1602702839856,662,-0.7182617,1.999939,-0.03326416
1602702839857,663,-0.122558594,1.1713257,-0.11993408
1602702839857,664,-0.14990234,-0.25836182,-0.19000244
1602702839859,665,-0.07763672,1.3192749,-0.13873291
1602702839859,666,-0.2548828,0.49505615,-0.18267822
1602702839860,667,-0.7182617,1.999939,-0.03326416
1602702839862,668,-0.14990234,-0.25836182,-0.19000244
1602702839862,669,-0.07763672,1.3192749,-0.13873291
1602702839863,670,-0.7182617,1.999939,-0.03326416
1602702839865,671,-0.07763672,1.3192749,-0.13873291
1602702842245,672,-0.07104492,0.887146,0.11029053
1602702842246,673,-0.07104492,0.887146,0.11029053
1602702842258,674,0.12817383,-0.23345947,-0.19171143
1602702842258,675,-0.07104492,0.887146,0.11029053
1602702842259,676,0.12817383,-0.23345947,-0.19171143
1602702842259,677,0.12817383,-0.23345947,-0.19171143
1602702842259,678,-0.16918945,1.7660522,-0.19171143
1602702842259,679,-0.16918945,1.7660522,-0.19171143
1602702842259,680,-0.0017089844,1.2907104,-0.0803833
1602702842260,681,-0.16918945,1.7660522,-0.19171143
1602702842260,682,-0.1303711,0.9032593,-0.13360596
1602702842260,683,-0.0017089844,1.2907104,-0.0803833
1602702842261,684,-0.0017089844,1.2907104,-0.0803833
1602702842261,685,-0.1303711,0.9032593,-0.13360596
1602702842261,686,-0.1586914,0.3258667,-0.12432861
1602702842261,687,-0.1586914,0.3258667,-0.12432861
1602702842261,688,-0.1303711,0.9032593,-0.13360596
1602702842262,689,-0.40625,1.0307007,-0.15875244
1602702842264,690,-0.1586914,0.3258667,-0.12432861
1602702842266,691,-0.15136719,1.5333862,-0.14678955
1602702842266,692,-0.40625,1.0307007,-0.15875244
1602702842266,693,-0.40625,1.0307007,-0.15875244
1602702842270,694,-0.17895508,1.1620483,-0.066223145
1602702842270,695,-0.15136719,1.5333862,-0.14678955
1602702842270,696,-0.15136719,1.5333862,-0.14678955
1602702842270,697,0.024414062,0.61102295,-0.11138916
1602702842271,698,-0.17895508,1.1620483,-0.066223145
1602702842273,699,-0.17895508,1.1620483,-0.066223145
1602702842275,700,-0.0048828125,0.32244873,-0.17559814
1602702842275,701,0.024414062,0.61102295,-0.11138916
1602702842278,702,0.024414062,0.61102295,-0.11138916
1602702842278,703,-0.0048828125,0.32244873,-0.17559814
1602702842279,704,0.0390625,1.3319702,-0.3508911
1602702842279,705,0.0390625,1.3319702,-0.3508911
1602702842279,706,-0.0078125,1.465271,-0.35308838
1602702842279,707,-0.0048828125,0.32244873,-0.17559814
1602702842281,708,-0.0078125,1.465271,-0.35308838
1602702842283,709,0.0390625,1.3319702,-0.3508911
1602702842284,710,0.13354492,1.0458374,-0.25323486
1602702842284,711,0.13354492,1.0458374,-0.25323486
1602702842285,712,-0.0078125,1.465271,-0.35308838
1602702842287,713,-0.072753906,0.84246826,-0.33624268
1602702842287,714,-0.072753906,0.84246826,-0.33624268
1602702842287,715,0.13354492,1.0458374,-0.25323486
1602702842291,716,-0.057373047,0.6449585,-0.20123291
1602702842292,717,-0.057373047,0.6449585,-0.20123291
1602702842292,718,-0.072753906,0.84246826,-0.33624268
1602702842293,719,-0.15893555,0.6539917,-0.24346924
1602702842293,720,-0.15893555,0.6539917,-0.24346924
1602702842297,721,-0.057373047,0.6449585,-0.20123291
1602702842297,722,-0.6279297,1.2433472,0.016296387
1602702842298,723,-0.6279297,1.2433472,0.016296387
1602702842298,724,-0.29101562,1.263855,0.014343262
1602702842298,725,-0.15893555,0.6539917,-0.24346924
1602702842302,726,-0.29101562,1.263855,0.014343262
1602702842302,727,-0.19848633,0.664978,-0.055236816
1602702842302,728,-0.6279297,1.2433472,0.016296387
1602702842302,729,-0.32373047,0.6762085,-0.11627197
1602702842303,730,-0.19848633,0.664978,-0.055236816
1602702842304,731,-0.29101562,1.263855,0.014343262
1602702842305,732,-0.32373047,0.6762085,-0.11627197
1602702842306,733,-0.19848633,0.664978,-0.055236816
1602702842307,734,-0.27001953,1.1073608,0.04071045
1602702842310,735,-0.32373047,0.6762085,-0.11627197
1602702842310,736,-0.27001953,1.1073608,0.04071045
1602702842310,737,-0.034423828,0.9591675,-0.269104
1602702842311,738,-0.27001953,1.1073608,0.04071045
1602702842312,739,-0.33374023,1.1659546,-0.5532837
1602702842315,740,-0.034423828,0.9591675,-0.269104
1602702842315,741,-0.034423828,0.9591675,-0.269104
1602702842315,742,-0.33374023,1.1659546,-0.5532837
1602702842316,743,-0.5083008,1.6571655,-0.17071533
1602702842317,744,-0.5083008,1.6571655,-0.17071533
1602702842319,745,-0.19970703,1.1390991,-0.2666626
1602702842320,746,-0.33374023,1.1659546,-0.5532837
1602702842320,747,-0.19970703,1.1390991,-0.2666626
1602702842321,748,-0.32421875,0.13421631,-0.25299072
1602702842322,749,-0.32421875,0.13421631,-0.25299072
1602702842324,750,-0.1262207,-0.19024658,-0.26104736
1602702842324,751,-0.5083008,1.6571655,-0.17071533
1602702842325,752,-0.1262207,-0.19024658,-0.26104736
1602702842326,753,-0.76293945,1.999939,-0.20269775
1602702842329,754,-0.76293945,1.999939,-0.20269775
1602702842329,755,-0.19970703,1.1390991,-0.2666626
1602702842329,756,-0.43359375,1.385437,-0.09161377
1602702842330,757,-0.43359375,1.385437,-0.09161377
1602702842330,758,-0.32421875,0.13421631,-0.25299072
1602702842332,759,-0.19311523,0.7423706,-0.031311035
1602702842333,760,-0.19311523,0.7423706,-0.031311035
1602702842333,761,-0.1262207,-0.19024658,-0.26104736
1602702842334,762,0.27319336,-0.4102173,-0.21295166
1602702842335,763,-0.76293945,1.999939,-0.20269775
1602702842337,764,0.27319336,-0.4102173,-0.21295166
1602702842337,765,-0.43359375,1.385437,-0.09161377
1602702842339,766,-0.19311523,0.7423706,-0.031311035
1602702842341,767,0.27319336,-0.4102173,-0.21295166
1602702844743,768,-0.51586914,1.5421753,-0.40826416
1602702844744,769,-0.51586914,1.5421753,-0.40826416
1602702844748,770,-0.29052734,1.7521362,-0.18414307
1602702844749,771,-0.29052734,1.7521362,-0.18414307
1602702844749,772,-0.51586914,1.5421753,-0.40826416
1602702844749,773,-0.4243164,1.104187,-0.20831299
1602702844751,774,-0.29052734,1.7521362,-0.18414307
1602702844752,775,-0.4243164,1.104187,-0.20831299
1602702844752,776,-0.15673828,0.1696167,-0.20196533
1602702844756,777,-0.4243164,1.104187,-0.20831299
1602702844756,778,-0.15673828,0.1696167,-0.20196533
1602702844756,779,-0.119140625,-0.2666626,-0.2774048
1602702844757,780,-0.15673828,0.1696167,-0.20196533
1602702844759,781,-0.119140625,-0.2666626,-0.2774048
1602702844760,782,-0.82788086,1.999939,-0.15020752
1602702844760,783,-0.119140625,-0.2666626,-0.2774048
1602702844763,784,-0.82788086,1.999939,-0.15020752
1602702844763,785,-0.22045898,1.2675171,-0.11407471
1602702844763,786,-0.82788086,1.999939,-0.15020752
1602702844764,787,-0.22045898,1.2675171,-0.11407471
1602702844765,788,-0.083496094,0.5897827,0.015319824
1602702844769,789,0.11767578,-0.5005493,-0.2156372
1602702844770,790,-0.083496094,0.5897827,0.015319824
1602702844770,791,-0.22045898,1.2675171,-0.11407471
1602702844770,792,-0.1875,1.999939,-0.30474854
1602702844776,793,0.11767578,-0.5005493,-0.2156372
1602702844777,794,-0.2211914,1.5421753,-0.18096924
1602702844777,795,-0.3544922,0.8226929,-0.18927002
1602702844777,796,-0.1875,1.999939,-0.30474854
1602702844778,797,-0.083496094,0.5897827,0.015319824
1602702844778,798,-0.2211914,1.5421753,-0.18096924
1602702844779,799,0.11767578,-0.5005493,-0.2156372
1602702844781,800,-0.3544922,0.8226929,-0.18927002
1602702844781,801,-0.10961914,-0.28302002,-0.21002197
1602702844782,802,-0.10961914,-0.28302002,-0.21002197
1602702844786,803,-0.1875,1.999939,-0.30474854
1602702844786,804,-0.35791016,1.220398,-0.2276001
1602702844786,805,-0.35791016,1.220398,-0.2276001
1602702844787,806,-0.5341797,1.6691284,-0.1272583
1602702844787,807,-0.2211914,1.5421753,-0.18096924
1602702844788,808,-0.3552246,1.1369019,0.06707764
1602702844789,809,-0.3544922,0.8226929,-0.18927002
1602702844790,810,0.15258789,-0.09576416,-0.14434814
1602702844792,811,-0.10961914,-0.28302002,-0.21002197
1602702844793,812,-0.5341797,1.6691284,-0.1272583
1602702844793,813,0.10888672,0.6168823,-0.28668213
1602702844793,814,-0.35791016,1.220398,-0.2276001
1602702844795,815,-0.3552246,1.1369019,0.06707764
1602702844799,816,-0.5341797,1.6691284,-0.1272583
1602702844799,817,-0.29711914,1.999939,-0.02935791
1602702844800,818,0.15258789,-0.09576416,-0.14434814
1602702844802,819,-0.3552246,1.1369019,0.06707764
1602702844802,820,-0.30004883,1.2457886,-0.16339111
1602702844803,821,0.10888672,0.6168823,-0.28668213
1602702844811,822,-0.29711914,1.999939,-0.02935791
1602702844812,823,0.15258789,-0.09576416,-0.14434814
1602702844812,824,-0.27856445,0.2987671,-0.13604736
1602702844813,825,-0.30004883,1.2457886,-0.16339111
1602702844814,826,-0.013183594,-0.395813,-0.23858643
1602702844815,827,-0.27856445,0.2987671,-0.13604736
1602702844815,828,0.10888672,0.6168823,-0.28668213
1602702844815,829,-1.032959,1.999939,-0.019104004
1602702844816,830,-0.29711914,1.999939,-0.02935791
1602702844816,831,-0.013183594,-0.395813,-0.23858643
1602702844819,832,-0.036865234,1.3983765,-0.12774658
1602702844819,833,-0.30004883,1.2457886,-0.16339111
1602702844821,834,-1.032959,1.999939,-0.019104004
1602702844823,835,-0.10620117,0.7731323,0.113220215
1602702844823,836,-0.27856445,0.2987671,-0.13604736
1602702844823,837,-0.036865234,1.3983765,-0.12774658
1602702844826,838,0.1772461,-0.46051025,-0.22052002
1602702844826,839,-0.013183594,-0.395813,-0.23858643
1602702844827,840,-0.10620117,0.7731323,0.113220215
1602702844828,841,-0.17797852,1.8060913,-0.19683838
1602702844830,842,0.1772461,-0.46051025,-0.22052002
1602702844830,843,-1.032959,1.999939,-0.019104004
1602702844831,844,-0.05102539,1.5050659,-0.09527588
1602702844832,845,-0.17797852,1.8060913,-0.19683838
1602702844835,846,-0.25585938,0.9784546,-0.12677002
1602702844835,847,-0.036865234,1.3983765,-0.12774658
1602702844835,848,-0.05102539,1.5050659,-0.09527588
1602702844838,849,-0.27148438,-0.06329346,-0.13800049
1602702844838,850,-0.10620117,0.7731323,0.113220215
1602702844842,851,-0.25585938,0.9784546,-0.12677002
1602702844842,852,-0.22753906,0.98895264,-0.26593018
1602702844843,853,-0.27148438,-0.06329346,-0.13800049
1602702844844,854,-0.6027832,1.7045288,-0.10333252
1602702844844,855,0.1772461,-0.46051025,-0.22052002
1602702844845,856,-0.22753906,0.98895264,-0.26593018
1602702844848,857,-0.17797852,1.8060913,-0.19683838
1602702844848,858,-0.6027832,1.7045288,-0.10333252
1602702844850,859,-0.05102539,1.5050659,-0.09527588
1602702844852,860,-0.25585938,0.9784546,-0.12677002
1602702844854,861,-0.27148438,-0.06329346,-0.13800049
1602702844855,862,-0.22753906,0.98895264,-0.26593018
1602702844856,863,-0.6027832,1.7045288,-0.10333252
1602702847447,864,-0.24926758,1.0924683,0.12689209
1602702847457,865,-0.24926758,1.0924683,0.12689209
1602702847458,866,-0.24926758,1.0924683,0.12689209
1602702847459,867,0.14086914,0.20697021,-0.10650635
1602702847459,868,0.14086914,0.20697021,-0.10650635
1602702847459,869,0.111083984,0.28704834,-0.29034424
1602702847464,870,0.14086914,0.20697021,-0.10650635
1602702847465,871,0.111083984,0.28704834,-0.29034424
1602702847465,872,-0.40698242,1.999939,-0.14996338
1602702847471,873,0.111083984,0.28704834,-0.29034424
1602702847473,874,-0.20629883,1.1674194,-0.023254395
1602702847473,875,-0.40698242,1.999939,-0.14996338
1602702847482,876,-0.40698242,1.999939,-0.14996338
1602702847483,877,-0.2590332,0.41815186,-0.16461182
1602702847483,878,-0.20629883,1.1674194,-0.023254395
1602702847484,879,-0.2590332,0.41815186,-0.16461182
1602702847484,880,-0.07104492,-0.22003174,-0.16558838
1602702847485,881,-0.20629883,1.1674194,-0.023254395
1602702847492,882,-0.07104492,-0.22003174,-0.16558838
1602702847493,883,-0.89990234,1.999939,-0.0713501
1602702847495,884,-0.2590332,0.41815186,-0.16461182
1602702847495,885,-0.043701172,1.2177124,-0.19049072
1602702847496,886,-0.89990234,1.999939,-0.0713501
1602702847497,887,-0.07104492,-0.22003174,-0.16558838
1602702847501,888,-0.043701172,1.2177124,-0.19049072
1602702847502,889,-0.22705078,1.0668335,0.13861084
1602702847502,890,-0.89990234,1.999939,-0.0713501
1602702847506,891,-0.22705078,1.0668335,0.13861084
1602702847507,892,-0.024902344,0.25457764,-0.04034424
1602702847508,893,-0.043701172,1.2177124,-0.19049072
1602702847510,894,-0.024902344,0.25457764,-0.04034424
1602702847513,895,-0.22705078,1.0668335,0.13861084
1602702847513,896,-0.0029296875,0.46624756,-0.22467041
1602702847513,897,-0.0029296875,0.46624756,-0.22467041
1602702847518,898,-0.024902344,0.25457764,-0.04034424
1602702847518,899,-0.560791,1.9086304,-0.1765747
1602702847518,900,-0.560791,1.9086304,-0.1765747
1602702847519,901,-0.2409668,1.2902222,-0.03302002
1602702847519,902,-0.0029296875,0.46624756,-0.22467041
1602702847525,903,-0.2409668,1.2902222,-0.03302002
1602702847525,904,-0.27685547,0.75457764,-0.1494751
1602702847525,905,-0.560791,1.9086304,-0.1765747
1602702847526,906,-0.15136719,0.3859253,-0.19976807
1602702847526,907,-0.27685547,0.75457764,-0.1494751
1602702847526,908,-0.11743164,0.6168823,-0.14361572
1602702847527,909,-0.15136719,0.3859253,-0.19976807
1602702847533,910,-0.2409668,1.2902222,-0.03302002
1602702847534,911,-0.5991211,1.6300659,-0.11114502
1602702847534,912,-0.11743164,0.6168823,-0.14361572
1602702847534,913,-0.34838867,1.0101929,-0.23736572
1602702847534,914,-0.27685547,0.75457764,-0.1494751
1602702847534,915,-0.2956543,0.85809326,-0.08770752
1602702847535,916,-0.5991211,1.6300659,-0.11114502
1602702847540,917,-0.25561523,0.6737671,-0.15460205
1602702847540,918,-0.15136719,0.3859253,-0.19976807
1602702847541,919,-0.115722656,0.6742554,-0.13189697
1602702847546,920,-0.11743164,0.6168823,-0.14361572
1602702847546,921,-0.34838867,1.0101929,-0.23736572
1602702847547,922,-0.09765625,1.1998901,-0.18218994
1602702847547,923,-0.5991211,1.6300659,-0.11114502
1602702847547,924,-0.2709961,1.4777222,-0.093811035
1602702847548,925,-0.2956543,0.85809326,-0.08770752
1602702847548,926,-0.07495117,0.42425537,-0.04083252
1602702847549,927,-0.34838867,1.0101929,-0.23736572
1602702847550,928,-0.009765625,0.23065186,-0.3255005
1602702847551,929,-0.2956543,0.85809326,-0.08770752
1602702847560,930,-0.15942383,1.6849976,-0.070373535
1602702847560,931,-0.25561523,0.6737671,-0.15460205
1602702847561,932,-0.25561523,0.6737671,-0.15460205
1602702847561,933,-0.31884766,1.0629272,-0.15802002
1602702847561,934,-0.115722656,0.6742554,-0.13189697
1602702847561,935,-0.115722656,0.6742554,-0.13189697
1602702847561,936,-0.09765625,1.1998901,-0.18218994
1602702847561,937,-0.4951172,0.88201904,-0.35406494
1602702847561,938,-0.2709961,1.4777222,-0.093811035
1602702847562,939,-0.25732422,0.9694214,-0.47198486
1602702847565,940,-0.09765625,1.1998901,-0.18218994
1602702847565,941,-0.07495117,0.42425537,-0.04083252
1602702847566,942,-0.7421875,1.6581421,-0.31915283
1602702847566,943,-0.2709961,1.4777222,-0.093811035
1602702847567,944,-0.3095703,1.2199097,-0.1350708
1602702847570,945,-0.009765625,0.23065186,-0.3255005
1602702847570,946,-0.07495117,0.42425537,-0.04083252
1602702847572,947,-0.15942383,1.6849976,-0.070373535
1602702847572,948,-0.009765625,0.23065186,-0.3255005
1602702847574,949,-0.31884766,1.0629272,-0.15802002
1602702847574,950,-0.15942383,1.6849976,-0.070373535
1602702847577,951,-0.4951172,0.88201904,-0.35406494
1602702847577,952,-0.31884766,1.0629272,-0.15802002
1602702847579,953,-0.25732422,0.9694214,-0.47198486
1602702847579,954,-0.4951172,0.88201904,-0.35406494
1602702847584,955,-0.25732422,0.9694214,-0.47198486
1602702847585,956,-0.7421875,1.6581421,-0.31915283
1602702847585,957,-0.7421875,1.6581421,-0.31915283
1602702847585,958,-0.3095703,1.2199097,-0.1350708
1602702847585,959,-0.3095703,1.2199097,-0.1350708
1602702849845,960,-0.06542969,0.28607178,-0.058166504
1602702849848,961,-0.06542969,0.28607178,-0.058166504
1602702849855,962,0.037353516,-0.28424072,-0.22979736
1602702849856,963,-0.06542969,0.28607178,-0.058166504
1602702849856,964,0.037353516,-0.28424072,-0.22979736
1602702849856,965,-0.25097656,1.5582886,-0.3303833
1602702849860,966,0.037353516,-0.28424072,-0.22979736
1602702849860,967,-0.22851562,1.7362671,-0.22589111
1602702849861,968,-0.25097656,1.5582886,-0.3303833
1602702849867,969,-0.25097656,1.5582886,-0.3303833
1602702849868,970,-0.26342773,1.0114136,-0.22662354
1602702849868,971,-0.22851562,1.7362671,-0.22589111
1602702849869,972,-0.28222656,0.022644043,-0.2185669
1602702849869,973,-0.26342773,1.0114136,-0.22662354
1602702849870,974,-0.030761719,0.3114624,-0.35357666
1602702849877,975,-0.22851562,1.7362671,-0.22589111
1602702849878,976,-0.28222656,0.022644043,-0.2185669
1602702849878,977,-0.26342773,1.0114136,-0.22662354
1602702849879,978,-0.28222656,0.022644043,-0.2185669
1602702849879,979,-0.8378906,1.999939,-0.06719971
1602702849880,980,-0.030761719,0.3114624,-0.35357666
1602702849884,981,-0.030761719,0.3114624,-0.35357666
1602702849884,982,-0.28125,1.3493042,-0.047180176
1602702849885,983,-0.8378906,1.999939,-0.06719971
1602702849885,984,-0.8378906,1.999939,-0.06719971
1602702849887,985,-0.02368164,0.44818115,-0.04522705
1602702849892,986,-0.28125,1.3493042,-0.047180176
1602702849892,987,-0.28125,1.3493042,-0.047180176
1602702849893,988,-0.02368164,0.44818115,-0.04522705
1602702849903,989,0.080078125,-0.37286377,-0.18463135
1602702849904,990,-0.02368164,0.44818115,-0.04522705
1602702849904,991,0.080078125,-0.37286377,-0.18463135
1602702849904,992,0.080078125,-0.37286377,-0.18463135
1602702849904,993,-0.07861328,1.8605347,-0.22271729
1602702849905,994,-0.07861328,1.8605347,-0.22271729
1602702849906,995,-0.2163086,1.607605,-0.066467285
1602702849911,996,-0.07861328,1.8605347,-0.22271729
1602702849912,997,-0.2163086,1.607605,-0.066467285
1602702849913,998,-0.28735352,0.9203491,-0.16461182
1602702849921,999,-0.28735352,0.9203491,-0.16461182
1602702849921,1000,-0.18237305,-0.10699463,-0.1921997
1602702849921,1001,-0.2163086,1.607605,-0.066467285
1602702849922,1002,-0.18237305,-0.10699463,-0.1921997
1602702849922,1003,-0.28735352,0.9203491,-0.16461182
1602702849922,1004,-0.2590332,0.8566284,-0.27471924
1602702849923,1005,-0.18237305,-0.10699463,-0.1921997
1602702849923,1006,-0.2590332,0.8566284,-0.27471924
1602702849924,1007,-0.5805664,1.8873901,-0.026184082
1602702849926,1008,-0.5805664,1.8873901,-0.026184082
1602702849928,1009,-0.34472656,1.2282104,0.09197998
1602702849933,1010,-0.34472656,1.2282104,0.09197998
1602702849933,1011,-0.2590332,0.8566284,-0.27471924
1602702849934,1012,0.12817383,0.039001465,-0.18023682
1602702849934,1013,-0.5805664,1.8873901,-0.026184082
1602702849935,1014,0.12817383,0.039001465,-0.18023682
1602702849941,1015,0.049316406,0.24310303,-0.26934814
1602702849942,1016,0.049316406,0.24310303,-0.26934814
1602702849942,1017,-0.22216797,1.999939,-0.08355713
1602702849943,1018,-0.35253906,1.2833862,-0.1453247
1602702849947,1019,-0.22216797,1.999939,-0.08355713
1602702849948,1020,-0.34472656,1.2282104,0.09197998
1602702849948,1021,-0.35253906,1.2833862,-0.1453247
1602702849948,1022,0.12817383,0.039001465,-0.18023682
1602702849949,1023,-0.2211914,0.4352417,-0.1416626
1602702849952,1024,0.049316406,0.24310303,-0.26934814
1602702849953,1025,-0.2211914,0.4352417,-0.1416626
1602702849953,1026,-0.12158203,-0.50128174,-0.19439697
1602702849954,1027,-0.22216797,1.999939,-0.08355713
1602702849961,1028,-0.12158203,-0.50128174,-0.19439697
1602702849962,1029,-0.83569336,1.999939,-0.074523926
1602702849962,1030,-0.83569336,1.999939,-0.074523926
1602702849962,1031,-0.35253906,1.2833862,-0.1453247
1602702849962,1032,0.020996094,1.3839722,-0.11968994
1602702849963,1033,-0.2211914,0.4352417,-0.1416626
1602702849963,1034,0.020996094,1.3839722,-0.11968994
1602702849963,1035,-0.17944336,0.87957764,0.10467529
1602702849963,1036,-0.12158203,-0.50128174,-0.19439697
1602702849964,1037,0.13623047,-0.50567627,-0.19830322
1602702849964,1038,-0.17944336,0.87957764,0.10467529
1602702849964,1039,-0.83569336,1.999939,-0.074523926
1602702849964,1040,0.051513672,1.5599976,-0.31671143
1602702849966,1041,0.020996094,1.3839722,-0.11968994
1602702849967,1042,-0.2421875,1.9362183,-0.05206299
1602702849968,1043,-0.17944336,0.87957764,0.10467529
1602702849969,1044,-0.2290039,0.98773193,-0.14752197
1602702849971,1045,0.13623047,-0.50567627,-0.19830322
1602702849972,1046,0.13623047,-0.50567627,-0.19830322
1602702849972,1047,-0.2529297,-0.0803833,-0.15142822
1602702849972,1048,0.051513672,1.5599976,-0.31671143
1602702849976,1049,0.051513672,1.5599976,-0.31671143
1602702849977,1050,-0.2421875,1.9362183,-0.05206299
1602702849977,1051,-0.2421875,1.9362183,-0.05206299
1602702849977,1052,-0.2290039,0.98773193,-0.14752197
1602702849980,1053,-0.2290039,0.98773193,-0.14752197
1602702849981,1054,-0.2529297,-0.0803833,-0.15142822
1602702849981,1055,-0.2529297,-0.0803833,-0.15142822
1602702852543,1056,0.15332031,0.41351318,-0.3171997
1602702852545,1057,0.15332031,0.41351318,-0.3171997
1602702852546,1058,0.15332031,0.41351318,-0.3171997
1602702852551,1059,-0.9116211,1.999939,0.13372803
1602702852552,1060,-0.9116211,1.999939,0.13372803
1602702852552,1061,-0.22021484,1.1608276,-0.050109863
1602702852552,1062,-0.9116211,1.999939,0.13372803
1602702852554,1063,-0.22021484,1.1608276,-0.050109863
1602702852561,1064,0.024658203,0.40374756,0.002380371
1602702852562,1065,-0.22021484,1.1608276,-0.050109863
1602702852562,1066,0.024658203,0.40374756,0.002380371
1602702852562,1067,0.0036621094,-0.24713135,-0.22247314
1602702852563,1068,0.0036621094,-0.24713135,-0.22247314
1602702852563,1069,0.024658203,0.40374756,0.002380371
1602702852563,1070,-0.15942383,1.999939,-0.10235596
1602702852568,1071,-0.15942383,1.999939,-0.10235596
1602702852568,1072,0.0036621094,-0.24713135,-0.22247314
1602702852568,1073,-0.2265625,1.3619995,-0.121398926
1602702852570,1074,-0.2265625,1.3619995,-0.121398926
1602702852571,1075,-0.27490234,0.66400146,-0.10748291
1602702852573,1076,-0.27490234,0.66400146,-0.10748291
1602702852576,1077,-0.11206055,-0.3562622,-0.17095947
1602702852576,1078,-0.15942383,1.999939,-0.10235596
1602702852577,1079,-0.11206055,-0.3562622,-0.17095947
1602702852582,1080,-0.5187988,1.5575562,-0.25201416
1602702852583,1081,-0.2265625,1.3619995,-0.121398926
1602702852583,1082,-0.5187988,1.5575562,-0.25201416
1602702852583,1083,-0.27490234,0.66400146,-0.10748291
1602702852583,1084,-0.41552734,1.6574097,-0.043273926
1602702852585,1085,-0.41552734,1.6574097,-0.043273926
1602702852586,1086,-0.18261719,1.1083374,0.035339355
1602702852590,1087,-0.18261719,1.1083374,0.035339355
1602702852591,1088,-0.11206055,-0.3562622,-0.17095947
1602702852591,1089,0.05834961,0.11419678,-0.07232666
1602702852591,1090,-0.5187988,1.5575562,-0.25201416
1602702852593,1091,0.05834961,0.11419678,-0.07232666
1602702852597,1092,-0.41552734,1.6574097,-0.043273926
1602702852598,1093,0.10571289,0.09197998,-0.2576294
1602702852598,1094,0.10571289,0.09197998,-0.2576294
1602702852604,1095,-0.18261719,1.1083374,0.035339355
1602702852605,1096,-0.3725586,1.999939,-0.2000122
1602702852606,1097,-0.3725586,1.999939,-0.2000122
1602702852607,1098,-0.007080078,1.3815308,-0.00592041
1602702852612,1099,0.05834961,0.11419678,-0.07232666
1602702852612,1100,-0.007080078,1.3815308,-0.00592041
1602702852612,1101,-0.34423828,0.5597534,-0.24176025
1602702852612,1102,0.10571289,0.09197998,-0.2576294
1602702852616,1103,-0.34423828,0.5597534,-0.24176025
1602702852617,1104,-0.068603516,-0.105529785,-0.14385986
1602702852617,1105,-0.3725586,1.999939,-0.2000122
1602702852619,1106,-0.068603516,-0.105529785,-0.14385986
1602702852621,1107,-0.007080078,1.3815308,-0.00592041
1602702852621,1108,-0.49682617,1.7963257,-0.09136963
1602702852621,1109,-0.49682617,1.7963257,-0.09136963
1602702852624,1110,-0.34423828,0.5597534,-0.24176025
1602702852625,1111,-0.19067383,1.407898,-0.12774658
1602702852625,1112,-0.19067383,1.407898,-0.12774658
1602702852625,1113,-0.2097168,0.97943115,-0.034240723
1602702852625,1114,-0.068603516,-0.105529785,-0.14385986
1602702852629,1115,-0.2097168,0.97943115,-0.034240723
1602702852630,1116,-0.10058594,0.24920654,-0.144104
1602702852630,1117,-0.49682617,1.7963257,-0.09136963
1602702852630,1118,-0.10058594,0.24920654,-0.144104
1602702852630,1119,-0.19067383,1.407898,-0.12774658
1602702852631,1120,0.1616211,0.6029663,-0.27960205
1602702852639,1121,0.1616211,0.6029663,-0.27960205
1602702852640,1122,-0.2097168,0.97943115,-0.034240723
1602702852640,1123,-0.4321289,1.8441772,-0.18145752
1602702852640,1124,0.043945312,1.1779175,-0.26690674
1602702852640,1125,-0.4321289,1.8441772,-0.18145752
1602702852641,1126,-0.10058594,0.24920654,-0.144104
1602702852641,1127,-0.41503906,0.77630615,-0.18511963
1602702852641,1128,0.1616211,0.6029663,-0.27960205
1602702852641,1129,0.043945312,1.1779175,-0.26690674
1602702852641,1130,-0.4321289,1.8441772,-0.18145752
1602702852642,1131,-0.09277344,0.13763428,-0.23272705
1602702852643,1132,-0.41503906,0.77630615,-0.18511963
1602702852645,1133,-0.3413086,1.364685,-0.2617798
1602702852645,1134,0.043945312,1.1779175,-0.26690674
1602702852645,1135,-0.09277344,0.13763428,-0.23272705
1602702852648,1136,-0.46484375,1.5411987,-0.1638794
1602702852648,1137,-0.41503906,0.77630615,-0.18511963
1602702852648,1138,-0.3413086,1.364685,-0.2617798
1602702852649,1139,-0.13061523,1.2196655,-0.15240479
1602702852652,1140,-0.46484375,1.5411987,-0.1638794
1602702852654,1141,-0.09277344,0.13763428,-0.23272705
1602702852654,1142,-0.23242188,0.63275146,-0.15460205
1602702852655,1143,-0.13061523,1.2196655,-0.15240479
1602702852656,1144,0.22558594,0.08905029,-0.26348877
1602702852658,1145,-0.23242188,0.63275146,-0.15460205
1602702852659,1146,-0.3413086,1.364685,-0.2617798
1602702852660,1147,0.22558594,0.08905029,-0.26348877
1602702852661,1148,-0.46484375,1.5411987,-0.1638794
1602702852662,1149,-0.13061523,1.2196655,-0.15240479
1602702852663,1150,-0.23242188,0.63275146,-0.15460205
1602702852665,1151,0.22558594,0.08905029,-0.26348877
1602702854946,1152,-0.19458008,1.3527222,-0.39605713
1602702854953,1153,-0.19458008,1.3527222,-0.39605713
1602702854953,1154,-0.19458008,1.3527222,-0.39605713
1602702854955,1155,-0.23095703,1.6276245,-0.19195557
1602702854956,1156,-0.23095703,1.6276245,-0.19195557
1602702854957,1157,-0.23413086,1.0390015,-0.32330322
1602702854958,1158,-0.23095703,1.6276245,-0.19195557
1602702854960,1159,-0.23413086,1.0390015,-0.32330322
1602702854961,1160,-0.23413086,1.0390015,-0.32330322
1602702854965,1161,-0.3100586,0.4833374,-0.15875244
1602702854966,1162,-0.3100586,0.4833374,-0.15875244
1602702854966,1163,-0.3100586,0.4833374,-0.15875244
1602702854967,1164,-0.23632812,-0.0051879883,-0.26153564
1602702854972,1165,-0.23632812,-0.0051879883,-0.26153564
1602702854972,1166,-0.6948242,1.6066284,-0.31207275
1602702854973,1167,-0.23632812,-0.0051879883,-0.26153564
1602702854973,1168,-0.5732422,1.4406128,-0.24102783
1602702854983,1169,-0.6948242,1.6066284,-0.31207275
1602702854983,1170,-0.6948242,1.6066284,-0.31207275
1602702854984,1171,-0.2644043,0.97161865,-0.038635254
1602702854984,1172,-0.5732422,1.4406128,-0.24102783
1602702854984,1173,-0.041259766,0.13128662,-0.10821533
1602702854985,1174,-0.5732422,1.4406128,-0.24102783
1602702854985,1175,0.0061035156,0.4784546,-0.3711548
1602702854986,1176,-0.2644043,0.97161865,-0.038635254
1602702854986,1177,-0.2644043,0.97161865,-0.038635254
1602702854991,1178,-0.57128906,1.999939,-0.22955322
1602702854991,1179,-0.041259766,0.13128662,-0.10821533
1602702854992,1180,-0.041259766,0.13128662,-0.10821533
1602702854992,1181,-0.484375,1.1984253,-0.16851807
1602702855001,1182,0.0061035156,0.4784546,-0.3711548
1602702855001,1183,0.0061035156,0.4784546,-0.3711548
1602702855002,1184,-0.57128906,1.999939,-0.22955322
1602702855002,1185,-0.27294922,0.36541748,-0.15020752
1602702855004,1186,-0.484375,1.1984253,-0.16851807
1602702855004,1187,-0.04711914,-0.31378174,-0.36114502
1602702855006,1188,-0.27294922,0.36541748,-0.15020752
1602702855015,1189,-0.9675293,1.999939,-0.10455322
1602702855016,1190,-0.04711914,-0.31378174,-0.36114502
1602702855016,1191,-0.37939453,1.3844604,-0.29351807
1602702855016,1192,-0.9675293,1.999939,-0.10455322
1602702855017,1193,-0.080078125,0.86346436,0.055847168
1602702855017,1194,-0.57128906,1.999939,-0.22955322
1602702855018,1195,0.026611328,-0.4439087,-0.25274658
1602702855018,1196,-0.484375,1.1984253,-0.16851807
1602702855020,1197,-0.37939453,1.3844604,-0.29351807
1602702855030,1198,-0.080078125,0.86346436,0.055847168
1602702855031,1199,-0.107421875,1.3422241,-0.4204712
1602702855031,1200,-0.27294922,0.36541748,-0.15020752
1602702855032,1201,0.026611328,-0.4439087,-0.25274658
1602702855032,1202,-0.04711914,-0.31378174,-0.36114502
1602702855034,1203,-0.107421875,1.3422241,-0.4204712
1602702855035,1204,-0.9675293,1.999939,-0.10455322
1602702855035,1205,-0.40625,1.8930054,-0.1951294
1602702855035,1206,-0.40625,1.8930054,-0.1951294
1602702855035,1207,-0.51049805,1.0460815,-0.19976807
1602702855036,1208,-0.37939453,1.3844604,-0.29351807
1602702855036,1209,-0.51049805,1.0460815,-0.19976807
1602702855036,1210,-0.080078125,0.86346436,0.055847168
1602702855041,1211,-0.1784668,0.2616577,-0.19683838
1602702855041,1212,-0.1784668,0.2616577,-0.19683838
1602702855042,1213,-0.09082031,-0.3994751,-0.23858643
1602702855042,1214,0.026611328,-0.4439087,-0.25274658
1602702855042,1215,-0.09082031,-0.3994751,-0.23858643
1602702855042,1216,-0.107421875,1.3422241,-0.4204712
1602702855042,1217,-0.91625977,1.999939,-0.19268799
1602702855042,1218,-0.40625,1.8930054,-0.1951294
1602702855048,1219,-0.91625977,1.999939,-0.19268799
1602702855048,1220,-0.51049805,1.0460815,-0.19976807
1602702855048,1221,-0.16113281,1.3424683,-0.1807251
1602702855048,1222,-0.1784668,0.2616577,-0.19683838
1602702855048,1223,-0.09399414,0.70599365,0.046081543
1602702855050,1224,-0.16113281,1.3424683,-0.1807251
1602702855051,1225,0.11401367,-0.55352783,-0.20733643
1602702855052,1226,-0.09399414,0.70599365,0.046081543
1602702855053,1227,-0.23730469,1.8258667,-0.206604
1602702855054,1228,-0.09082031,-0.3994751,-0.23858643
1602702855055,1229,0.11401367,-0.55352783,-0.20733643
1602702855056,1230,-0.91625977,1.999939,-0.19268799
1602702855058,1231,-0.23730469,1.8258667,-0.206604
1602702855059,1232,-0.16113281,1.3424683,-0.1807251
1602702855062,1233,-0.23120117,1.7225952,-0.11114502
1602702855063,1234,-0.23120117,1.7225952,-0.11114502
1602702855063,1235,-0.09399414,0.70599365,0.046081543
1602702855064,1236,-0.35107422,0.9381714,-0.15582275
1602702855064,1237,-0.35107422,0.9381714,-0.15582275
1602702855064,1238,0.11401367,-0.55352783,-0.20733643
1602702855070,1239,-0.1394043,-0.09454346,-0.1885376
1602702855070,1240,-0.1394043,-0.09454346,-0.1885376
1602702855070,1241,-0.23730469,1.8258667,-0.206604
1602702855071,1242,-0.064453125,0.54364014,-0.37677002
1602702855071,1243,-0.23120117,1.7225952,-0.11114502
1602702855071,1244,-0.064453125,0.54364014,-0.37677002
1602702855073,1245,-0.35107422,0.9381714,-0.15582275
1602702855075,1246,-0.1394043,-0.09454346,-0.1885376
1602702855076,1247,-0.064453125,0.54364014,-0.37677002
1602702857444,1248,-0.9538574,1.999939,0.043640137
1602702857448,1249,-0.20092773,1.1705933,-0.066223145
1602702857449,1250,-0.9538574,1.999939,0.043640137
1602702857449,1251,0.011230469,0.2753296,-0.018127441
1602702857450,1252,-0.9538574,1.999939,0.043640137
1602702857450,1253,-0.20092773,1.1705933,-0.066223145
1602702857454,1254,-0.20092773,1.1705933,-0.066223145
1602702857455,1255,0.025146484,-0.23931885,-0.22784424
1602702857455,1256,0.011230469,0.2753296,-0.018127441
1602702857455,1257,0.011230469,0.2753296,-0.018127441
1602702857458,1258,0.025146484,-0.23931885,-0.22784424
1602702857458,1259,-0.22436523,1.999939,-0.21759033
1602702857459,1260,0.025146484,-0.23931885,-0.22784424
1602702857463,1261,-0.22436523,1.999939,-0.21759033
1602702857463,1262,-0.18847656,1.4279175,-0.14068604
1602702857464,1263,-0.18847656,1.4279175,-0.14068604
1602702857464,1264,-0.22436523,1.999939,-0.21759033
1602702857465,1265,-0.34570312,0.6166382,-0.18292236
1602702857465,1266,-0.34570312,0.6166382,-0.18292236
1602702857474,1267,-0.18847656,1.4279175,-0.14068604
1602702857474,1268,-0.34570312,0.6166382,-0.18292236
1602702857474,1269,-0.12792969,-0.35406494,-0.19488525
1602702857477,1270,-0.6904297,1.7230835,-0.16314697
1602702857483,1271,-0.22216797,1.5839233,-0.16851807
1602702857483,1272,-0.12792969,-0.35406494,-0.19488525
1602702857484,1273,-0.12792969,-0.35406494,-0.19488525
1602702857486,1274,-0.12988281,0.9750366,0.06121826
1602702857488,1275,-0.6904297,1.7230835,-0.16314697
1602702857489,1276,-0.6904297,1.7230835,-0.16314697
1602702857490,1277,0.057617188,-0.20196533,-0.12188721
1602702857490,1278,-0.22216797,1.5839233,-0.16851807
1602702857501,1279,-0.22216797,1.5839233,-0.16851807
1602702857501,1280,0.013671875,0.99871826,-0.31695557
1602702857502,1281,-0.12988281,0.9750366,0.06121826
1602702857502,1282,-0.12988281,0.9750366,0.06121826
1602702857502,1283,0.057617188,-0.20196533,-0.12188721
1602702857503,1284,-0.39648438,1.8295288,-0.093811035
1602702857503,1285,0.013671875,0.99871826,-0.31695557
1602702857503,1286,-0.23120117,1.1281128,-0.16656494
1602702857503,1287,-0.39648438,1.8295288,-0.093811035
1602702857504,1288,0.057617188,-0.20196533,-0.12188721
1602702857504,1289,0.013671875,0.99871826,-0.31695557
1602702857505,1290,-0.23120117,1.1281128,-0.16656494
1602702857505,1291,-0.39648438,1.8295288,-0.093811035
1602702857506,1292,-0.26782227,0.28851318,-0.15411377
1602702857507,1293,-0.15942383,-0.18145752,-0.24639893
1602702857508,1294,-0.23120117,1.1281128,-0.16656494
1602702857510,1295,-0.26782227,0.28851318,-0.15411377
1602702857510,1296,-0.26782227,0.28851318,-0.15411377
1602702857513,1297,-0.15942383,-0.18145752,-0.24639893
1602702857514,1298,-0.9814453,1.999939,-0.04498291
1602702857515,1299,-0.15942383,-0.18145752,-0.24639893
1602702857515,1300,-0.12817383,1.2352905,-0.07647705
1602702857517,1301,-0.9814453,1.999939,-0.04498291
1602702857518,1302,-0.1003418,0.6713257,0.078552246
1602702857519,1303,0.096191406,-0.2131958,-0.19586182
1602702857521,1304,-0.12817383,1.2352905,-0.07647705
1602702857522,1305,-0.9814453,1.999939,-0.04498291
1602702857522,1306,-0.1003418,0.6713257,0.078552246
1602702857525,1307,-0.49047852,1.9638062,-0.16973877
1602702857525,1308,-0.12817383,1.2352905,-0.07647705
1602702857525,1309,0.096191406,-0.2131958,-0.19586182
1602702857528,1310,-0.25708008,1.4393921,0.13641357
1602702857528,1311,-0.1003418,0.6713257,0.078552246
1602702857530,1312,-0.30444336,0.7230835,-0.101623535
1602702857531,1313,0.096191406,-0.2131958,-0.19586182
1602702857531,1314,-0.49047852,1.9638062,-0.16973877
1602702857534,1315,-0.30664062,-0.13580322,-0.18780518
1602702857534,1316,-0.49047852,1.9638062,-0.16973877
1602702857535,1317,-0.25708008,1.4393921,0.13641357
1602702857536,1318,-0.38330078,1.3253784,-0.014953613
1602702857538,1319,-0.25708008,1.4393921,0.13641357
1602702857539,1320,-0.30444336,0.7230835,-0.101623535
1602702857539,1321,-0.30444336,0.7230835,-0.101623535
1602702857541,1322,-0.30664062,-0.13580322,-0.18780518
1602702857542,1323,-0.4753418,1.3273315,-0.016906738
1602702857542,1324,-0.30664062,-0.13580322,-0.18780518
1602702857544,1325,-0.38330078,1.3253784,-0.014953613
1602702857544,1326,-0.22973633,0.9994507,0.18255615
1602702857545,1327,-0.38330078,1.3253784,-0.014953613
1602702857546,1328,-0.4753418,1.3273315,-0.016906738
1602702857547,1329,-0.4753418,1.3273315,-0.016906738
1602702857549,1330,-0.22973633,0.9994507,0.18255615
1602702857549,1331,0.0036621094,0.43011475,-0.018127441
1602702857549,1332,-0.22973633,0.9994507,0.18255615
1602702857551,1333,-0.15917969,0.6161499,-0.1765747
1602702857552,1334,0.0036621094,0.43011475,-0.018127441
1602702857553,1335,-0.6887207,1.5929565,-0.2312622
1602702857554,1336,-0.15917969,0.6161499,-0.1765747
1602702857556,1337,-0.29638672,1.2782593,-0.19903564
1602702857557,1338,-0.6887207,1.5929565,-0.2312622
1602702857559,1339,-0.29638672,1.2782593,-0.19903564
1602702857560,1340,0.0036621094,0.43011475,-0.018127441
1602702857561,1341,-0.15917969,0.6161499,-0.1765747
1602702857562,1342,-0.6887207,1.5929565,-0.2312622
1602702857563,1343,-0.29638672,1.2782593,-0.19903564
1602702859949,1344,-0.33325195,0.75946045,-0.25177002
1602702859950,1345,-0.33325195,0.75946045,-0.25177002
1602702859950,1346,-0.33325195,0.75946045,-0.25177002
1602702859958,1347,-0.19995117,0.6095581,-0.24151611
1602702859959,1348,-0.19995117,0.6095581,-0.24151611
1602702859959,1349,-0.19995117,0.6095581,-0.24151611
1602702859959,1350,-0.1159668,0.6581421,-0.1609497
1602702859960,1351,-0.1159668,0.6581421,-0.1609497
1602702859960,1352,-0.47338867,1.4760132,-0.062561035
1602702859961,1353,-0.47338867,1.4760132,-0.062561035
1602702859961,1354,-0.1159668,0.6581421,-0.1609497
1602702859965,1355,-0.39404297,1.1229858,-0.065979004
1602702859966,1356,-0.39404297,1.1229858,-0.065979004
1602702859966,1357,-0.47338867,1.4760132,-0.062561035
1602702859966,1358,-0.16918945,0.6774292,-0.058654785
1602702859966,1359,-0.39404297,1.1229858,-0.065979004
1602702859968,1360,-0.16918945,0.6774292,-0.058654785
1602702859969,1361,-0.16918945,0.6774292,-0.058654785
1602702859971,1362,-0.2084961,0.7350464,-0.07696533
1602702859972,1363,-0.2084961,0.7350464,-0.07696533
1602702859972,1364,-0.2084961,0.7350464,-0.07696533
1602702859974,1365,-0.15454102,0.8756714,-0.011779785
1602702859977,1366,-0.15454102,0.8756714,-0.011779785
1602702859977,1367,-0.14648438,1.0114136,-0.15997314
1602702859977,1368,-0.15454102,0.8756714,-0.011779785
1602702859978,1369,-0.10864258,1.2858276,-0.13653564
1602702859979,1370,-0.14648438,1.0114136,-0.15997314
1602702859980,1371,-0.20605469,1.0219116,-0.024230957
1602702859982,1372,-0.10864258,1.2858276,-0.13653564
1602702859982,1373,-0.023925781,0.4406128,-0.14239502
1602702859985,1374,-0.20605469,1.0219116,-0.024230957
1602702859985,1375,-0.14648438,1.0114136,-0.15997314
1602702859985,1376,-0.023925781,0.4406128,-0.14239502
1602702859987,1377,-0.15185547,0.80999756,-0.14630127
1602702859988,1378,-0.15185547,0.80999756,-0.14630127
1602702859989,1379,-0.32592773,1.291687,-0.05718994
1602702859992,1380,-0.32592773,1.291687,-0.05718994
1602702859992,1381,-0.10864258,1.2858276,-0.13653564
1602702859992,1382,-0.34228516,1.0202026,-0.21026611
1602702859993,1383,-0.34228516,1.0202026,-0.21026611
1602702859996,1384,-0.59277344,0.5939331,-0.38189697
1602702859997,1385,-0.20605469,1.0219116,-0.024230957
1602702859997,1386,-0.66137695,1.5809937,-0.2930298
1602702859998,1387,-0.59277344,0.5939331,-0.38189697
1602702859999,1388,-0.023925781,0.4406128,-0.14239502
1602702860001,1389,-0.66137695,1.5809937,-0.2930298
1602702860001,1390,-0.5083008,1.4054565,-0.16583252
1602702860002,1391,-0.5083008,1.4054565,-0.16583252
1602702860004,1392,-0.15185547,0.80999756,-0.14630127
1602702860004,1393,-0.09423828,0.58929443,-0.034484863
1602702860004,1394,-0.09423828,0.58929443,-0.034484863
1602702860006,1395,-0.32592773,1.291687,-0.05718994
1602702860006,1396,0.15454102,-0.22711182,-0.1416626
1602702860006,1397,0.15454102,-0.22711182,-0.1416626
1602702860008,1398,-0.20507812,1.1210327,-0.4446411
1602702860013,1399,-0.20507812,1.1210327,-0.4446411
1602702860014,1400,-0.34228516,1.0202026,-0.21026611
1602702860014,1401,-0.45898438,1.854187,-0.17877197
1602702860014,1402,-0.59277344,0.5939331,-0.38189697
1602702860014,1403,-0.45898438,1.854187,-0.17877197
1602702860015,1404,-0.546875,1.210144,-0.2559204
1602702860016,1405,-0.546875,1.210144,-0.2559204
1602702860017,1406,-0.1315918,0.3234253,-0.206604
1602702860018,1407,-0.1315918,0.3234253,-0.206604
1602702860020,1408,-0.17944336,-0.4505005,-0.1951294
1602702860021,1409,-0.66137695,1.5809937,-0.2930298
1602702860021,1410,-0.17944336,-0.4505005,-0.1951294
1602702860023,1411,-0.8833008,1.999939,-0.16778564
1602702860023,1412,-0.5083008,1.4054565,-0.16583252
1602702860023,1413,-0.8833008,1.999939,-0.16778564
1602702860026,1414,-0.27954102,1.5241089,-0.08282471
1602702860026,1415,-0.09423828,0.58929443,-0.034484863
1602702860026,1416,-0.27954102,1.5241089,-0.08282471
1602702860027,1417,-0.15820312,0.8456421,0.008728027
1602702860028,1418,-0.15820312,0.8456421,0.008728027
1602702860029,1419,0.14208984,-0.2925415,-0.18267822
1602702860031,1420,0.14208984,-0.2925415,-0.18267822
1602702860032,1421,-0.08105469,1.1173706,-0.27374268
1602702860034,1422,-0.08105469,1.1173706,-0.27374268
1602702860035,1423,-0.21044922,1.8788452,-0.013977051
1602702860036,1424,-0.21044922,1.8788452,-0.013977051
1602702860039,1425,-0.37060547,1.137146,-0.2276001
1602702860039,1426,0.15454102,-0.22711182,-0.1416626
1602702860039,1427,-0.37060547,1.137146,-0.2276001
1602702860042,1428,-0.20507812,1.1210327,-0.4446411
1602702860042,1429,-0.45898438,1.854187,-0.17877197
1602702860043,1430,-0.546875,1.210144,-0.2559204
1602702860045,1431,-0.1315918,0.3234253,-0.206604
1602702860046,1432,-0.17944336,-0.4505005,-0.1951294
1602702860047,1433,-0.8833008,1.999939,-0.16778564
1602702860048,1434,-0.27954102,1.5241089,-0.08282471
1602702860050,1435,-0.15820312,0.8456421,0.008728027
1602702860056,1436,0.14208984,-0.2925415,-0.18267822
1602702860056,1437,-0.08105469,1.1173706,-0.27374268
1602702860056,1438,-0.21044922,1.8788452,-0.013977051
1602702860056,1439,-0.37060547,1.137146,-0.2276001
1602702862252,1440,-0.2097168,0.23480225,-0.15582275
1602702862258,1441,-0.2097168,0.23480225,-0.15582275
1602702862259,1442,-0.16601562,-0.19952393,-0.1897583
1602702862260,1443,-0.16601562,-0.19952393,-0.1897583
1602702862260,1444,-0.2097168,0.23480225,-0.15582275
1602702862265,1445,-0.90966797,1.999939,-0.13287354
1602702862265,1446,-0.16601562,-0.19952393,-0.1897583
1602702862266,1447,-0.90966797,1.999939,-0.13287354
1602702862266,1448,-0.90966797,1.999939,-0.13287354
1602702862266,1449,-0.12133789,1.298523,-0.16143799
1602702862268,1450,-0.12133789,1.298523,-0.16143799
1602702862270,1451,-0.15600586,0.76068115,0.047546387
1602702862281,1452,-0.15600586,0.76068115,0.047546387
1602702862281,1453,-0.12133789,1.298523,-0.16143799
1602702862282,1454,0.12524414,-0.121154785,-0.19268799
1602702862282,1455,-0.15600586,0.76068115,0.047546387
1602702862282,1456,0.12524414,-0.121154785,-0.19268799
1602702862283,1457,-0.14013672,1.4901733,-0.302063
1602702862283,1458,0.12524414,-0.121154785,-0.19268799
1602702862284,1459,-0.14013672,1.4901733,-0.302063
1602702862284,1460,-0.14013672,1.4901733,-0.302063
1602702862284,1461,-0.17700195,1.6466675,-0.11920166
1602702862284,1462,-0.17700195,1.6466675,-0.11920166
1602702862285,1463,-0.17700195,1.6466675,-0.11920166
1602702862285,1464,-0.30151367,1.0558472,-0.18902588
1602702862287,1465,-0.30151367,1.0558472,-0.18902588
1602702862289,1466,-0.14794922,0.12713623,-0.18365479
1602702862297,1467,-0.14794922,0.12713623,-0.18365479
1602702862298,1468,-0.30151367,1.0558472,-0.18902588
1602702862298,1469,-0.21044922,-0.018127441,-0.25250244
1602702862298,1470,-0.8442383,1.999939,-0.12335205
1602702862299,1471,-0.14794922,0.12713623,-0.18365479
1602702862299,1472,-0.23339844,1.3392944,-0.0791626
1602702862299,1473,-0.21044922,-0.018127441,-0.25250244
1602702862300,1474,-0.031982422,0.6954956,-0.007873535
1602702862301,1475,-0.8442383,1.999939,-0.12335205
1602702862306,1476,0.060058594,-0.37799072,-0.19415283
1602702862306,1477,-0.23339844,1.3392944,-0.0791626
1602702862306,1478,-0.21044922,-0.018127441,-0.25250244
1602702862306,1479,-0.031982422,0.6954956,-0.007873535
1602702862307,1480,-0.1550293,1.7782593,-0.3164673
1602702862309,1481,0.060058594,-0.37799072,-0.19415283
1602702862311,1482,-0.33007812,1.6124878,-0.04937744
1602702862311,1483,-0.8442383,1.999939,-0.12335205
1602702862311,1484,-0.1550293,1.7782593,-0.3164673
1602702862313,1485,-0.2331543,0.9664917,-0.117248535
1602702862314,1486,-0.33007812,1.6124878,-0.04937744
1602702862315,1487,-0.3322754,-0.02154541,-0.28375244
1602702862318,1488,-0.2331543,0.9664917,-0.117248535
1602702862318,1489,-0.23339844,1.3392944,-0.0791626
1602702862318,1490,-0.016601562,0.7352905,-0.23638916
1602702862319,1491,-0.3322754,-0.02154541,-0.28375244
1602702862320,1492,-0.031982422,0.6954956,-0.007873535
1602702862325,1493,-0.016601562,0.7352905,-0.23638916
1602702862325,1494,-0.68408203,1.7802124,0.07684326
1602702862325,1495,-0.68408203,1.7802124,0.07684326
1602702862325,1496,-0.19726562,1.13031,-0.024475098
1602702862326,1497,-0.19726562,1.13031,-0.024475098
1602702862326,1498,0.060058594,-0.37799072,-0.19415283
1602702862330,1499,0.014160156,0.47039795,0.007751465
1602702862330,1500,0.014160156,0.47039795,0.007751465
1602702862330,1501,-0.1550293,1.7782593,-0.3164673
1602702862330,1502,0.07885742,-0.05230713,-0.28497314
1602702862330,1503,-0.33007812,1.6124878,-0.04937744
1602702862333,1504,0.07885742,-0.05230713,-0.28497314
1602702862333,1505,-0.1743164,1.999939,-0.113342285
1602702862334,1506,-0.2331543,0.9664917,-0.117248535
1602702862335,1507,-0.1743164,1.999939,-0.113342285
1602702862337,1508,-0.3322754,-0.02154541,-0.28375244
1602702862337,1509,-0.23022461,1.2633667,-0.15924072
1602702862337,1510,-0.23022461,1.2633667,-0.15924072
1602702862339,1511,-0.016601562,0.7352905,-0.23638916
1602702862341,1512,-0.68408203,1.7802124,0.07684326
1602702862341,1513,-0.30493164,0.65960693,-0.16900635
1602702862341,1514,-0.30493164,0.65960693,-0.16900635
1602702862343,1515,-0.19726562,1.13031,-0.024475098
1602702862344,1516,-0.25048828,-0.1375122,-0.19366455
1602702862344,1517,-0.25048828,-0.1375122,-0.19366455
1602702862346,1518,0.014160156,0.47039795,0.007751465
1602702862346,1519,-0.5119629,1.414978,-0.19268799
1602702862346,1520,-0.5119629,1.414978,-0.19268799
1602702862351,1521,0.07885742,-0.05230713,-0.28497314
1602702862353,1522,-0.4543457,1.5853882,-0.14703369
1602702862353,1523,-0.4543457,1.5853882,-0.14703369
1602702862353,1524,-0.23925781,1.0602417,0.027038574
1602702862354,1525,-0.1743164,1.999939,-0.113342285
1602702862354,1526,0.043701172,0.13739014,-0.13775635
1602702862354,1527,-0.23925781,1.0602417,0.027038574
1602702862355,1528,-0.23022461,1.2633667,-0.15924072
1602702862356,1529,0.043701172,0.13739014,-0.13775635
1602702862360,1530,-0.30493164,0.65960693,-0.16900635
1602702862361,1531,-0.25048828,-0.1375122,-0.19366455
1602702862365,1532,-0.5119629,1.414978,-0.19268799
1602702862367,1533,-0.4543457,1.5853882,-0.14703369
1602702862369,1534,-0.23925781,1.0602417,0.027038574
1602702862371,1535,0.043701172,0.13739014,-0.13775635
