,accel_x,accel_y,accel_z
0,-0.18261719,0.90625,-0.234375
1,-0.22558594,0.98339844,-0.29296875
2,-0.23144531,0.9550780999999999,-0.3310547
3,-0.23828125,0.92285156,-0.30566406
4,-0.2626953,0.9091796999999998,-0.25976562
5,-0.2734375,0.9033203000000002,-0.25976562
6,-0.25878906,0.859375,-0.2861328
7,-0.20507812,0.90722656,-0.33203125
8,-0.14941406,0.8173828000000001,-0.3701172
9,-0.13183594,0.7363281,-0.3798828
10,-0.08691406,0.77734375,-0.37109375
11,-0.08984375,0.70214844,-0.34960938
12,-0.07714844,0.71484375,-0.34570312
13,0.30078125,0.8574219000000001,-0.3671875
14,0.375,0.6748046999999999,-0.328125
15,0.625,0.64160156,-0.31054688
16,1.078125,0.671875,-0.23144531
17,1.0712891000000002,0.46386720000000004,-0.171875
18,1.1816406000000002,0.42382812,-0.16015625
19,1.3095703,0.36914062,-0.11035156
20,1.3720703,0.29882812,-0.059570312
21,1.1513672,0.2529297,-0.099609375
22,1.1962891000000002,0.107421875,-0.1328125
23,0.9941405999999999,-0.00390625,-0.07421875
24,1.0351562,-0.09765625,-0.06933594
25,0.87597656,-0.15722656,-0.043945312
26,0.8613280999999999,-0.20996094,-0.026367188
27,0.7675781,-0.2421875,-0.051757812
28,0.765625,-0.13574219,-0.07519531
29,0.84472656,-0.22558594,-0.024414062
30,0.7265625,-0.0625,-0.06933594
31,0.7626953000000001,-0.12597656,-0.043945312
32,0.81933594,-0.051757812,-0.0625
33,1.1337891000000002,-0.10058594,-0.11328125
34,1.265625,-0.1015625,-0.24414062
35,1.4277343999999998,-0.3984375,-0.28125
36,1.1123047,-0.27929688,-0.375
37,1.3173828,-0.171875,-0.33984375
38,1.4580078,-0.25,-0.21289062
39,1.1748047,0.15332031,-0.27929688
40,1.2587891000000002,0.12011719,-0.23144531
41,1.140625,0.123046875,-0.19335938
42,1.0429688,0.16992188,-0.16601562
43,0.9472655999999999,0.17382812,-0.13671875
44,0.8408203000000002,0.13769531,-0.15332031
45,0.81640625,0.22851562,-0.13671875
46,0.80859375,0.21679688,-0.15429688
47,0.7558594,0.21875,-0.15429688
48,0.7265625,0.22558594,-0.14355469
49,0.6933594,0.18457031,-0.21679688
50,0.6455078000000001,0.1953125,-0.21875
51,0.99609375,0.25683594,-0.19628906
52,1.1914062,0.28710938,-0.22167969
53,1.4433593999999998,0.21484375,-0.22070312
54,1.5351562,0.28808594,-0.15527344
55,1.2519531000000002,0.1875,-0.15136719
56,1.1689453,0.30566406,-0.26660156
57,0.9609375,0.19824219,-0.31445312
58,0.8183594,0.078125,-0.29003906
59,0.7392578000000001,-0.07519531,-0.13671875
60,0.7988281,-0.15820312,-0.052734375
61,0.9003905999999999,-0.028320312,0.01171875
62,0.92089844,0.13671875,-0.048828125
63,1.0068359,0.13183594,-0.14160156
64,1.0273438,0.2109375,-0.12207031
65,1.3564453,0.125,-0.07519531
66,1.1279297,-0.051757812,-0.22851562
67,1.6699218999999996,0.11035156,-0.3251953
68,1.2324218999999998,-0.16992188,-0.38085938
69,1.15625,0.08105469,-0.3515625
70,1.265625,0.0068359375,-0.3515625
71,1.0576172,0.040039062,-0.39746094
72,0.9482421999999998,0.14355469,-0.34277344
73,1.0244141,0.27148438,-0.3076172
74,1.0107422,0.24804688,-0.2607422
75,0.94140625,0.24511719,-0.25
76,0.86816406,0.26953125,-0.21289062
77,0.7636719,0.22851562,-0.19042969
78,0.75,0.2939453,-0.15527344
79,0.8623046999999998,0.29492188,-0.09472656
80,1.1337891000000002,0.42773438,-0.11230469
81,0.9765625,0.29882812,-0.13183594
82,1.1972656000000002,0.37695312,-0.13867188
83,1.1347656000000002,0.27441406,-0.091796875
84,1.1328125,0.24707031,-0.107421875
85,0.984375,0.20019531,-0.16699219
86,0.85546875,0.23632812,-0.26171875
87,0.85058594,0.23144531,-0.31445312
88,0.8417969000000001,0.19726562,-0.3359375
89,0.8623046999999998,-0.051757812,-0.12207031
90,1.0185547,0.28222656,0.0546875
91,0.99316406,0.42773438,-0.028320312
92,0.99609375,0.33789062,-0.119140625
93,0.96777344,0.24902344,-0.17675781
94,1.3398438,0.38476562,-0.107421875
95,1.4384766000000002,0.23828125,-0.061523438
96,1.1894531000000002,0.20898438,-0.24414062
97,1.5390625,0.39257812,-0.35839844
98,1.2558593999999998,0.22363281,-0.33496094
99,1.1484375,0.13574219,-0.41113279999999996
100,1.1054688,0.1328125,-0.35742188
101,0.9824219000000001,0.20019531,-0.29785156
102,0.9658203000000002,0.2626953,-0.25390625
103,0.9189453000000002,0.31152344,-0.24023438
104,0.84765625,0.27539062,-0.1953125
105,0.70703125,0.2783203,-0.17871094
106,0.67578125,0.25195312,-0.15332031
107,0.6171875,0.25097656,-0.1171875
108,0.93066406,0.32128906,-0.091796875
109,1.1787108999999998,0.328125,-0.10449219
110,1.0361328,0.20117188,-0.11425781
111,1.4550781000000002,0.29101562,-0.099609375
112,1.2294922,0.13378906,-0.08300781
113,1.2441406000000002,0.22070312,-0.14648438
114,1.1230468999999998,0.24414062,-0.23925781
115,1.0263672,0.30566406,-0.31933594
116,0.94921875,0.2265625,-0.26464844
117,0.859375,0.0546875,-0.18164062
118,0.8027344,-0.35742188,-0.14746094
119,1.1289062,0.13085938,0.061523438
120,0.95214844,0.07714844,0.024414062
121,0.93847656,0.0546875,-0.06542969
122,0.95214844,0.18945312,-0.14160156
123,0.984375,0.1953125,-0.024414062
124,1.4550781000000002,0.2783203,0.03125
125,1.1289062,0.001953125,-0.12597656
126,1.4941406000000002,0.09667969,-0.31835938
127,1.1542968999999998,0.103515625,-0.39453125
128,1.1279297,0.123046875,-0.41503906
129,1.1328125,0.13671875,-0.43457029999999996
130,1.1123047,0.07421875,-0.47558594
131,1.0908203,0.19238281,-0.44726562
132,1.171875,0.22460938,-0.39453125
133,1.1806641000000002,0.14746094,-0.30859375
134,1.0488281000000002,0.23730469,-0.265625
135,0.89746094,0.26171875,-0.24121094
136,0.671875,0.2548828,-0.16601562
137,0.67089844,0.234375,-0.125
138,0.6894531,0.24316406,-0.1015625
139,0.9638671999999998,0.30371094,-0.08105469
140,0.95410156,0.296875,-0.16308594
141,1.171875,0.29589844,-0.16503906
142,1.3203125,0.27148438,-0.16796875
143,1.3271483999999998,0.25,-0.12597656
144,1.1972656000000002,0.35253906,-0.21777344
145,1.1484375,0.3203125,-0.27734375
146,1.1835938,0.3173828,-0.18652344
147,1.1513672,0.30371094,-0.08105469
148,1.1445312,0.22949219,-0.028320312
149,1.0419922,0.17773438,-0.00390625
150,1.0517578,0.12011719,-0.020507812
151,1.0888672,0.15625,-0.041015625
152,1.0800781000000002,0.13964844,-0.028320312
153,1.0058594,0.1796875,-0.08300781
154,0.93652344,0.140625,-0.08691406
155,0.8876953000000002,0.24316406,-0.13183594
156,0.97753906,0.171875,-0.08886719
157,0.92578125,0.1640625,-0.045898438
158,0.92089844,0.018554688,0.048828125
159,0.96191406,-0.14355469,0.12011719
160,0.9736328000000002,0.034179688,0.28125
161,1.6855468999999996,0.22070312,-0.055664062
162,0.81933594,-0.59765625,-0.8642578000000002
163,0.41601562,-0.5234375,-0.7832031
164,1.2802733999999998,0.16308594,-0.7451171999999999
165,1.5898438,-0.12695312,-0.7705078000000001
166,1.5683593999999998,0.18554688,-0.5566406
167,1.4677733999999998,0.171875,-0.49023438
168,1.390625,0.2265625,-0.3876953
169,1.2529297,0.1953125,-0.34570312
170,1.1542968999999998,0.19433594,-0.2939453
171,0.9707030999999999,0.27441406,-0.22949219
172,0.7919921999999999,0.32714844,-0.22460938
173,0.63964844,0.31152344,-0.15039062
174,0.5761719,0.3388672,-0.19628906
175,0.39746094,0.29589844,-0.24316406
176,0.38183594,0.36816406,-0.234375
177,0.34765625,0.40527344,-0.22558594
178,0.3251953,0.32421875,-0.22460938
179,0.28222656,0.34179688,-0.16503906
180,0.8798828000000002,0.59472656,-0.115234375
181,1.3183593999999998,0.6796875,-0.16210938
182,1.2685547,0.5957031,-0.083984375
183,1.4267578,0.6972656,-0.04296875
184,1.4521483999999998,0.51464844,-0.034179688
185,1.390625,0.49511720000000004,-0.09765625
186,1.3212891000000002,0.45117188,-0.20019531
187,1.2841797,0.5058594,-0.28320312
188,1.0693358999999998,0.40429688,-0.2607422
189,1.0517578,0.14941406,-0.16308594
190,0.875,-0.1640625,-0.16015625
191,0.76171875,-0.18554688,-0.06542969
192,0.61816406,0.0068359375,-0.02734375
193,0.6513671999999999,-0.055664062,0.064453125
194,0.7470703000000001,0.044921875,0.06542969
195,0.8027344,-0.0078125,0.07714844
196,0.91015625,0.12792969,0.033203125
197,1.09375,0.23828125,0.026367188
198,1.546875,0.015625,0.00390625
199,1.4667968999999998,-0.13574219,-0.34179688
200,1.3310547,0.08496094,-0.75097656
201,1.4257812,0.041992188,-0.72558594
202,1.4521483999999998,0.29003906,-0.87109375
203,1.3691406000000002,0.076171875,-0.73828125
204,1.1220703,0.29882812,-0.5644531
205,0.9785155999999999,0.38476562,-0.3623047
206,0.7783203000000001,0.29296875,-0.2685547
207,0.6386719,0.2998047,-0.203125
208,0.62890625,0.30371094,-0.1328125
209,0.5371094,0.28125,-0.15429688
210,0.5048828,0.2578125,-0.15820312
211,0.49804688,0.29003906,-0.13085938
212,0.5625,0.3466797,-0.1484375
213,0.6464844,0.36035156,-0.16210938
214,0.7998046999999999,0.38183594,-0.171875
215,1.0361328,0.3232422,-0.19628906
216,1.1962891000000002,0.33984375,-0.18164062
217,1.3017578,0.37304688,-0.2265625
218,1.6025391000000002,0.3876953,-0.20019531
219,1.4785156000000002,0.3154297,-0.08886719
220,1.3115233999999998,0.35839844,-0.12207031
221,1.1611328,0.24804688,-0.08203125
222,1.0927733999999998,0.16699219,-0.0107421875
223,0.90234375,0.078125,-0.030273438
224,0.90527344,-0.041015625,-0.0048828125
225,1.0351562,0.0009765625,-0.024414062
226,0.91796875,-0.08203125,0.01171875
227,1.015625,0.051757812,-0.015625
228,1.0322266,0.12792969,0.0107421875
229,1.1210938,0.16992188,0.08496094
230,1.1035156000000002,0.07910156,0.16503906
231,0.97558594,0.015625,0.119140625
232,0.67578125,0.0390625,0.2265625
233,1.3994141000000002,-0.13964844,-0.09375
234,0.7753906,-0.78808594,-0.53125
235,0.32617188,-0.42871094,-0.42285156
236,1.2851562,-0.640625,-0.4453125
237,1.2783203,-0.23632812,-0.48730470000000004
238,1.5175781000000002,0.43066406,-0.59472656
239,1.4960938,0.16992188,-0.54589844
240,1.4150391000000002,0.265625,-0.5527344
241,1.3417968999999998,0.26953125,-0.39941406
242,1.0117188,0.30566406,-0.36914062
243,1.0234375,0.36621094,-0.22753906
244,0.82421875,0.33691406,-0.13183594
245,0.7285156,0.41796875,-0.1484375
246,0.6015625,0.36523438,-0.08886719
247,0.52246094,0.34570312,-0.11816406
248,0.41699220000000004,0.32421875,-0.123046875
249,0.36132812,0.40625,-0.09667969
250,0.46191406,0.49414062,-0.08984375
251,0.953125,0.6435546999999999,-0.08496094
252,1.2880858999999998,0.5654296999999999,-0.11230469
253,1.0683593999999998,0.42382812,-0.18359375
254,1.4091797,0.5292969,-0.13378906
255,1.2822266000000002,0.25097656,-0.10253906
256,1.2480468999999998,0.31054688,-0.20898438
257,1.0693358999999998,0.44726562,-0.25683594
258,1.0703125,0.42871094,-0.24121094
259,0.95996094,0.30273438,-0.12402344
260,0.8310546999999998,0.23828125,-0.15820312
261,0.76660156,0.14355469,-0.16894531
262,0.7392578000000001,0.14746094,-0.123046875
263,0.7578125,0.20605469,-0.09667969
264,0.9609375,0.265625,-0.0546875
265,1.0869141000000002,0.3173828,-0.14746094
266,1.6191406000000002,0.26464844,-0.095703125
267,1.2578125,0.36328125,-0.27148438
268,1.8164061999999999,0.36132812,-0.48925779999999996
269,1.2363281000000002,0.2783203,-0.49804688
270,1.3417968999999998,0.44726562,-0.40722656
271,1.2148438,0.296875,-0.3701172
272,0.95996094,0.25976562,-0.31640625
273,0.7548828000000001,0.25195312,-0.26660156
274,0.6386719,0.29785156,-0.19042969
275,0.53222656,0.28808594,-0.15429688
276,0.48144529999999996,0.27148438,-0.14746094
277,0.5019531,0.25878906,-0.123046875
278,0.5253906,0.29589844,-0.140625
279,0.515625,0.3095703,-0.13867188
280,0.78027344,0.36914062,-0.12402344
281,1.2041016000000002,0.49316406,-0.14550781
282,1.5019531000000002,0.4091797,-0.18066406
283,1.4541016000000002,0.4609375,-0.13183594
284,1.5263672,0.6386719,0.05078125
285,1.2685547,-0.05078125,-0.2421875
286,1.1474608999999998,-0.25390625,-0.5517578000000001
287,1.0908203,0.095703125,-0.47558594
288,0.95996094,0.15625,-0.20507812
289,0.8701171999999998,0.34277344,-0.16699219
290,0.78808594,0.26367188,-0.18261719
291,0.73046875,0.20507812,-0.20996094
292,0.7314453000000001,0.15722656,-0.17675781
293,0.81933594,0.12695312,-0.17578125
294,0.7910156,0.2421875,-0.21777344
295,1.2255858999999998,0.3388672,-0.2265625
296,1.5644531000000002,0.041992188,-0.16992188
297,1.4335938,-0.038085938,-0.24316406
298,1.5527343999999998,0.21386719,-0.48632812
299,1.3476562,-0.009765625,-0.3935547
300,1.1230468999999998,-0.038085938,-0.3955078
301,0.97558594,0.07519531,-0.3203125
302,0.9453125,0.13671875,-0.28125
303,0.765625,0.20996094,-0.2763672
304,0.7207031,0.30273438,-0.25195312
305,0.6894531,0.34960938,-0.20703125
306,0.5576171999999999,0.37304688,-0.1796875
307,0.4921875,0.37109375,-0.17480469
308,0.66503906,0.49023438,-0.20410156
309,0.9921875,0.58496094,-0.25878906
310,1.0224609,0.49609375,-0.22949219
311,1.1728516000000002,0.48046875,-0.18164062
312,1.1835938,0.30273438,-0.20605469
313,0.8564453000000002,0.13671875,-0.07324219
314,0.79296875,0.17089844,-0.06542969
315,1.5458983999999998,0.3955078,-0.13183594
316,1.3203125,0.14160156,-0.037109375
317,1.578125,0.29296875,-0.42675779999999996
318,1.3125,0.27734375,-0.45800779999999996
319,1.2470703,0.27734375,-0.48144529999999996
320,1.15625,0.20703125,-0.42773438
321,1.0488281000000002,0.17578125,-0.41308594
322,0.9736328000000002,0.25585938,-0.32714844
323,0.9091796999999998,0.27734375,-0.26660156
324,0.7861328000000001,0.29296875,-0.23046875
325,0.68847656,0.3046875,-0.2109375
326,0.59472656,0.2919922,-0.15527344
327,0.46582029999999996,0.3154297,-0.13671875
328,0.6230469,0.40820312,-0.10546875
329,0.9589844000000001,0.46972656,-0.10546875
330,0.8876953000000002,0.35742188,-0.06347656
331,1.3203125,0.39453125,-0.107421875
332,1.2744141000000002,0.40429688,-0.15917969
333,1.3378906000000002,0.3330078,-0.234375
334,1.2509766000000002,0.3623047,-0.3408203
335,1.203125,0.28710938,-0.43847656
336,1.0712891000000002,0.3876953,-0.32421875
337,0.8417969000000001,0.037109375,-0.21386719
338,0.9042969000000001,-0.020507812,-0.17773438
339,0.81152344,-0.09277344,-0.09277344
340,0.82128906,-0.12988281,-0.055664062
341,0.8623046999999998,0.044921875,0.016601562
342,0.78027344,0.171875,-0.020507812
343,1.1767578,0.14453125,0.02734375
344,1.1171875,-0.21875,-0.45605470000000004
345,1.4277343999999998,0.14550781,-0.52734375
346,1.2851562,-0.21191406,-0.5029297
347,1.0390625,-0.06933594,-0.62597656
348,0.89453125,0.0146484375,-0.5292969
349,0.73046875,0.13378906,-0.40429688
350,0.73046875,0.5810546999999999,-0.40722656
351,0.71484375,0.734375,-0.45410156
352,0.7246094,0.9589844000000001,-0.47753906
353,0.9199219000000001,0.9169921999999998,-0.57128906
354,0.8310546999999998,0.82421875,-0.56347656
355,0.859375,0.74902344,-0.49804688
356,0.7558594,0.61816406,-0.47363279999999996
357,0.5048828,0.44042970000000004,-0.42773438
358,0.23828125,0.22851562,-0.23925781
359,0.9238280999999999,0.39746094,-0.17089844
360,0.94140625,0.23632812,-0.072265625
361,1.2587891000000002,0.39648438,-0.0234375
362,1.3339843999999998,0.3857422,-0.028320312
363,1.3320312,0.34570312,-0.14257812
364,1.3056641000000002,0.1875,-0.12207031
365,1.2412108999999998,0.13867188,-0.0390625
366,1.0771483999999998,0.18066406,-0.043945312
367,0.875,-0.034179688,0.01171875
368,0.7890625,0.0390625,-0.017578125
369,0.85546875,-0.057617188,-0.03125
370,1.1152343999999998,0.095703125,-0.049804688
371,2.0029296999999997,0.19433594,-0.24804688
372,1.1474608999999998,-0.0146484375,-0.9560546999999998
373,0.9482421999999998,0.37304688,-0.70703125
374,1.6933593999999996,0.13769531,-0.5839844
375,1.3964843999999998,0.15820312,-0.6015625
376,1.3007812,0.30078125,-0.45996094
377,1.1230468999999998,0.26171875,-0.3310547
378,0.96777344,0.28027344,-0.2607422
379,0.84277344,0.26367188,-0.20996094
380,0.75097656,0.2421875,-0.23925781
381,0.61328125,0.30664062,-0.21777344
382,0.5341796999999999,0.41015625,-0.16796875
383,0.5048828,0.4091797,-0.15625
384,0.37890625,0.41699220000000004,-0.18554688
385,0.38964844,0.2998047,-0.17675781
386,0.6113281,0.53027344,-0.18359375
387,0.7763671999999999,0.703125,-0.20507812
388,0.83496094,0.6855469,-0.17871094
389,0.9941405999999999,0.6386719,-0.35839844
390,1.1289062,0.5126953,-0.30078125
391,1.4199218999999998,0.57910156,-0.37695312
392,1.2890625,0.40527344,-0.43066406
393,1.1699218999999998,0.3388672,-0.42871094
394,1.0917968999999998,0.16113281,-0.22851562
395,1.0205078,0.1171875,-0.12597656
396,1.0097656,0.030273438,-0.123046875
397,0.93847656,-0.03125,-0.08300781
398,0.8808594000000001,-0.048828125,-0.038085938
399,0.85253906,-0.0009765625,-0.01953125
400,0.7949219,0.16113281,-0.036132812
401,0.7324219,0.29003906,-0.09863281
402,0.8613280999999999,0.22265625,-0.083984375
403,1.3085938,0.1015625,-0.10253906
404,1.1308593999999998,-0.12792969,-0.29589844
405,1.34375,0.08984375,-0.48535156
406,1.1884766000000002,-0.072265625,-0.44921875
407,0.98339844,0.053710938,-0.5888671999999999
408,0.9453125,-0.0068359375,-0.54785156
409,1.0048828,0.09472656,-0.54785156
410,1.21875,0.14160156,-0.5566406
411,1.0878906000000002,0.19140625,-0.5761719
412,1.1533203,0.3359375,-0.5205078
413,0.99121094,0.40234375,-0.5332031
414,1.0,0.41699220000000004,-0.51171875
415,0.8984375,0.47167970000000004,-0.515625
416,0.78125,0.5390625,-0.45410156
417,0.58496094,0.44726562,-0.41113279999999996
418,0.44140625,0.48535156,-0.3779297
419,0.34472656,0.42480470000000004,-0.31152344
420,0.26660156,0.43554688,-0.24121094
421,0.3779297,0.37304688,-0.07128906
422,1.2441406000000002,0.45410156,-0.0390625
423,1.4414062,0.30664062,0.0234375
424,1.2792968999999998,0.25976562,-0.0107421875
425,1.2724608999999998,0.19824219,0.040039062
426,1.1992188,0.3544922,0.095703125
427,1.3359375,0.5644531,-0.20019531
428,1.1201172,0.2548828,-0.107421875
429,1.2636718999999998,0.41601562,-0.12402344
430,1.1972656000000002,0.40820312,-0.123046875
431,1.1455078,0.4013672,-0.055664062
432,0.890625,0.31054688,-0.0078125
433,0.9580078000000002,0.3046875,0.046875
434,0.88183594,0.29882812,0.041992188
435,0.9160155999999999,0.27539062,0.0126953125
436,0.84472656,0.22949219,0.005859375
437,0.7763671999999999,0.2890625,-0.025390625
438,0.7519531,0.32714844,-0.076171875
439,0.81152344,0.34570312,-0.14746094
440,0.92285156,0.265625,-0.10644531
441,0.9560546999999998,0.021484375,-0.09863281
442,1.0322266,0.18164062,-0.16796875
443,1.8427734,0.08691406,-0.15722656
444,1.3925781000000002,0.37597656,-0.70214844
445,1.1240233999999998,0.359375,-0.49902344
446,1.5234375,0.16113281,-0.40820312
447,1.4501953,0.078125,-0.42675779999999996
448,1.28125,0.18652344,-0.3671875
449,1.1367188,0.2939453,-0.26660156
450,0.921875,0.21289062,-0.20507812
451,0.7636719,0.20800781,-0.17382812
452,0.6123046999999999,0.24023438,-0.19726562
453,0.6015625,0.29492188,-0.16796875
454,0.5292969,0.2529297,-0.123046875
455,0.42480470000000004,0.30859375,-0.16015625
456,0.484375,0.32617188,-0.16992188
457,0.47363279999999996,0.29589844,-0.14550781
458,0.64160156,0.35058594,-0.15332031
459,1.1474608999999998,0.46875,-0.15332031
460,1.2412108999999998,0.46679688,-0.16796875
461,1.4335938,0.5810546999999999,-0.2548828
462,1.1992188,0.44921875,-0.15722656
463,1.421875,0.45117188,-0.21679688
464,1.3193358999999998,0.40625,-0.22851562
465,1.0722656000000002,0.40722656,-0.25878906
466,1.0039062,0.37304688,-0.28222656
467,0.9638671999999998,0.2861328,-0.17089844
468,0.8925780999999999,0.25390625,-0.13183594
469,0.8076171999999999,0.26367188,-0.12109375
470,0.8388671999999998,0.2607422,-0.13769531
471,0.8046875,0.18164062,-0.10449219
472,0.73828125,0.17578125,-0.12695312
473,0.82128906,0.23242188,-0.15625
474,0.7783203000000001,0.32226562,-0.14355469
475,0.8417969000000001,0.37402344,-0.18945312
476,1.3496093999999998,0.29003906,-0.25976562
477,1.6953125,0.0390625,-0.18847656
478,1.4628906000000002,0.18554688,-0.3388672
479,1.3925781000000002,0.42480470000000004,-0.4375
480,1.3701172,0.26464844,-0.34472656
481,1.0537108999999998,0.1953125,-0.3232422
482,0.80859375,0.25390625,-0.28320312
483,0.7158203000000001,0.34472656,-0.26464844
484,0.61035156,0.37402344,-0.19335938
485,0.55371094,0.32128906,-0.15527344
486,0.45800779999999996,0.3017578,-0.16796875
487,0.48632812,0.31835938,-0.13183594
488,0.5097656,0.3330078,-0.080078125
489,0.87402344,0.48828125,-0.08496094
490,1.1904297,0.5214844,-0.21289062
491,1.2392578,0.45996094,-0.17871094
492,1.390625,0.5546875,-0.2578125
493,1.2490233999999998,0.36328125,-0.20507812
494,1.2226562,0.44433594,-0.27246094
495,1.1787108999999998,0.27148438,-0.22265625
496,0.95410156,0.26757812,-0.21972656
497,0.6660156,0.29882812,-0.18359375
498,0.6748046999999999,0.2548828,-0.14941406
499,0.6298828000000001,0.21875,-0.072265625
500,0.7714844,0.21875,-0.06738281
501,0.8095703000000001,0.25,-0.0107421875
502,0.93359375,0.37109375,-0.0703125
503,1.2617188,0.39746094,-0.07519531
504,1.7402343999999996,0.28320312,0.043945312
505,1.3173828,0.20019531,-0.12890625
506,1.3417968999999998,0.484375,-0.47167970000000004
507,1.171875,0.35742188,-0.39257812
508,1.2441406000000002,0.30273438,-0.359375
509,1.1376953,0.21777344,-0.4013672
510,0.98828125,0.21386719,-0.39648438
511,0.9433594000000001,0.31347656,-0.36132812
512,0.9003905999999999,0.30273438,-0.25878906
513,0.79589844,0.33691406,-0.24609375
514,0.6796875,0.33007812,-0.24511719
515,0.56347656,0.32421875,-0.15039062
516,0.53027344,0.27148438,-0.111328125
517,0.5888671999999999,0.31054688,-0.07421875
518,1.0722656000000002,0.47949220000000004,-0.12402344
519,1.0107422,0.45019529999999996,-0.12695312
520,1.3925781000000002,0.4609375,-0.12792969
521,1.1943358999999998,0.41210938,-0.13085938
522,1.2734375,0.3466797,-0.12109375
523,1.1650391000000002,0.28320312,-0.17089844
524,1.1054688,0.33203125,-0.24804688
525,1.0019531,0.31054688,-0.27539062
526,0.9121094000000001,0.115234375,-0.16015625
527,0.828125,-0.0126953125,-0.15820312
528,0.7783203000000001,0.020507812,-0.13574219
529,0.796875,0.15722656,-0.12890625
530,0.8359375,0.09375,-0.13085938
531,1.1933593999999998,-0.0859375,-0.15722656
532,1.4697266000000002,0.19628906,-0.3515625
533,1.1064453,0.25097656,-0.45898438
534,1.0439453,0.2607422,-0.40820312
535,1.1884766000000002,0.30664062,-0.5175781
536,0.99902344,0.25390625,-0.5576171999999999
537,0.98339844,0.41503906,-0.53027344
538,0.91796875,0.43164062,-0.43847656
539,0.9140625,0.3701172,-0.34960938
540,0.8339844000000001,0.32617188,-0.29882812
541,0.6982421999999999,0.31445312,-0.26464844
542,0.6738281,0.34375,-0.2265625
543,0.6777344,0.3388672,-0.18164062
544,0.77246094,0.34179688,-0.13671875
545,0.859375,0.33496094,-0.11328125
546,0.99609375,0.33984375,-0.13378906
547,0.9628905999999999,0.27734375,-0.123046875
548,0.77734375,0.22460938,-0.115234375
549,1.0878906000000002,0.3046875,-0.12109375
550,1.3359375,0.29101562,-0.10839844
551,1.2177733999999998,0.14160156,-0.076171875
552,1.2792968999999998,0.31347656,-0.17578125
553,1.2148438,0.25585938,-0.24511719
554,1.1523438,0.18359375,-0.18457031
555,1.0810547,0.18457031,-0.08496094
556,1.046875,0.2109375,-0.09472656
557,0.95410156,0.11230469,-0.0703125
558,0.9111328000000002,0.08886719,-0.057617188
559,0.8378905999999999,0.09082031,0.043945312
560,0.93359375,0.057617188,0.26660156
561,1.0673828,0.2705078,0.35351562
562,1.0341797,0.17871094,0.21679688
563,1.6865234,0.171875,0.25390625
564,1.484375,-0.038085938,-0.3359375
565,0.7998046999999999,-0.33203125,-0.9736328000000002
566,1.1494141000000002,-0.115234375,-0.9042969000000001
567,1.5292968999999998,-0.21191406,-0.9472655999999999
568,1.3017578,0.23242188,-0.5810546999999999
569,1.4140625,0.578125,-0.47558594
570,1.2783203,0.18652344,-0.34472656
571,1.1464843999999998,0.2939453,-0.2841797
572,0.9736328000000002,0.23925781,-0.21777344
573,0.7910156,0.26757812,-0.22363281
574,0.62597656,0.30566406,-0.24316406
575,0.62109375,0.2939453,-0.19140625
576,0.5517578000000001,0.32128906,-0.21386719
577,0.49121094,0.3623047,-0.21386719
578,0.4375,0.32714844,-0.15820312
579,0.375,0.31347656,-0.1796875
580,0.4013672,0.30078125,-0.16796875
581,0.6767578000000001,0.29589844,-0.1015625
582,1.375,0.4033203,-0.051757812
583,1.53125,0.48925779999999996,-0.08105469
584,1.5869141000000002,0.28808594,-0.24316406
585,1.6044922,0.41601562,-0.13378906
586,1.6328125,0.44238279999999996,-0.23339844
587,1.2451172,0.13671875,-0.37109375
588,1.0839843999999998,0.3671875,-0.38085938
589,0.8486328000000002,0.4765625,-0.28027344
590,0.7470703000000001,0.38183594,-0.19140625
591,0.7060546999999999,0.44335938,-0.17480469
592,0.66015625,0.32617188,-0.08105469
593,0.6386719,0.2998047,0.005859375
594,0.69433594,0.2998047,0.2626953
595,0.640625,0.43457029999999996,0.18359375
596,0.9042969000000001,0.20703125,-0.08984375
597,1.1542968999999998,0.123046875,-0.15332031
598,2.0029296999999997,0.16601562,-0.35742188
599,1.6914061999999999,0.20898438,-0.71191406
600,1.6279297,0.5136719,-0.78125
601,1.5048828,0.38085938,-0.63671875
602,1.34375,0.19042969,-0.55566406
603,1.0556641000000002,0.26171875,-0.5126953
604,0.7636719,0.3095703,-0.4033203
605,0.6191406,0.28320312,-0.3095703
606,0.50097656,0.23730469,-0.234375
607,0.43164062,0.25390625,-0.21875
608,0.4140625,0.2607422,-0.16894531
609,0.3955078,0.27246094,-0.19824219
610,0.3955078,0.25195312,-0.19726562
611,0.43847656,0.234375,-0.14941406
612,0.7089844,0.34375,-0.125
613,1.2695312,0.5107422,-0.15039062
614,1.1162108999999998,0.5283203000000001,-0.06347656
615,1.7099609,0.61035156,-0.01953125
616,1.3212891000000002,0.48242188,-0.10839844
617,1.28125,0.45117188,-0.17382812
618,1.4365233999999998,0.34960938,-0.23730469
619,1.2382812,0.29589844,-0.21484375
620,1.0742188,0.33789062,-0.08691406
621,1.0351562,0.26367188,-0.021484375
622,1.0722656000000002,0.2734375,-0.064453125
623,1.0029297,0.22753906,-0.0029296875
624,1.0595703,0.25976562,-0.0146484375
625,0.8964844000000001,0.2109375,0.0
626,0.8417969000000001,0.32714844,-0.029296875
627,1.0263672,0.5253906,-0.27734375
628,1.8417968999999996,0.0068359375,-0.5576171999999999
629,1.8271484,-0.22851562,-0.88378906
630,1.4521483999999998,-0.15820312,-1.0332031
631,1.7402343999999996,-0.37890625,-0.7832031
632,1.5839843999999998,-0.49023438,-0.78515625
633,1.2705078,-0.028320312,-0.5683594
634,1.046875,0.21972656,-0.43652344
635,0.6875,0.2626953,-0.328125
636,0.7734375,0.20800781,-0.29101562
637,0.6611328000000001,0.27539062,-0.25390625
638,0.578125,0.27148438,-0.22753906
639,0.57714844,0.2998047,-0.25
640,0.5292969,0.3388672,-0.2841797
641,0.5595703000000001,0.34375,-0.33789062
642,0.49121094,0.49707029999999996,-0.43457029999999996
643,0.42871094,0.5371094,-0.45996094
644,0.4140625,0.42773438,-0.42285156
645,0.5488281,0.33984375,-0.5136719
646,0.53222656,0.29589844,-0.5263671999999999
647,0.68359375,0.20410156,-0.57421875
648,0.7109375,0.05078125,-0.6357421999999999
649,0.8466796999999998,-0.01953125,-0.4765625
650,0.90234375,-0.09082031,-0.5888671999999999
651,0.99902344,-0.18652344,-0.5527344
652,0.9453125,-0.11230469,-0.42285156
653,0.9316405999999999,0.19238281,-0.5517578000000001
654,0.8173828000000001,0.26953125,-0.6220703000000001
655,0.8847655999999999,0.15234375,-0.6875
656,0.8515625,0.13378906,-0.6123046999999999
657,1.4951172,-0.022460938,-0.43847656
658,1.609375,0.0859375,-0.10839844
659,1.1679688,-0.095703125,-0.30664062
660,1.2148438,-0.22460938,-0.18554688
661,1.0195312,0.076171875,-0.28320312
662,1.0097656,-0.16210938,-0.22558594
663,1.1015625,0.07519531,-0.16113281
664,1.3144531000000002,-0.07128906,-0.15136719
665,1.3271483999999998,0.05859375,-0.1875
666,1.4785156000000002,0.17773438,-0.24023438
667,1.2929688,0.16503906,-0.28125
668,1.2666016000000002,0.54296875,-0.22167969
669,1.0966797,0.12988281,-0.25
670,0.7011719,0.078125,-0.35839844
671,0.48535156,0.17089844,-0.32714844
672,0.39746094,0.25097656,-0.31445312
673,0.21875,0.40625,-0.2841797
674,0.16308594,0.3798828,-0.18847656
675,0.048828125,0.3466797,-0.16503906
676,-0.0048828125,0.39941406,-0.19335938
677,0.171875,0.609375,-0.15429688
678,0.65722656,0.6435546999999999,-0.16894531
679,0.8457030999999999,0.7519531,-0.37402344
680,0.9970703000000002,0.82714844,-0.5292969
681,1.3046875,0.43261720000000004,-0.3046875
682,1.7822266,0.46777344,-0.21484375
683,1.6416016,0.484375,-0.25878906
684,1.2910156000000002,0.40527344,-0.28515625
685,1.1845703,0.29882812,-0.38183594
686,1.0146484,0.14648438,-0.28222656
687,1.0585938,0.29785156,-0.29101562
688,1.0283203,0.34570312,-0.38671875
689,0.8574219000000001,0.25976562,-0.43652344
690,0.7607421999999999,0.19921875,-0.5
691,0.7998046999999999,0.24023438,-0.3955078
692,0.9248046999999998,0.31640625,-0.3671875
693,1.3632812,0.29003906,-0.31445312
694,2.0029296999999997,0.18847656,-0.2705078
695,1.5722656000000002,-0.048828125,-0.13378906
696,1.8056641,0.15136719,-0.19238281
697,1.6347656000000002,0.234375,-0.24414062
698,1.3242188,0.296875,-0.15332031
699,0.95996094,0.22363281,-0.16894531
700,0.81152344,0.18457031,-0.22265625
701,0.6904296999999999,0.14257812,-0.14355469
702,0.48730470000000004,0.061523438,-0.12695312
703,0.48535156,0.13574219,-0.12207031
704,0.43261720000000004,0.19042969,-0.12792969
705,0.33007812,0.30273438,-0.0859375
706,0.2763672,0.3720703,-0.09472656
707,0.35058594,0.41601562,-0.17382812
708,0.33398438,0.5605469,-0.2529297
709,0.9453125,0.84375,-0.29101562
710,1.0859375,0.74609375,-0.34277344
711,1.2802733999999998,0.6455078000000001,-0.3671875
712,1.5791016000000002,0.61816406,-0.3984375
713,1.5693358999999998,0.5058594,-0.3720703
714,1.4785156000000002,0.47070312,-0.34375
715,1.1386718999999998,0.38671875,-0.23925781
716,0.9111328000000002,0.17675781,-0.111328125
717,0.8808594000000001,0.2685547,-0.24023438
718,0.7529296999999999,0.17089844,-0.35839844
719,0.671875,0.19433594,-0.39746094
720,0.625,0.27929688,-0.27539062
721,0.7285156,0.23242188,-0.12890625
722,1.4287108999999998,0.19824219,-0.103515625
723,1.7558593999999996,0.234375,-0.09863281
724,1.8925781000000004,0.26367188,-0.24511719
725,1.5517578,0.1953125,-0.22851562
726,1.7617188000000001,0.26367188,-0.13867188
727,1.3535156000000002,0.23535156,-0.16894531
728,0.9824219000000001,0.140625,-0.17871094
729,0.8183594,0.20214844,-0.20410156
730,0.7138671999999999,0.22363281,-0.18164062
731,0.56640625,0.25195312,-0.14941406
732,0.47753906,0.20605469,-0.13183594
733,0.41796875,0.17773438,-0.11328125
734,0.44238279999999996,0.29101562,-0.18945312
735,0.50097656,0.47753906,-0.16992188
736,0.8701171999999998,0.6484375,-0.20117188
737,0.6191406,0.5830078000000001,-0.28808594
738,1.0234375,0.7919921999999999,-0.35546875
739,0.8515625,0.7548828000000001,-0.5175781
740,0.9794921999999998,0.42382812,-0.3857422
741,1.1708983999999998,0.45996094,-0.3359375
742,1.2050781000000002,0.41796875,-0.2861328
743,1.0820312,0.41113279999999996,-0.25585938
744,1.0732422,0.36035156,-0.2529297
745,1.015625,0.36523438,-0.2685547
746,0.9453125,0.23339844,-0.28320312
747,0.91796875,0.07128906,-0.34472656
748,0.8613280999999999,0.28125,-0.33984375
749,0.87109375,0.36914062,-0.27246094
750,0.97753906,0.49414062,-0.32617188
751,1.0791016000000002,0.45214844,-0.30371094
752,2.0029296999999997,0.32910156,-0.24023438
753,1.3476562,-0.0029296875,-0.08984375
754,1.7490234,0.12402344,-0.15136719
755,1.5625,0.10449219,-0.14941406
756,1.1289062,0.19628906,-0.18847656
757,0.89453125,0.17675781,-0.15820312
758,0.72558594,0.40625,-0.19433594
759,0.7216796999999999,0.42773438,-0.16796875
760,0.6933594,0.44824220000000004,-0.15820312
761,0.60839844,0.45410156,-0.18652344
762,0.45996094,0.42773438,-0.21386719
763,0.29882812,0.43359375,-0.18261719
764,0.25976562,0.47949220000000004,-0.1796875
765,0.2705078,0.47363279999999996,-0.17773438
766,0.32226562,0.48046875,-0.16015625
767,0.6015625,0.52246094,-0.203125
768,0.8017578000000001,0.48632812,-0.21679688
769,1.0585938,0.5546875,-0.29882812
770,1.0068359,0.6357421999999999,-0.5
771,1.1748047,0.50683594,-0.38378906
772,1.2353516000000002,0.57128906,-0.28710938
773,1.2451172,0.53515625,-0.21484375
774,1.0712891000000002,0.4296875,-0.16894531
775,1.1025391000000002,0.38085938,-0.19335938
776,1.0859375,0.35546875,-0.26660156
777,1.1337891000000002,0.19824219,-0.22167969
778,1.0585938,0.19433594,-0.21386719
779,1.0722656000000002,0.15234375,-0.171875
780,1.0683593999999998,0.15625,-0.052734375
781,1.0800781000000002,0.068359375,0.041015625
782,1.0048828,0.040039062,0.0126953125
783,0.8955078000000002,0.10449219,0.03515625
784,0.87402344,0.11621094,0.10839844
785,0.8105469,0.0625,0.18359375
786,1.0097656,0.12207031,0.109375
787,1.7568359,-0.3388672,0.6533203000000001
788,0.9863280999999999,-0.08886719,0.0234375
789,1.3916016000000002,-0.061523438,-0.26757812
790,0.984375,-0.00390625,-0.2783203
791,0.86035156,-0.39257812,-0.57910156
792,0.7089844,0.08886719,-0.44042970000000004
793,1.3652343999999998,0.33496094,-0.3955078
794,1.0927733999999998,0.37890625,-0.32128906
795,1.3095703,0.5517578000000001,-0.2109375
796,1.3496093999999998,0.48535156,-0.10058594
797,1.2539062,0.24902344,-0.103515625
798,1.0605468999999998,0.3359375,-0.072265625
799,0.98046875,0.21289062,-0.08300781
800,0.8183594,0.27929688,-0.037109375
801,0.7470703000000001,0.2607422,-0.049804688
802,0.65527344,0.12109375,-0.091796875
803,0.6015625,0.16308594,-0.1328125
804,0.71484375,0.22460938,-0.15625
805,1.2685547,0.40429688,-0.09863281
806,1.0322266,0.40039062,-0.19433594
807,0.859375,0.51953125,-0.43261720000000004
808,0.91308594,0.5527344,-0.33398438
809,1.3271483999999998,0.47460938,-0.19921875
810,1.5078125,0.48046875,-0.37402344
811,1.3798828,0.3955078,-0.33496094
812,1.3505858999999998,0.45410156,-0.30664062
813,1.1982422,0.40527344,-0.24707031
814,0.96777344,0.41601562,-0.30273438
815,0.8378905999999999,0.22363281,-0.30078125
816,0.7841796999999999,0.41210938,-0.28808594
817,0.703125,0.34765625,-0.31445312
818,0.7451171999999999,0.33007812,-0.3984375
819,0.7910156,0.20703125,-0.29785156
820,1.0019531,0.19921875,-0.30371094
821,1.5585938,0.12109375,-0.171875
822,2.0029296999999997,0.078125,-0.24609375
823,1.5849608999999998,-0.0009765625,-0.27929688
824,1.8212891,0.19140625,-0.33398438
825,1.8505859,0.21972656,-0.2734375
826,1.3134766000000002,0.09472656,-0.29882812
827,1.0244141,0.23730469,-0.3232422
828,0.90234375,0.31640625,-0.29101562
829,0.72558594,0.38671875,-0.2705078
830,0.609375,0.37597656,-0.26953125
831,0.56347656,0.44433594,-0.24121094
832,0.42773438,0.453125,-0.22363281
833,0.25097656,0.47558594,-0.28222656
834,0.09863281,0.453125,-0.29296875
835,0.030273438,0.40527344,-0.23144531
836,0.021484375,0.3671875,-0.22949219
837,0.13476562,0.44433594,-0.20898438
838,0.44335938,0.5078125,-0.14648438
839,0.6015625,0.5283203000000001,-0.234375
840,0.8515625,0.5917969,-0.28710938
841,1.1230468999999998,0.8261719000000001,-0.45410156
842,1.1503906000000002,0.53222656,-0.3701172
843,1.3300781000000002,0.56347656,-0.37304688
844,1.2646483999999998,0.53222656,-0.3203125
845,1.3085938,0.5341796999999999,-0.24023438
846,1.2841797,0.47851562,-0.2421875
847,1.2119141000000002,0.3466797,-0.26367188
848,1.2128906000000002,0.296875,-0.25
849,1.1777343999999998,0.23730469,-0.21777344
850,1.0644531000000002,0.08203125,-0.17480469
851,0.96777344,0.0078125,-0.13476562
852,1.0078125,-0.016601562,-0.0625
853,1.046875,-0.048828125,0.00390625
854,1.0351562,0.13671875,-0.053710938
855,0.95410156,0.26464844,-0.10546875
856,0.8876953000000002,0.13085938,-0.080078125
857,0.7998046999999999,0.11621094,-0.14941406
858,0.8310546999999998,0.018554688,-0.06542969
859,1.1240233999999998,0.099609375,-0.12011719
860,1.8046875,-0.375,0.41796875
861,1.4072266000000002,-0.48535156,-0.26464844
862,1.1503906000000002,-0.34179688,-0.39746094
863,0.8701171999999998,0.04296875,-0.6982421999999999
864,1.1035156000000002,0.072265625,-0.38671875
865,1.0810547,0.41210938,-0.3232422
866,1.3349608999999998,0.34277344,-0.22949219
867,1.4853516000000002,0.3154297,-0.14453125
868,1.515625,0.27929688,-0.18261719
869,1.3095703,0.3154297,-0.13867188
870,1.0585938,0.35351562,-0.20507812
871,0.7939453000000001,0.36132812,-0.14941406
872,0.6699219,0.49707029999999996,-0.1171875
873,0.5263671999999999,0.3876953,-0.078125
874,0.41113279999999996,0.3310547,-0.115234375
875,0.3408203,0.20605469,-0.12402344
876,0.2939453,0.15234375,-0.109375
877,0.24902344,0.23535156,-0.107421875
878,0.85058594,0.38671875,-0.125
879,1.0771483999999998,0.5332031,-0.15917969
880,1.2207031000000002,0.78027344,-0.38867188
881,1.2773438,0.72558594,-0.41796875
882,1.5058593999999998,0.60839844,-0.26757812
883,1.6826172,0.5888671999999999,-0.22949219
884,1.5029297,0.46484375,-0.16992188
885,1.4121093999999998,0.41796875,-0.24804688
886,1.2109375,0.41992188,-0.24121094
887,1.0214844,0.45117188,-0.203125
888,1.0332031,0.5078125,-0.26464844
889,0.8339844000000001,0.42089844,-0.34375
890,0.66308594,0.38085938,-0.3701172
891,0.6767578000000001,0.36035156,-0.38378906
892,0.6767578000000001,0.24609375,-0.3232422
893,0.828125,0.20898438,-0.22851562
894,1.5195312,0.28515625,-0.2607422
895,1.6513672,-0.029296875,0.0146484375
896,2.0029296999999997,0.30371094,-0.32421875
897,1.6083983999999998,0.009765625,-0.17285156
898,1.6230468999999998,0.3076172,-0.1953125
899,1.3798828,0.14648438,-0.19042969
900,1.0166016,0.2421875,-0.19628906
901,0.9013671999999998,0.18457031,-0.16894531
902,0.7558594,0.20898438,-0.1484375
903,0.6542969,0.22070312,-0.17480469
904,0.6347656,0.25,-0.15039062
905,0.5605469,0.2529297,-0.103515625
906,0.5185547,0.22363281,-0.0625
907,0.42480470000000004,0.2626953,-0.07324219
908,0.33789062,0.30078125,-0.12890625
909,0.3984375,0.45117188,-0.16113281
910,0.82421875,0.6484375,-0.20019531
911,0.9404296999999998,0.6513671999999999,-0.25390625
912,1.3837891000000002,0.7158203000000001,-0.3203125
913,1.4414062,0.6542969,-0.30859375
914,1.4648438,0.6308594,-0.18847656
915,1.3388672,0.7167969,-0.23730469
916,1.3398438,0.49804688,-0.2578125
917,1.2236328,0.3828125,-0.32226562
918,1.1132812,0.421875,-0.41015625
919,0.8408203000000002,0.3310547,-0.42089844
920,0.8183594,0.35058594,-0.33203125
921,0.72265625,0.17480469,-0.29785156
922,0.67089844,0.1328125,-0.26171875
923,0.6582031,0.13964844,-0.26953125
924,0.70703125,0.13964844,-0.14355469
925,1.2548828,0.12597656,-0.08886719
926,1.6425781000000004,0.099609375,-0.06542969
927,1.7490234,0.32617188,-0.20605469
928,1.9462891,0.24511719,-0.24414062
929,1.6572266,0.13574219,-0.18164062
930,1.4404297,0.25976562,-0.25585938
931,1.0537108999999998,0.11328125,-0.22265625
932,0.79296875,0.12988281,-0.234375
933,0.69433594,0.25,-0.203125
934,0.6455078000000001,0.19042969,-0.16796875
935,0.5800781,0.1328125,-0.12695312
936,0.5683594,0.13671875,-0.09472656
937,0.48535156,0.16699219,-0.10058594
938,0.41601562,0.2861328,-0.14160156
939,0.85839844,0.4296875,-0.09667969
940,0.7294921999999999,0.47753906,-0.21679688
941,0.80078125,0.60058594,-0.26464844
942,0.9482421999999998,0.7324219,-0.45214844
943,1.0722656000000002,0.5175781,-0.34765625
944,1.3222656000000002,0.6113281,-0.35351562
945,1.2763672,0.53808594,-0.17675781
946,1.15625,0.50390625,-0.20605469
947,1.0605468999999998,0.44726562,-0.24414062
948,1.0419922,0.4296875,-0.24707031
949,0.93652344,0.44140625,-0.1953125
950,1.0185547,0.5019531,-0.22949219
951,0.9140625,0.51953125,-0.31933594
952,0.92578125,0.26660156,-0.38964844
953,0.9199219000000001,-0.052734375,-0.33691406
954,1.2539062,0.41308594,-0.3232422
955,1.2529297,0.41796875,-0.23828125
956,1.5986328,0.37890625,-0.35839844
957,1.6835938000000001,0.19726562,-0.12988281
958,1.5771483999999998,0.23828125,-0.17675781
959,1.4082031000000002,0.28027344,-0.17871094
960,1.2392578,0.33398438,-0.11816406
961,1.0449219,0.31835938,-0.16796875
962,0.86328125,0.32617188,-0.17675781
963,0.7675781,0.31933594,-0.18847656
964,0.75878906,0.27246094,-0.18359375
965,0.63183594,0.20507812,-0.16308594
966,0.5214844,0.30566406,-0.16699219
967,0.36132812,0.33984375,-0.14550781
968,0.3251953,0.39648438,-0.16210938
969,0.3955078,0.51953125,-0.19433594
970,0.8691405999999999,0.5751953000000001,-0.12890625
971,0.64160156,0.49609375,-0.24804688
972,0.6269531,0.5644531,-0.2919922
973,1.0039062,0.625,-0.42480470000000004
974,0.92871094,0.43359375,-0.38183594
975,1.1953125,0.49121094,-0.3388672
976,1.1669922,0.39648438,-0.29882812
977,1.1933593999999998,0.3203125,-0.25
978,1.2216797,0.30566406,-0.24414062
979,1.3447266000000002,0.30273438,-0.24023438
980,1.2470703,0.29882812,-0.2783203
981,1.1699218999999998,0.22460938,-0.31933594
982,1.0292969,0.28027344,-0.36132812
983,0.8544921999999998,0.30859375,-0.31445312
984,0.86035156,0.31445312,-0.22265625
985,0.88183594,0.35058594,-0.15625
986,1.0498047,0.40722656,-0.16601562
987,1.328125,0.39746094,-0.1953125
988,1.1835938,0.20996094,-0.23242188
989,1.3486328,0.3388672,-0.24804688
990,1.2148438,0.30664062,-0.17675781
991,1.390625,0.33496094,-0.14746094
992,1.4384766000000002,0.22851562,-0.24902344
993,1.2324218999999998,0.1875,-0.234375
994,1.0712891000000002,0.375,-0.31445312
995,1.0683593999999998,0.46191406,-0.3564453
996,0.8183594,0.40527344,-0.3310547
997,0.6142578000000001,0.43457029999999996,-0.34765625
998,0.5136719,0.45214844,-0.32617188
999,0.47070312,0.49902344,-0.22070312
1000,0.43164062,0.38867188,-0.24804688
1001,0.43457029999999996,0.27929688,-0.28027344
1002,0.2890625,0.17773438,-0.34960938
1003,0.48925779999999996,0.41113279999999996,-0.24121094
1004,1.7539061999999999,0.3935547,0.038085938
1005,1.3349608999999998,0.6816406,-0.14257812
1006,1.1738281000000002,0.78515625,-0.36914062
1007,0.97558594,0.84375,-0.13671875
1008,1.390625,0.7792969,0.021484375
1009,1.1494141000000002,0.5917969,-0.00390625
1010,1.2148438,0.5654296999999999,-0.09765625
1011,1.1074218999999998,0.6767578000000001,-0.08496094
1012,1.09375,0.54296875,-0.041015625
1013,0.9580078000000002,0.43164062,-0.10253906
1014,0.98339844,0.33398438,-0.31933594
1015,0.95703125,0.15136719,-0.18945312
1016,0.7324219,0.31152344,-0.31054688
1017,0.7675781,-0.23730469,-0.31054688
1018,0.7314453000000001,-0.10839844,-0.30273438
1019,0.7207031,0.15136719,-0.3232422
1020,0.84375,0.07519531,-0.31152344
1021,0.8261719000000001,0.13378906,-0.30859375
1022,1.3769531000000002,0.12402344,-0.29101562
1023,1.9287109,-0.23828125,-0.11230469
1024,1.4521483999999998,-0.3076172,-0.19335938
1025,1.3662108999999998,-0.24414062,-0.17578125
1026,1.5390625,-0.080078125,-0.09863281
1027,1.3144531000000002,0.08105469,-0.16992188
1028,1.109375,0.013671875,-0.26953125
1029,1.0498047,0.11816406,-0.25585938
1030,1.0126953,0.14257812,-0.26757812
1031,0.9394530999999999,0.24902344,-0.2265625
1032,0.76464844,0.3251953,-0.171875
1033,0.5703125,0.2998047,-0.115234375
1034,0.37695312,0.29785156,-0.16894531
1035,0.3388672,0.2998047,-0.10253906
1036,0.38671875,0.37109375,-0.12109375
1037,0.33496094,0.3046875,-0.1875
1038,0.31640625,0.4091797,-0.21386719
1039,0.9013671999999998,0.45410156,-0.15722656
1040,0.9003905999999999,0.5048828,-0.1640625
1041,1.2705078,0.58496094,-0.3408203
1042,1.4755858999999998,0.5498046999999999,-0.41015625
1043,1.4707031000000002,0.36328125,-0.115234375
1044,1.5693358999999998,0.46484375,-0.12792969
1045,1.4033203,0.35253906,-0.13085938
1046,1.4179688,0.28710938,-0.1953125
1047,1.2363281000000002,0.37304688,-0.16992188
1048,1.1083983999999998,0.46289062,-0.078125
1049,1.0185547,0.44042970000000004,0.0
1050,0.9736328000000002,0.35058594,-0.103515625
1051,0.8828125,0.1015625,-0.21875
1052,0.80078125,0.20410156,-0.22167969
1053,0.7363281,0.2109375,-0.16308594
1054,0.73046875,0.18554688,-0.0859375
1055,1.0361328,0.33984375,-0.123046875
1056,1.3339843999999998,0.29882812,-0.171875
1057,1.2451172,0.2548828,-0.27441406
1058,1.2353516000000002,0.27929688,-0.34179688
1059,1.3183593999999998,0.24023438,-0.265625
1060,1.3691406000000002,0.35742188,-0.34960938
1061,1.3554688,0.31640625,-0.36914062
1062,1.1386718999999998,0.33398438,-0.36132812
1063,1.1191406000000002,0.44042970000000004,-0.296875
1064,1.0087891,0.45800779999999996,-0.3173828
1065,0.8984375,0.49609375,-0.3515625
1066,0.71875,0.45898438,-0.3154297
1067,0.64746094,0.48632812,-0.30859375
1068,0.5625,0.35839844,-0.26757812
1069,0.3984375,0.36328125,-0.29101562
1070,0.30859375,0.27734375,-0.21289062
1071,0.28808594,0.27441406,-0.19824219
1072,0.47851562,0.5595703000000001,-0.06933594
1073,1.3632812,0.8730469000000001,0.03125
1074,1.1269531000000002,0.6347656,-0.0107421875
1075,1.078125,0.8222655999999999,-0.3779297
1076,1.0195312,0.625,-0.29296875
1077,1.3144531000000002,0.4140625,-0.21679688
1078,1.3056641000000002,0.47460938,-0.17480469
1079,1.3183593999999998,0.5761719,-0.16894531
1080,1.3574218999999998,0.5732421999999999,-0.125
1081,1.1933593999999998,0.44921875,-0.10058594
1082,1.0390625,0.390625,-0.12011719
1083,0.9375,0.2763672,-0.13378906
1084,0.8105469,0.31054688,-0.17578125
1085,0.75390625,0.26171875,-0.203125
1086,0.73535156,0.33789062,-0.21875
1087,0.6347656,0.33984375,-0.24609375
1088,0.6074219,0.32128906,-0.265625
1089,0.77246094,0.27246094,-0.265625
1090,1.1181641000000002,0.046875,-0.3125
1091,2.0029296999999997,0.047851562,-0.045898438
1092,1.6005858999999998,-0.33691406,-0.1953125
1093,1.2324218999999998,-0.43652344,-0.3876953
1094,1.2568358999999998,0.13378906,-0.18261719
1095,1.4619141000000002,0.10058594,-0.12109375
1096,1.2763672,0.15722656,-0.21289062
1097,1.0400391,0.23339844,-0.17773438
1098,0.9794921999999998,0.27734375,-0.18554688
1099,0.8925780999999999,0.24121094,-0.16992188
1100,0.7207031,0.22949219,-0.19042969
1101,0.71875,0.32421875,-0.17285156
1102,0.44824220000000004,0.37890625,-0.15039062
1103,0.31445312,0.3388672,-0.057617188
1104,0.40820312,0.3779297,-0.17382812
1105,0.45996094,0.20019531,-0.19433594
1106,0.63964844,0.38085938,-0.10839844
1107,1.2539062,0.3046875,-0.06738281
1108,1.015625,0.47753906,-0.21972656
1109,1.2939453,0.6152344,-0.51953125
1110,1.2373047,0.24707031,-0.26953125
1111,1.4160156000000002,0.35253906,-0.2783203
1112,1.4267578,0.34765625,-0.19726562
1113,1.3066406000000002,0.3515625,-0.22167969
1114,1.2304688,0.35058594,-0.32910156
1115,1.0214844,0.3173828,-0.25390625
1116,0.9316405999999999,0.453125,-0.15917969
1117,0.86621094,0.42382812,-0.14160156
1118,0.875,0.3642578,-0.21582031
1119,0.8671875,0.17480469,-0.34570312
1120,0.90527344,0.28320312,-0.4140625
1121,1.4658203,0.28222656,-0.34570312
1122,1.7978516,0.20507812,-0.24804688
1123,1.5322266000000002,0.051757812,-0.091796875
1124,1.6416016,0.1484375,-0.11816406
1125,1.5673828,0.16503906,-0.23242188
1126,1.3027343999999998,0.25976562,-0.2890625
1127,1.0830078,0.21484375,-0.18945312
1128,1.0048828,0.22167969,-0.091796875
1129,0.85058594,0.22949219,-0.099609375
1130,0.68359375,0.15429688,-0.10546875
1131,0.6845703000000001,0.20410156,-0.12597656
1132,0.5878906,0.3017578,-0.06933594
1133,0.45214844,0.32421875,-0.07910156
1134,0.34960938,0.43066406,-0.18359375
1135,0.32910156,0.47070312,-0.22558594
1136,0.6669921999999999,0.6201171999999999,-0.18847656
1137,0.7050781,0.57910156,-0.2626953
1138,0.9472655999999999,0.6484375,-0.29492188
1139,1.0488281000000002,0.67871094,-0.41601562
1140,1.2890625,0.50683594,-0.34375
1141,1.4072266000000002,0.46484375,-0.31347656
1142,1.3251953,0.45800779999999996,-0.328125
1143,1.1591797,0.63378906,-0.26757812
1144,0.9794921999999998,0.12792969,-0.17773438
1145,0.96484375,0.20605469,-0.22363281
1146,0.8701171999999998,0.31054688,-0.30078125
1147,0.8964844000000001,0.296875,-0.3779297
1148,0.80078125,0.35351562,-0.4091797
1149,0.83691406,0.234375,-0.43066406
1150,1.4101562,0.2998047,-0.42382812
1151,1.5917968999999998,0.16796875,-0.15527344
1152,2.0029296999999997,-0.01953125,-0.068359375
1153,1.6689453,0.14257812,-0.18066406
1154,1.7333984,0.24609375,-0.2548828
1155,1.4785156000000002,0.11425781,-0.2734375
1156,1.1074218999999998,0.09082031,-0.24023438
1157,0.8613280999999999,0.15429688,-0.24023438
1158,0.68359375,0.25390625,-0.20214844
1159,0.7402344,0.42578125,-0.19335938
1160,0.66796875,0.31933594,-0.15332031
1161,0.47460938,0.31054688,-0.103515625
1162,0.3671875,0.4013672,-0.111328125
1163,0.20898438,0.40234375,-0.125
1164,0.029296875,0.41503906,-0.13964844
1165,0.07910156,0.59277344,-0.18457031
1166,0.2578125,0.73828125,-0.3046875
1167,0.43554688,0.73535156,-0.35546875
1168,0.49511720000000004,0.8330078000000002,-0.3232422
1169,0.8769530999999999,0.8251953000000002,-0.32226562
1170,1.2294922,0.5332031,-0.3466797
1171,1.3076172,0.33789062,-0.38085938
1172,1.5048828,0.45507812,-0.3408203
1173,1.3535156000000002,0.40820312,-0.296875
1174,1.1767578,0.22851562,-0.30371094
1175,1.1259766000000002,0.42382812,-0.36914062
1176,0.7871094,0.5410156,-0.38183594
1177,0.75683594,0.38671875,-0.38378906
1178,0.8046875,0.31054688,-0.37597656
1179,0.8808594000000001,0.2705078,-0.27929688
1180,1.2705078,0.3388672,-0.2548828
1181,1.6328125,0.08300781,0.038085938
1182,1.3300781000000002,0.12011719,-0.06542969
1183,1.8789061999999999,0.16113281,-0.16113281
1184,1.3085938,0.36523438,-0.23144531
1185,1.1005858999999998,0.33007812,-0.19335938
1186,0.9189453000000002,0.3984375,-0.21289062
1187,0.8310546999999998,0.39257812,-0.2529297
1188,0.6621094,0.40039062,-0.25
1189,0.6513671999999999,0.43164062,-0.22070312
1190,0.53222656,0.3154297,-0.19335938
1191,0.44921875,0.375,-0.18847656
1192,0.296875,0.3701172,-0.18261719
1193,0.2529297,0.3798828,-0.21289062
1194,0.3642578,0.47949220000000004,-0.15136719
1195,0.7705078000000001,0.47265625,-0.12695312
1196,0.5253906,0.45800779999999996,-0.23730469
1197,1.0332031,0.60058594,-0.25683594
1198,1.046875,0.66796875,-0.42285156
1199,1.1162108999999998,0.45703125,-0.29492188
1200,1.2216797,0.54589844,-0.27539062
1201,1.2578125,0.35839844,-0.16113281
1202,1.3320312,0.3515625,-0.1796875
1203,1.2978516000000002,0.29101562,-0.20703125
1204,1.3535156000000002,0.2626953,-0.20703125
1205,1.3115233999999998,0.34179688,-0.19824219
1206,1.1201172,0.3046875,-0.15917969
1207,1.0117188,0.18261719,-0.08300781
1208,0.9814453000000002,0.17285156,-0.022460938
1209,0.9580078000000002,0.19238281,0.044921875
1210,0.9638671999999998,0.12988281,0.034179688
1211,0.88964844,-0.037109375,0.15136719
1212,1.2783203,0.12890625,0.041992188
1213,1.4658203,-0.33007812,0.32128906
1214,0.9951171999999998,-0.30566406,-0.27148438
1215,0.75683594,-0.2890625,-0.21191406
1216,1.3066406000000002,-0.22753906,-0.018554688
1217,0.9550780999999999,-0.21972656,-0.30371094
1218,0.80566406,-0.1953125,-0.38476562
1219,1.2460938,0.16894531,-0.3701172
1220,1.234375,0.45800779999999996,-0.45019529999999996
1221,1.4589843999999998,0.50683594,-0.32226562
1222,1.4658203,0.390625,-0.28222656
1223,1.2929688,0.46972656,-0.20214844
1224,1.1259766000000002,0.42382812,-0.21289062
1225,0.9423828000000002,0.42871094,-0.16601562
1226,0.8251953000000002,0.45019529999999996,-0.11621094
1227,0.5097656,0.39160156,-0.15039062
1228,0.37304688,0.3408203,-0.14941406
1229,0.36328125,0.2861328,-0.12402344
1230,0.24511719,0.29003906,-0.16503906
1231,0.3623047,0.3076172,-0.21484375
1232,0.74609375,0.42480470000000004,-0.10839844
1233,1.1523438,0.49511720000000004,0.009765625
1234,0.8691405999999999,0.61621094,-0.23046875
1235,1.1660156000000002,0.8330078000000002,-0.48046875
1236,1.0019531,0.43945312,-0.29003906
1237,1.3066406000000002,0.43457029999999996,-0.25097656
1238,1.3574218999999998,0.52441406,-0.22265625
1239,1.2529297,0.48925779999999996,-0.14160156
1240,1.15625,0.45605470000000004,-0.18457031
1241,1.1494141000000002,0.39257812,-0.1953125
1242,1.0556641000000002,0.33203125,-0.15722656
1243,1.0566406000000002,0.45019529999999996,-0.11816406
1244,0.93359375,0.5107422,-0.2626953
1245,0.8671875,0.103515625,-0.28320312
1246,0.8417969000000001,0.026367188,-0.34765625
1247,1.2822266000000002,0.2763672,-0.29785156
1248,1.453125,0.19335938,-0.038085938
1249,1.328125,-0.44042970000000004,-0.083984375
1250,1.4140625,-0.421875,0.123046875
1251,1.2304688,0.14941406,-0.09765625
1252,1.3798828,0.3486328,-0.47753906
1253,1.3300781000000002,0.17578125,-0.29003906
1254,1.3232422,0.21972656,-0.21777344
1255,1.1640625,0.17578125,-0.2607422
1256,1.15625,0.28125,-0.23925781
1257,0.98046875,0.34570312,-0.18359375
1258,0.7519531,0.2890625,-0.18554688
1259,0.5253906,0.2841797,-0.1484375
1260,0.35742188,0.38867188,-0.13769531
1261,0.21582031,0.42480470000000004,-0.140625
1262,0.296875,0.42285156,-0.16503906
1263,0.43066406,0.46972656,-0.15234375
1264,0.6796875,0.51171875,-0.20507812
1265,0.5576171999999999,0.48046875,-0.22265625
1266,0.92089844,0.6542969,-0.3466797
1267,0.84375,0.6503906,-0.39648438
1268,1.0751953,0.51953125,-0.20019531
1269,1.0986328,0.578125,-0.23339844
1270,1.1513672,0.49609375,-0.15722656
1271,1.1621093999999998,0.4140625,-0.15429688
1272,1.1748047,0.3203125,-0.21386719
1273,1.2255858999999998,0.1875,-0.2265625
1274,1.3330078,0.15039062,-0.19628906
1275,1.3349608999999998,0.14453125,-0.21386719
1276,1.2460938,0.14746094,-0.265625
1277,1.1425781000000002,0.12890625,-0.18847656
1278,1.0253906,0.12988281,-0.17871094
1279,0.94921875,0.13769531,-0.0859375
1280,0.9658203000000002,0.26171875,-0.08984375
1281,0.9267578000000002,0.15625,-0.07324219
1282,0.8173828000000001,0.20507812,-0.083984375
1283,0.9169921999999998,0.19042969,-0.421875
1284,1.6367188,0.1640625,-0.32714844
1285,1.4296875,-0.016601562,-0.3095703
1286,1.390625,0.19042969,-0.19433594
1287,1.3378906000000002,0.30859375,-0.21679688
1288,1.1787108999999998,0.27539062,-0.20214844
1289,1.0439453,0.4091797,-0.20214844
1290,0.84765625,0.44433594,-0.23730469
1291,0.7753906,0.45507812,-0.296875
1292,0.6230469,0.5107422,-0.29882812
1293,0.44628906,0.48632812,-0.3564453
1294,0.29003906,0.44726562,-0.34960938
1295,0.20996094,0.41796875,-0.26953125
1296,0.055664062,0.37695312,-0.20996094
1297,0.043945312,0.2705078,-0.15820312
1298,0.07324219,0.22265625,-0.11816406
1299,0.12890625,0.34765625,-0.07519531
1300,0.6230469,0.3857422,-0.055664062
1301,0.9980469000000001,0.6894531,-0.16894531
1302,0.9951171999999998,0.91796875,-0.578125
1303,1.1171875,0.75,-0.41113279999999996
1304,1.2734375,1.0810547,-0.4140625
1305,1.2607422,0.7890625,-0.234375
1306,1.3974608999999998,0.6191406,-0.19726562
1307,1.4980468999999998,0.5029297,-0.3544922
1308,1.3544922,0.453125,-0.35253906
1309,1.1591797,0.45605470000000004,-0.35058594
1310,0.9941405999999999,0.44140625,-0.3095703
1311,0.828125,0.47558594,-0.31054688
1312,0.81152344,0.43066406,-0.375
1313,0.77441406,0.19921875,-0.46582029999999996
1314,0.81640625,0.13183594,-0.43945312
1315,0.9433594000000001,0.14257812,-0.24023438
1316,1.3466797,0.19628906,-0.09863281
1317,1.6503906000000004,-0.057617188,-0.036132812
1318,1.7685547,-0.18457031,-0.25195312
1319,1.5976562,0.0,-0.23925781
1320,1.6748047,0.12890625,-0.1640625
1321,1.5117188,0.07714844,-0.1328125
1322,1.1669922,0.13085938,-0.140625
1323,0.96191406,0.119140625,-0.07324219
1324,0.82910156,0.19628906,-0.17773438
1325,0.80078125,0.39453125,-0.25390625
1326,0.62402344,0.16503906,-0.17578125
1327,0.5644531,0.2548828,-0.13769531
1328,0.45117188,0.21289062,-0.123046875
1329,0.359375,0.32128906,-0.13476562
1330,0.42871094,0.49707029999999996,-0.0859375
1331,0.7011719,0.53808594,-0.13769531
1332,0.55566406,0.5957031,-0.23535156
1333,0.9589844000000001,0.75878906,-0.31054688
1334,1.0078125,0.6308594,-0.29101562
1335,1.2158203,0.5546875,-0.29003906
1336,1.3251953,0.51660156,-0.16503906
1337,1.3603516000000002,0.48339844,-0.13769531
1338,1.3037108999999998,0.39160156,-0.18066406
1339,1.1962891000000002,0.3359375,-0.20117188
1340,1.1376953,0.3876953,-0.234375
1341,1.0146484,0.47753906,-0.24316406
1342,0.8779296999999998,0.48144529999999996,-0.2685547
1343,0.9003905999999999,0.49121094,-0.3310547
1344,0.7949219,0.38867188,-0.38671875
1345,1.234375,0.31445312,-0.49609375
1346,1.8037109,0.23046875,-0.17871094
1347,1.4785156000000002,-0.001953125,-0.087890625
1348,1.8164061999999999,-0.10644531,-0.1875
1349,1.5703125,0.16894531,-0.19921875
1350,1.4150391000000002,0.29882812,-0.27929688
1351,1.1582031000000002,0.21875,-0.20507812
1352,0.83496094,0.23730469,-0.15039062
1353,0.7050781,0.26171875,-0.15136719
1354,0.6972656,0.41796875,-0.16308594
1355,0.56152344,0.3232422,-0.12792969
1356,0.42578125,0.27929688,-0.095703125
1357,0.359375,0.33007812,-0.10253906
1358,0.24804688,0.39941406,-0.14648438
1359,0.34277344,0.5439453000000001,-0.16015625
1360,0.65722656,0.6357421999999999,-0.2109375
1361,0.5673828000000001,0.58984375,-0.26464844
1362,0.83203125,0.74121094,-0.34277344
1363,1.0488281000000002,0.6542969,-0.296875
1364,1.2978516000000002,0.5996094,-0.21386719
1365,1.3730468999999998,0.58496094,-0.22753906
1366,1.2841797,0.42871094,-0.19726562
1367,1.2871093999999998,0.40625,-0.2861328
1368,1.1054688,0.3095703,-0.30664062
1369,1.1123047,0.40429688,-0.38378906
1370,1.0234375,0.484375,-0.3330078
1371,0.8466796999999998,0.43066406,-0.2529297
1372,0.83984375,0.46777344,-0.22070312
1373,1.2041016000000002,0.51464844,-0.28125
1374,1.3154297,0.3359375,-0.18359375
1375,2.0029296999999997,0.2109375,-0.21484375
1376,1.5634766000000002,0.021484375,-0.19628906
1377,1.7373047,0.18261719,-0.18457031
1378,1.5107422,0.29003906,-0.20214844
1379,1.1943358999999998,0.29492188,-0.22460938
1380,0.9824219000000001,0.24316406,-0.21875
1381,0.79003906,0.23242188,-0.22460938
1382,0.6816406,0.265625,-0.2421875
1383,0.65625,0.36816406,-0.20507812
1384,0.67578125,0.40722656,-0.18261719
1385,0.5498046999999999,0.3466797,-0.125
1386,0.375,0.40429688,-0.18945312
1387,0.29589844,0.40234375,-0.17089844
1388,0.2763672,0.3876953,-0.19726562
1389,0.48925779999999996,0.47753906,-0.18945312
1390,0.7519531,0.50390625,-0.20019531
1391,0.66308594,0.47167970000000004,-0.22070312
1392,1.125,0.54296875,-0.31835938
1393,1.125,0.6191406,-0.36328125
1394,1.2792968999999998,0.49121094,-0.20800781
1395,1.4091797,0.47167970000000004,-0.13867188
1396,1.4833983999999998,0.3720703,-0.22070312
1397,1.3193358999999998,0.28027344,-0.28808594
1398,1.265625,0.2919922,-0.3095703
1399,1.2607422,0.3203125,-0.24804688
1400,1.1191406000000002,0.23339844,-0.22460938
1401,0.9628905999999999,-0.06542969,-0.2578125
1402,0.9433594000000001,-0.06933594,-0.19238281
1403,0.89746094,0.0390625,-0.12792969
1404,0.8652344000000001,0.22167969,-0.05859375
1405,1.140625,0.28808594,-0.0234375
1406,1.2197266000000002,0.08691406,-0.07714844
1407,1.0615233999999998,0.111328125,-0.16699219
1408,1.0771483999999998,0.17773438,-0.19140625
1409,1.1835938,0.07519531,-0.11621094
1410,1.3798828,0.05078125,-0.1015625
1411,1.4072266000000002,-0.0029296875,-0.16503906
1412,1.3125,0.0107421875,-0.27929688
1413,1.34375,0.080078125,-0.24804688
1414,1.3613281000000002,0.17480469,-0.22460938
1415,1.1962891000000002,0.12011719,-0.23046875
1416,0.94433594,0.28808594,-0.23535156
1417,0.65722656,0.6777344,-0.049804688
1418,0.640625,0.86328125,-0.11816406
1419,0.60839844,0.6269531,-0.234375
1420,0.47363279999999996,0.40527344,-0.2685547
1421,0.35253906,0.390625,-0.33984375
1422,0.21972656,0.08203125,-0.22363281
1423,0.49414062,0.296875,-0.08300781
1424,1.7695311999999999,0.39257812,0.03515625
1425,1.1445312,0.51660156,0.0126953125
1426,1.2119141000000002,0.7753906,-0.13769531
1427,1.1875,0.44042970000000004,-0.12988281
1428,1.546875,0.6230469,-0.033203125
1429,1.4257812,0.70214844,-0.047851562
1430,1.2724608999999998,0.5498046999999999,0.022460938
1431,1.3691406000000002,0.5546875,-0.01953125
1432,1.1708983999999998,0.4921875,-0.0107421875
1433,1.0810547,0.36328125,-0.041015625
1434,1.0292969,0.34765625,-0.10839844
1435,0.8359375,0.26367188,-0.16113281
1436,0.8330078000000002,0.3017578,-0.21289062
1437,0.7988281,0.2763672,-0.23730469
1438,0.7138671999999999,0.35351562,-0.30859375
1439,0.765625,0.38476562,-0.30859375
1440,1.0429688,0.68652344,-0.3798828
1441,1.75,0.27929688,-0.25683594
1442,1.8867188000000001,-0.27441406,-0.22753906
1443,1.1796875,-0.024414062,-0.29492188
1444,1.7197266,-0.06640625,0.0009765625
1445,1.7402343999999996,0.11621094,-0.068359375
1446,1.5351562,0.046875,-0.08203125
1447,1.2089843999999998,0.22753906,-0.12695312
1448,1.0703125,0.07714844,-0.17480469
1449,0.96191406,0.25683594,-0.095703125
1450,0.8769530999999999,0.24804688,-0.14453125
1451,0.71875,0.24804688,-0.13574219
1452,0.609375,0.29003906,-0.18652344
1453,0.3623047,0.29296875,-0.2265625
1454,0.3623047,0.30273438,-0.21777344
1455,0.33007812,0.25195312,-0.21289062
1456,0.35253906,0.26757812,-0.21484375
1457,0.5966796999999999,0.40820312,-0.107421875
1458,0.92871094,0.45703125,-0.12011719
1459,0.7480469,0.48535156,-0.22167969
1460,1.2636718999999998,0.5410156,-0.29296875
1461,1.1796875,0.64746094,-0.20117188
1462,1.4589843999999998,0.72558594,-0.1328125
1463,1.4482422,0.671875,-0.17773438
1464,1.5205078,0.4296875,-0.07128906
1465,1.3300781000000002,0.42480470000000004,-0.20019531
1466,1.3427733999999998,0.33203125,-0.24804688
1467,1.2460938,0.32421875,-0.19433594
1468,1.1455078,0.22949219,-0.18554688
1469,1.0615233999999998,0.2529297,-0.26171875
1470,0.88964844,0.18652344,-0.32910156
1471,0.7636719,0.2841797,-0.2265625
1472,0.86816406,0.19628906,-0.11230469
1473,0.84765625,0.1796875,-0.022460938
1474,1.1484375,0.33203125,0.028320312
1475,1.1201172,0.08203125,-0.08691406
1476,1.2890625,0.05859375,-0.21582031
1477,1.0,-0.048828125,-0.18652344
1478,1.1962891000000002,0.2734375,-0.3232422
1479,1.2626953,0.11425781,-0.3095703
1480,1.1220703,0.3310547,-0.5332031
1481,1.3164062,0.31054688,-0.53515625
1482,1.296875,0.359375,-0.39648438
1483,1.140625,0.47363279999999996,-0.39453125
1484,0.9951171999999998,0.63378906,-0.32128906
1485,0.8769530999999999,0.5341796999999999,-0.32910156
1486,0.6347656,0.40625,-0.3798828
1487,0.6269531,0.42773438,-0.39941406
1488,0.5517578000000001,0.41992188,-0.3876953
1489,0.3642578,0.21484375,-0.3046875
1490,0.265625,0.038085938,-0.19335938
1491,0.82910156,0.2705078,-0.11328125
1492,1.3769531000000002,0.5644531,-0.06542969
1493,0.97558594,0.66503906,-0.18652344
1494,0.90234375,0.7285156,-0.3623047
1495,1.3095703,0.7373046999999999,-0.48535156
1496,1.3339843999999998,0.5986328000000001,-0.33203125
1497,1.2597656000000002,0.5234375,-0.24121094
1498,1.3447266000000002,0.5332031,-0.19042969
1499,1.1845703,0.5361328000000001,-0.032226562
1500,1.0419922,0.4013672,-0.080078125
1501,0.9277344000000001,0.27246094,-0.11621094
1502,0.875,0.19140625,-0.20507812
1503,0.90234375,0.22363281,-0.17871094
1504,0.80566406,0.3232422,-0.26367188
1505,0.75,0.15527344,-0.25585938
1506,0.6582031,0.15625,-0.23339844
1507,0.78125,0.23046875,-0.27441406
1508,0.7548828000000001,0.3486328,-0.33789062
1509,1.578125,0.2998047,-0.49511720000000004
1510,1.7226561999999999,-0.06738281,-0.27441406
1511,1.4707031000000002,0.14746094,-0.3076172
1512,1.5595703,-0.057617188,-0.15527344
1513,1.7167968999999996,0.11035156,-0.025390625
1514,1.4882812,0.047851562,-0.10058594
1515,1.1875,0.18164062,-0.18652344
1516,0.9794921999999998,0.16796875,-0.19140625
1517,0.90722656,0.19335938,-0.16894531
1518,0.93847656,0.35839844,-0.14453125
1519,0.7763671999999999,0.36035156,-0.18261719
1520,0.69628906,0.37109375,-0.20117188
1521,0.64160156,0.36132812,-0.21582031
1522,0.41308594,0.3466797,-0.20996094
1523,1.0058594,0.5361328000000001,-0.19335938
1524,1.3564453,0.6425781,-0.33691406
1525,1.3535156000000002,0.71484375,-0.25976562
1526,1.3544922,0.6279296999999999,-0.11328125
1527,1.2011718999999998,0.42382812,-0.17675781
1528,1.2373047,0.33496094,-0.19628906
1529,1.2666016000000002,0.40429688,-0.24316406
1530,1.1953125,0.42089844,-0.25976562
1531,1.1113281000000002,0.47363279999999996,-0.24902344
1532,0.98535156,0.52441406,-0.30078125
1533,0.84375,0.5234375,-0.3310547
1534,0.90527344,0.4453125,-0.3154297
1535,0.7783203000000001,-0.026367188,-0.37890625
1536,0.9003905999999999,0.11230469,-0.28222656
1537,1.3251953,-0.12988281,0.032226562
1538,2.0029296999999997,0.0859375,0.0546875
1539,1.1757812,-0.30371094,-0.07324219
1540,1.46875,-0.0087890625,-0.16113281
1541,1.203125,0.14453125,-0.13867188
1542,1.0820312,0.1328125,-0.13867188
1543,1.0527343999999998,0.17285156,-0.14160156
1544,0.9941405999999999,0.18164062,-0.16796875
1545,0.98046875,0.24804688,-0.18652344
1546,0.9355469000000001,0.28320312,-0.18164062
1547,0.76464844,0.32226562,-0.17382812
1548,0.51464844,0.37890625,-0.15820312
1549,0.39746094,0.3955078,-0.16210938
1550,0.33496094,0.40722656,-0.19726562
1551,0.2919922,0.47363279999999996,-0.20117188
1552,0.5341796999999999,0.5410156,-0.15917969
1553,0.8857421999999998,0.62402344,-0.24804688
1554,0.60253906,0.52441406,-0.34570312
1555,1.2441406000000002,0.6542969,-0.3232422
1556,1.1220703,0.6279296999999999,-0.28320312
1557,1.1806641000000002,0.62109375,-0.26757812
1558,1.0517578,0.30664062,-0.22753906
1559,1.1337891000000002,0.29589844,-0.27148438
1560,1.1005858999999998,0.37402344,-0.2578125
1561,1.0205078,0.453125,-0.3125
1562,1.0419922,0.46679688,-0.26953125
1563,0.89746094,0.40625,-0.26367188
1564,0.8701171999999998,0.375,-0.2763672
1565,0.75878906,0.3017578,-0.29296875
1566,0.79589844,0.19824219,-0.22363281
1567,1.2753906000000002,0.43652344,-0.296875
1568,1.4804688,0.10253906,-0.12402344
1569,1.8359375,-0.016601562,-0.0390625
1570,1.1269531000000002,0.0126953125,-0.13183594
1571,1.3085938,0.0859375,-0.23925781
1572,1.3730468999999998,0.15136719,-0.18847656
1573,1.2539062,0.20605469,-0.21191406
1574,1.0556641000000002,0.11328125,-0.24707031
1575,0.9580078000000002,0.29785156,-0.27734375
1576,0.9873046999999998,0.30566406,-0.21386719
1577,0.8378905999999999,0.2939453,-0.1875
1578,0.6894531,0.36816406,-0.19335938
1579,0.5839844,0.37695312,-0.16210938
1580,0.36523438,0.44140625,-0.16601562
1581,0.33984375,0.49121094,-0.19628906
1582,0.61035156,0.5419921999999999,-0.11328125
1583,0.5371094,0.55859375,-0.19140625
1584,0.4453125,0.5957031,-0.21972656
1585,0.8046875,0.7871094,-0.3251953
1586,0.76464844,0.56347656,-0.39648438
1587,0.99902344,0.58203125,-0.30371094
1588,1.0644531000000002,0.53222656,-0.2861328
1589,1.2226562,0.296875,-0.31054688
1590,1.2294922,0.14648438,-0.047851562
1591,1.0957031000000002,0.43261720000000004,-0.3046875
1592,1.1962891000000002,0.5419921999999999,-0.46972656
1593,1.1816406000000002,0.5371094,-0.28125
1594,1.1386718999999998,0.6826171999999999,-0.27148438
1595,0.8876953000000002,0.70703125,-0.1171875
1596,1.2128906000000002,0.10253906,0.03515625
1597,1.3408203,-0.23925781,-0.037109375
1598,1.0830078,-0.12988281,-0.111328125
1599,1.3896483999999998,-0.0546875,-0.17480469
1600,1.2148438,-0.07519531,-0.17480469
1601,1.3261718999999998,0.068359375,-0.3046875
1602,1.3789062,-0.12011719,-0.20898438
1603,1.1513672,0.015625,-0.28125
1604,1.1533203,0.01953125,-0.11425781
1605,1.0791016000000002,0.1015625,-0.13671875
1606,0.9863280999999999,0.1484375,-0.18652344
1607,0.9785155999999999,0.22851562,-0.14550781
1608,0.8310546999999998,0.2578125,-0.14746094
1609,0.6464844,0.20117188,-0.17480469
1610,0.5205078,0.27929688,-0.1953125
1611,0.3955078,0.2841797,-0.20410156
1612,0.51660156,0.39941406,-0.15039062
1613,0.8388671999999998,0.41894529999999996,-0.18164062
1614,0.6767578000000001,0.27734375,-0.2783203
1615,1.0117188,0.44238279999999996,-0.20996094
1616,1.3486328,0.5332031,-0.3642578
1617,1.1894531000000002,0.50390625,-0.31152344
1618,1.1992188,0.58691406,-0.28515625
1619,1.1132812,0.4033203,-0.18457031
1620,1.1660156000000002,0.33203125,-0.16113281
1621,1.2011718999999998,0.21777344,-0.12207031
1622,1.2431641000000002,0.2265625,-0.14453125
1623,1.1376953,0.17480469,-0.16210938
1624,1.1298828,0.3232422,-0.09863281
1625,1.0488281000000002,0.23632812,-0.038085938
1626,1.0830078,0.24023438,-0.028320312
1627,0.9970703000000002,0.2998047,-0.03515625
1628,1.0380859,0.234375,-0.0390625
1629,1.0,0.20898438,-0.08300781
1630,0.890625,0.13671875,-0.10644531
1631,1.6816406000000004,-0.11328125,0.3408203
1632,1.0810547,-0.44433594,-0.13378906
1633,0.984375,-0.8457030999999999,-0.40527344
1634,0.82714844,-0.33007812,-0.3642578
1635,1.2714843999999998,-0.32714844,-0.48730470000000004
1636,1.0302734,0.068359375,-0.37695312
1637,1.3574218999999998,0.6279296999999999,-0.22753906
1638,1.4462891000000002,0.41503906,-0.22949219
1639,1.4277343999999998,0.43554688,-0.26660156
1640,1.3769531000000002,0.43652344,-0.15332031
1641,1.0947266000000002,0.41601562,-0.26660156
1642,0.8886719000000001,0.32617188,-0.24316406
1643,0.7236328000000001,0.40234375,-0.23535156
1644,0.6269531,0.42480470000000004,-0.24316406
1645,0.46582029999999996,0.4033203,-0.25195312
1646,0.3779297,0.28125,-0.23828125
1647,0.35546875,0.29003906,-0.2607422
1648,0.23730469,0.31152344,-0.2734375
1649,0.31152344,0.58496094,-0.29296875
1650,0.12402344,0.5732421999999999,-0.38378906
1651,0.28320312,0.36035156,-0.12890625
1652,0.64746094,0.45410156,-0.14160156
1653,0.6113281,0.67089844,-0.28027344
1654,0.9160155999999999,0.8125,-0.2890625
1655,1.0527343999999998,0.77734375,-0.35351562
1656,1.328125,0.6640625,-0.3876953
1657,1.3115233999999998,0.63378906,-0.2783203
1658,1.3222656000000002,0.58496094,-0.2265625
1659,1.3789062,0.5546875,-0.28027344
1660,1.1855468999999998,0.51660156,-0.26953125
1661,1.046875,0.5390625,-0.32128906
1662,1.0263672,0.5810546999999999,-0.30664062
1663,0.8935546999999998,0.45410156,-0.29101562
1664,0.82128906,0.40820312,-0.3388672
1665,0.85839844,0.40820312,-0.37402344
1666,1.0322266,0.37109375,-0.41308594
1667,1.484375,0.119140625,-0.25390625
1668,2.0029296999999997,-0.025390625,-0.09863281
1669,1.5771483999999998,-0.017578125,-0.11230469
1670,1.9111328,0.16015625,-0.27148438
1671,1.5869141000000002,0.20019531,-0.28808594
1672,1.2148438,0.23925781,-0.30566406
1673,1.0224609,0.24804688,-0.3486328
1674,0.796875,0.27441406,-0.3486328
1675,0.6425781,0.38671875,-0.34472656
1676,0.5136719,0.3154297,-0.296875
1677,0.31933594,0.32910156,-0.30273438
1678,0.2109375,0.31152344,-0.27246094
1679,0.16699219,0.39453125,-0.17285156
1680,0.076171875,0.39453125,-0.16796875
1681,0.041015625,0.38867188,-0.20703125
1682,0.20507812,0.5957031,-0.21582031
1683,0.46875,0.6699219,-0.21289062
1684,0.49121094,0.6972656,-0.27441406
1685,0.63378906,0.7871094,-0.28808594
1686,0.9042969000000001,0.74902344,-0.30664062
1687,1.1279297,0.75,-0.21386719
1688,1.3496093999999998,0.6933594,-0.21582031
1689,1.1425781000000002,0.44433594,-0.23144531
1690,1.2783203,0.40429688,-0.25683594
1691,1.2578125,0.39941406,-0.23828125
1692,1.3125,0.3955078,-0.23535156
1693,1.515625,0.23925781,-0.17871094
1694,1.4003906000000002,0.30273438,-0.14550781
1695,1.1552733999999998,0.072265625,-0.14355469
1696,0.94433594,0.09667969,-0.13183594
1697,0.93359375,0.24804688,-0.061523438
1698,0.8515625,0.26171875,-0.0107421875
1699,0.67089844,0.3095703,-0.15820312
1700,1.2373047,0.16601562,-0.2919922
1701,2.0029296999999997,-0.24609375,0.5078125
1702,0.9921875,-0.19335938,-0.5292969
1703,0.91015625,-0.119140625,-0.55859375
1704,1.2626953,0.3330078,-0.45507812
1705,1.375,0.31054688,-0.41699220000000004
1706,1.5859375,0.32226562,-0.32910156
1707,1.5136718999999998,0.2763672,-0.28320312
1708,1.4003906000000002,0.3984375,-0.234375
1709,1.2607422,0.44335938,-0.21875
1710,1.0166016,0.32714844,-0.22363281
1711,0.8720703000000002,0.46875,-0.20703125
1712,0.60546875,0.42675779999999996,-0.15136719
1713,0.40039062,0.4609375,-0.2783203
1714,0.30664062,0.34472656,-0.34765625
1715,0.35839844,0.28222656,-0.23339844
1716,0.19628906,0.14550781,-0.12988281
1717,0.22070312,0.2421875,-0.07519531
1718,0.10449219,0.30273438,-0.171875
1719,0.21582031,0.4765625,0.0234375
1720,0.640625,0.7392578000000001,0.09863281
1721,0.70214844,0.7236328000000001,-0.21777344
1722,0.7402344,1.0449219,-0.52734375
1723,0.8769530999999999,0.984375,-0.48828125
1724,1.1416016000000002,0.90234375,-0.44921875
1725,1.4384766000000002,0.87402344,-0.45996094
1726,1.4033203,0.49804688,-0.47851562
1727,1.0820312,0.42871094,-0.43847656
1728,1.0664062,0.5097656,-0.375
1729,1.0332031,0.53515625,-0.26171875
1730,1.0244141,0.47460938,-0.28222656
1731,0.95996094,0.54003906,-0.30273438
1732,0.9472655999999999,0.45800779999999996,-0.24121094
1733,0.90527344,0.2841797,-0.17578125
1734,0.97265625,0.051757812,-0.14550781
1735,0.8173828000000001,-0.038085938,-0.17382812
1736,1.2070312,0.111328125,-0.125
1737,1.2451172,-0.07519531,-0.09667969
1738,1.5810547,-0.12207031,-0.25585938
1739,1.6523438000000001,-0.16308594,-0.18847656
1740,1.203125,0.123046875,-0.20410156
1741,1.1445312,0.28515625,-0.27441406
1742,1.0087891,0.22167969,-0.27148438
1743,0.8544921999999998,0.23828125,-0.234375
1744,0.8251953000000002,0.27246094,-0.22558594
1745,0.765625,0.2607422,-0.12109375
1746,0.7675781,0.19824219,-0.10546875
1747,0.73828125,0.19726562,-0.13085938
1748,0.6035156,0.18359375,-0.14160156
1749,0.6064453000000001,0.35742188,-0.17675781
1750,0.8066406,0.43261720000000004,-0.18261719
1751,0.8222655999999999,0.41503906,-0.23339844
1752,1.1181641000000002,0.43457029999999996,-0.31445312
1753,1.2265625,0.3984375,-0.390625
1754,1.3447266000000002,0.40722656,-0.23046875
1755,1.3105468999999998,0.5185547,-0.20703125
1756,1.1708983999999998,0.38183594,-0.28710938
1757,0.88378906,0.3359375,-0.30664062
1758,0.9550780999999999,0.16210938,-0.1484375
1759,1.1699218999999998,0.29785156,-0.043945312
1760,0.91503906,0.5263671999999999,-0.21972656
1761,0.99902344,0.7080078000000001,-0.34570312
1762,1.3730468999999998,0.6230469,-0.3173828
1763,1.3193358999999998,0.19824219,-0.19238281
1764,1.9453125,0.23144531,-0.22949219
1765,1.5820312,0.11621094,-0.19238281
1766,1.3994141000000002,0.23828125,-0.25976562
1767,1.2236328,0.19335938,-0.24121094
1768,1.0107422,0.24316406,-0.21972656
1769,0.8564453000000002,0.20507812,-0.21289062
1770,0.70214844,0.21191406,-0.19921875
1771,0.6220703000000001,0.2861328,-0.19140625
1772,0.6220703000000001,0.3203125,-0.15136719
1773,0.5263671999999999,0.27539062,-0.12597656
1774,0.41503906,0.35253906,-0.12109375
1775,0.3251953,0.46484375,-0.14355469
1776,0.3779297,0.5498046999999999,-0.13378906
1777,0.6044921999999999,0.6640625,-0.21679688
1778,0.71875,0.703125,-0.2998047
1779,0.93652344,0.7402344,-0.4140625
1780,0.8173828000000001,0.7363281,-0.36132812
1781,0.9970703000000002,0.51953125,-0.28710938
1782,1.2441406000000002,0.52441406,-0.36035156
1783,1.2958983999999998,0.5625,-0.33789062
1784,1.1914062,0.5253906,-0.2919922
1785,0.8955078000000002,0.3828125,-0.32226562
1786,0.89453125,0.28222656,-0.3125
1787,0.8251953000000002,0.24609375,-0.3466797
1788,0.84375,0.032226562,-0.5175781
1789,0.84472656,-0.048828125,-0.49902344
1790,0.89453125,0.3486328,-0.4033203
1791,1.6357422,0.49121094,-0.40527344
1792,1.671875,-0.0087890625,-0.19140625
1793,1.4033203,-0.24414062,-0.19824219
1794,1.7431641,-0.0234375,-0.19335938
1795,1.390625,0.09667969,-0.17382812
1796,1.2734375,0.30664062,-0.20019531
1797,1.1152343999999998,0.38476562,-0.17382812
1798,0.93847656,0.34277344,-0.17773438
1799,0.7480469,0.28515625,-0.21484375
1800,0.6201171999999999,0.37597656,-0.20019531
1801,0.5839844,0.43164062,-0.19433594
1802,0.48730470000000004,0.43066406,-0.19042969
1803,0.38183594,0.41113279999999996,-0.18554688
1804,0.234375,0.38476562,-0.18652344
1805,0.1953125,0.48535156,-0.19042969
1806,0.19824219,0.53808594,-0.22070312
1807,0.265625,0.57714844,-0.23339844
1808,0.6425781,0.68652344,-0.28320312
1809,0.7578125,0.6845703000000001,-0.33691406
1810,0.703125,0.7167969,-0.35058594
1811,1.2001953,0.70996094,-0.3251953
1812,1.2470703,0.6767578000000001,-0.37695312
1813,1.1728516000000002,0.47070312,-0.41210938
1814,1.2949218999999998,0.5253906,-0.32910156
1815,1.2060547,0.3828125,-0.25195312
1816,1.1386718999999998,0.3095703,-0.26953125
1817,1.0791016000000002,0.24902344,-0.2998047
1818,1.0712891000000002,0.1796875,-0.21972656
1819,0.9951171999999998,0.032226562,-0.19824219
1820,1.0253906,0.123046875,-0.09765625
1821,0.9003905999999999,0.103515625,-0.060546875
1822,0.8701171999999998,0.140625,-0.041015625
1823,0.95996094,0.1796875,-0.091796875
1824,0.9736328000000002,0.21191406,-0.12597656
1825,1.0283203,0.24511719,-0.18847656
1826,1.1005858999999998,-0.024414062,-0.2685547
1827,1.0498047,0.125,-0.22265625
1828,1.4072266000000002,0.22265625,-0.21972656
1829,1.4296875,0.057617188,-0.15917969
1830,1.3984375,0.13671875,-0.23632812
1831,1.3681641000000002,0.055664062,-0.29003906
1832,1.3115233999999998,0.25,-0.21972656
1833,1.2246093999999998,0.36621094,-0.21289062
1834,1.0800781000000002,0.41015625,-0.17089844
1835,0.6738281,0.5439453000000001,-0.21679688
1836,0.6357421999999999,0.8847655999999999,-0.39941406
1837,0.7089844,0.703125,-0.38085938
1838,0.62890625,0.5283203000000001,-0.39648438
1839,0.47753906,0.38378906,-0.42285156
1840,0.31152344,0.34179688,-0.39746094
1841,0.19238281,0.1484375,-0.31445312
1842,0.22949219,0.14550781,-0.17089844
1843,1.1787108999999998,0.38378906,0.037109375
1844,1.2929688,0.53222656,-0.037109375
1845,0.9160155999999999,0.6308594,-0.12597656
1846,0.92089844,0.80078125,-0.3310547
1847,1.2402343999999998,0.74902344,-0.24707031
1848,1.2246093999999998,0.6982421999999999,-0.296875
1849,1.2412108999999998,0.5908203000000001,-0.038085938
1850,1.0058594,0.65722656,-0.080078125
1851,0.8847655999999999,0.19335938,0.064453125
1852,0.7949219,0.17382812,-0.0126953125
1853,0.80566406,0.32714844,-0.16308594
1854,0.73535156,0.3046875,-0.26757812
1855,0.7314453000000001,0.37695312,-0.29882812
1856,0.71875,0.49511720000000004,-0.31152344
1857,1.1689453,0.21582031,-0.66015625
1858,2.0029296999999997,-0.18261719,-0.17578125
1859,1.5107422,-0.16210938,-0.27148438
1860,1.3017578,-0.5341796999999999,-0.07324219
1861,1.3564453,-0.16113281,-0.052734375
1862,1.4179688,-0.026367188,-0.15625
1863,1.3037108999999998,0.15429688,-0.15820312
1864,1.1220703,0.28515625,-0.23046875
1865,1.0146484,0.28125,-0.19042969
1866,1.0761718999999998,0.44726562,-0.21582031
1867,1.1181641000000002,0.42382812,-0.20996094
1868,0.9423828000000002,0.17480469,-0.19335938
1869,0.43457029999999996,0.00390625,-0.18261719
1870,0.12402344,0.06640625,-0.14648438
1871,0.08496094,0.24414062,-0.07324219
1872,-0.025390625,0.30078125,-0.08203125
1873,-0.11621094,0.40429688,-0.11425781
1874,0.12402344,0.5341796999999999,-0.119140625
1875,0.43847656,0.65527344,-0.23339844
1876,0.734375,0.57421875,-0.19824219
1877,1.2617188,0.36328125,-0.25683594
1878,2.0029296999999997,0.65527344,-0.15820312
1879,2.0029296999999997,0.48144529999999996,-0.20019531
1880,1.7314453,0.44921875,-0.140625
1881,1.3300781000000002,0.50683594,-0.21191406
1882,1.2363281000000002,0.048828125,-0.24121094
1883,1.15625,0.34570312,-0.16210938
1884,0.8623046999999998,0.11425781,-0.16796875
1885,0.8671875,-0.022460938,-0.13867188
1886,0.74609375,0.16796875,-0.125
1887,0.921875,0.16992188,-0.1015625
1888,0.9453125,0.24414062,-0.076171875
1889,1.2089843999999998,0.28808594,-0.0703125
1890,1.1855468999999998,-0.03515625,-0.07910156
1891,1.0263672,0.22167969,-0.26660156
1892,1.4365233999999998,0.26953125,-0.26757812
1893,1.5400391000000002,0.1796875,-0.30371094
1894,1.5,0.27929688,-0.3671875
1895,1.3828125,0.39453125,-0.28027344
1896,1.2607422,0.62109375,-0.3173828
1897,1.0039062,0.56152344,-0.3935547
1898,0.82714844,0.55566406,-0.35839844
1899,0.55078125,0.37695312,-0.37109375
1900,0.27246094,0.44238279999999996,-0.31054688
1901,0.21777344,0.46289062,-0.23144531
1902,0.119140625,0.265625,-0.2548828
1903,0.047851562,0.12988281,-0.17773438
1904,0.14453125,-0.034179688,-0.14257812
1905,0.31152344,0.17089844,-0.099609375
1906,1.1904297,0.5917969,-0.0625
1907,1.4345703,0.6953125,-0.10839844
1908,1.4130858999999998,0.9892578000000002,-0.3779297
1909,1.5097656000000002,0.8886719000000001,-0.45214844
1910,1.5703125,0.7001953000000001,-0.24707031
1911,1.5537108999999998,0.64160156,-0.20410156
1912,1.5585938,0.49316406,-0.20507812
1913,1.5556641000000002,0.60546875,-0.119140625
1914,1.203125,0.48535156,-0.091796875
1915,1.0087891,0.375,-0.119140625
1916,0.89941406,0.328125,-0.14941406
1917,0.76464844,0.08300781,-0.1015625
1918,0.83496094,0.059570312,-0.14160156
1919,0.70214844,0.18457031,-0.12402344
1920,0.71777344,0.5048828,-0.28027344
1921,0.75878906,0.28808594,-0.23339844
1922,0.9394530999999999,0.09277344,-0.23535156
1923,0.8310546999999998,0.056640625,-0.35058594
1924,1.1914062,-0.022460938,-0.44335938
1925,1.5488281000000002,-0.0126953125,-0.22558594
1926,1.6855468999999996,0.16015625,-0.2607422
1927,1.3955078,0.07128906,-0.20605469
1928,1.5136718999999998,0.18457031,-0.25878906
1929,1.5166016000000002,0.06542969,-0.12011719
1930,1.2900391000000002,0.09375,-0.19140625
1931,1.015625,0.08105469,-0.1640625
1932,0.984375,0.25,-0.15234375
1933,0.89453125,0.2548828,-0.11816406
1934,0.796875,0.24316406,-0.15527344
1935,0.7451171999999999,0.2421875,-0.16210938
1936,0.5488281,0.26757812,-0.17773438
1937,0.34277344,0.32128906,-0.19140625
1938,0.3125,0.2548828,-0.111328125
1939,0.29296875,0.28027344,-0.04296875
1940,0.3857422,0.34570312,-0.08691406
1941,0.8730469000000001,0.33691406,-0.25390625
1942,1.1357422,0.51464844,-0.32226562
1943,1.5751953,0.55078125,-0.3623047
1944,1.4619141000000002,0.40527344,-0.29882812
1945,1.3837891000000002,0.3544922,-0.24609375
1946,1.2568358999999998,0.3701172,-0.22167969
1947,1.2773438,0.47070312,-0.2265625
1948,1.1298828,0.42675779999999996,-0.19628906
1949,1.0400391,0.4013672,-0.21289062
1950,1.0302734,0.36914062,-0.2783203
1951,0.828125,0.3798828,-0.26953125
1952,0.89746094,0.34179688,-0.31640625
1953,0.6982421999999999,0.16894531,-0.22265625
1954,0.9248046999999998,0.39746094,-0.20800781
1955,1.1630858999999998,0.5644531,-0.21875
1956,1.8964843999999996,0.3623047,-0.09765625
1957,1.0800781000000002,0.03125,-0.17773438
1958,1.2705078,0.140625,-0.26953125
1959,1.8613281000000004,0.38476562,-0.14453125
1960,1.3349608999999998,0.072265625,-0.140625
1961,1.1738281000000002,0.27441406,-0.15429688
1962,1.0195312,0.2998047,-0.14257812
1963,0.98535156,0.3251953,-0.099609375
1964,0.7675781,0.234375,-0.1484375
1965,0.75683594,0.25097656,-0.14257812
1966,0.7480469,0.25390625,-0.09667969
1967,0.6933594,0.26367188,-0.07519531
1968,0.56640625,0.18554688,-0.055664062
1969,0.5449219,0.2685547,-0.091796875
1970,0.47753906,0.3232422,-0.1640625
1971,0.5019531,0.40820312,-0.21972656
1972,0.8339844000000001,0.4765625,-0.24804688
1973,1.0683593999999998,0.49902344,-0.26464844
1974,1.3017578,0.50878906,-0.3125
1975,1.3359375,0.57910156,-0.36621094
1976,1.3623047,0.48242188,-0.28320312
1977,1.3330078,0.46875,-0.3779297
1978,1.0771483999999998,0.30371094,-0.23144531
1979,0.92285156,0.39941406,-0.22851562
1980,0.8251953000000002,0.43261720000000004,-0.20019531
1981,0.77734375,0.38867188,-0.16796875
1982,0.8144531,0.44824220000000004,-0.203125
1983,0.8232421999999998,0.48144529999999996,-0.20117188
1984,0.85058594,0.44628906,-0.24511719
1985,1.1611328,0.49316406,-0.2861328
1986,1.4697266000000002,0.5419921999999999,-0.21191406
1987,1.5947266000000002,0.28125,-0.13085938
1988,2.0029296999999997,0.09375,-0.09375
1989,1.7734375,0.09375,-0.095703125
1990,1.4755858999999998,0.2578125,-0.19238281
1991,1.2773438,0.28222656,-0.095703125
1992,1.0341797,0.31933594,-0.068359375
1993,0.78222656,0.13671875,-0.115234375
1994,0.5996094,0.061523438,-0.109375
1995,0.4609375,0.16894531,-0.109375
1996,0.43847656,0.25,-0.052734375
1997,0.5371094,0.2548828,-0.08496094
1998,0.53222656,0.36621094,-0.17675781
1999,0.74316406,0.5859375,-0.23632812
2000,0.6074219,0.47460938,-0.28027344
2001,0.5498046999999999,0.6269531,-0.3388672
2002,0.57421875,0.7939453000000001,-0.49804688
2003,0.8515625,0.7128906,-0.47460938
2004,1.1367188,0.5878906,-0.4296875
2005,1.3730468999999998,0.5488281,-0.3486328
2006,1.3076172,0.5517578000000001,-0.2685547
2007,1.1572266000000002,0.46484375,-0.3173828
2008,1.0195312,0.51660156,-0.29492188
2009,0.87402344,0.3671875,-0.23828125
2010,0.94921875,0.34472656,-0.26367188
2011,0.8671875,0.45410156,-0.2685547
2012,1.0458984,0.47265625,-0.29882812
2013,1.5644531000000002,0.46484375,-0.2763672
2014,1.2529297,0.29589844,-0.21582031
2015,1.796875,0.2265625,-0.2705078
2016,1.6230468999999998,0.09277344,-0.21386719
2017,1.5371093999999998,0.11816406,-0.20996094
2018,1.4794922,0.13183594,-0.20019531
2019,1.1523438,0.16503906,-0.17285156
2020,0.9482421999999998,0.19628906,-0.18847656
2021,0.78027344,0.25,-0.20800781
2022,0.73339844,0.3486328,-0.19921875
2023,0.67089844,0.3642578,-0.18359375
2024,0.53808594,0.34765625,-0.16503906
2025,0.4140625,0.37109375,-0.140625
2026,0.28710938,0.38964844,-0.16796875
2027,0.27246094,0.3828125,-0.15722656
2028,0.42578125,0.46875,-0.15039062
2029,0.6513671999999999,0.5390625,-0.20605469
2030,0.44042970000000004,0.44726562,-0.26367188
2031,1.1513672,0.6308594,-0.24511719
2032,0.97753906,0.40820312,-0.32128906
2033,1.4716797,0.3564453,-0.31640625
2034,1.3867188,0.421875,-0.24707031
2035,1.4208983999999998,0.32421875,-0.25
2036,1.4140625,0.35546875,-0.33203125
2037,1.3046875,0.3359375,-0.296875
2038,1.2099608999999998,0.29589844,-0.23730469
2039,1.2216797,0.2421875,-0.22460938
2040,1.0146484,0.17382812,-0.20898438
2041,0.9863280999999999,0.18164062,-0.16601562
2042,1.0087891,0.25097656,0.025390625
2043,0.9824219000000001,0.27539062,-0.0068359375
2044,0.96484375,0.19433594,0.025390625
2045,1.0263672,0.25585938,-0.03125
2046,0.8798828000000002,0.19140625,-0.16894531
2047,0.765625,0.0126953125,-0.22265625
2048,1.4589843999999998,-0.057617188,-0.21679688
2049,1.5400391000000002,-0.5058594,-0.12109375
2050,1.2119141000000002,-0.42285156,-0.5917969
2051,1.2470703,-0.07910156,-0.37890625
2052,1.2724608999999998,-0.13476562,-0.38964844
2053,1.0585938,0.22753906,-0.3671875
2054,1.6259766000000002,0.29785156,-0.15527344
2055,1.5039062,0.09375,-0.24609375
2056,1.3818358999999998,0.33007812,-0.2109375
2057,1.2802733999999998,0.25097656,-0.16210938
2058,1.1074218999999998,0.328125,-0.11035156
2059,0.89160156,0.57421875,-0.24609375
2060,0.73046875,0.49316406,-0.24511719
2061,0.5019531,0.41308594,-0.23632812
2062,0.421875,0.38183594,-0.19921875
2063,0.31933594,0.3173828,-0.15527344
2064,0.16113281,0.25390625,-0.14257812
2065,0.10839844,0.23730469,-0.15039062
2066,0.0009765625,0.23535156,-0.140625
2067,0.037109375,0.3798828,-0.15332031
2068,0.31347656,0.5019531,-0.11816406
2069,0.6484375,0.62890625,-0.09472656
2070,1.015625,0.73535156,-0.3125
2071,1.2714843999999998,0.890625,-0.44628906
2072,1.2294922,0.83496094,-0.3154297
2073,1.3994141000000002,0.7607421999999999,-0.19042969
2074,1.3261718999999998,0.5566406,-0.13671875
2075,1.3496093999999998,0.47558594,-0.078125
2076,1.3017578,0.5332031,-0.119140625
2077,1.1777343999999998,0.5292969,-0.18457031
2078,0.953125,0.61328125,-0.2421875
2079,0.9355469000000001,0.57421875,-0.35351562
2080,0.79589844,0.24707031,-0.23242188
2081,1.0234375,0.45019529999999996,-0.44628906
2082,1.0087891,0.47460938,-0.5830078000000001
2083,1.4365233999999998,0.42578125,-0.5058594
2084,1.5927733999999998,0.26660156,-0.36523438
2085,2.0029296999999997,-0.0029296875,-0.107421875
2086,1.8925781000000004,0.048828125,-0.064453125
2087,1.6806641,0.2421875,-0.23730469
2088,1.4296875,0.33691406,-0.22070312
2089,1.0546875,0.18261719,-0.20410156
2090,0.7734375,0.13671875,-0.23828125
2091,0.6230469,0.2578125,-0.25878906
2092,0.5292969,0.22070312,-0.20703125
2093,0.46582029999999996,0.16113281,-0.13574219
2094,0.45605470000000004,0.22167969,-0.125
2095,0.39941406,0.28125,-0.103515625
2096,0.3564453,0.32128906,-0.15820312
2097,0.5214844,0.44726562,-0.15429688
2098,0.40625,0.56152344,-0.20800781
2099,0.5654296999999999,0.81152344,-0.31933594
2100,0.8652344000000001,1.1015625,-0.40234375
2101,0.8564453000000002,0.67089844,-0.38867188
2102,1.2666016000000002,0.58691406,-0.31445312
2103,1.1328125,0.5419921999999999,-0.18945312
2104,1.2480468999999998,0.3466797,-0.25683594
2105,1.296875,0.25585938,-0.22949219
2106,1.3388672,0.3623047,-0.24804688
2107,1.3193358999999998,0.52734375,-0.3251953
2108,1.2304688,0.3544922,-0.3330078
2109,1.0703125,0.20214844,-0.33691406
2110,0.9609375,0.125,-0.28125
2111,0.8261719000000001,0.115234375,-0.18261719
2112,0.9433594000000001,0.22363281,-0.07128906
2113,0.92871094,0.12890625,-0.064453125
2114,1.53125,0.11816406,-0.24414062
2115,1.7373047,-0.3125,0.12597656
2116,1.2226562,-0.44140625,-0.3251953
2117,1.4121093999999998,-0.68847656,-0.13769531
2118,0.88378906,-0.4091797,-0.3125
2119,0.75683594,-0.44238279999999996,-0.10546875
2120,0.9716796999999998,-0.5761719,-0.10644531
2121,0.8955078000000002,-0.66503906,-0.08691406
2122,0.88671875,-0.6777344,-0.022460938
2123,0.8808594000000001,-0.48242188,-0.08105469
2124,1.1464843999999998,-0.18554688,-0.020507812
2125,0.9980469000000001,0.3623047,-0.087890625
2126,1.1308593999999998,0.49707029999999996,-0.0126953125
2127,1.25,0.8125,-0.15722656
2128,1.6630859,1.3173828,-0.18261719
2129,1.3505858999999998,1.5449218999999998,-0.3935547
2130,0.13183594,-0.0087890625,-0.46777344
2131,-0.8408203000000002,-0.2421875,-0.46875
2132,0.037109375,0.24414062,-0.5419921999999999
2133,0.3076172,0.86035156,-0.6484375
2134,0.6533203000000001,1.2597656000000002,-0.7753906
2135,0.6123046999999999,1.2802733999999998,-0.8642578000000002
2136,0.8623046999999998,2.008789,-0.9970703000000002
2137,1.1923828,1.0654297,-0.9189453000000002
2138,0.07519531,-0.6582031,-0.68847656
2139,0.005859375,0.23339844,-0.56152344
2140,-0.10253906,0.57421875,-0.25976562
2141,-0.20898438,0.26171875,-0.20898438
2142,-0.22265625,0.17578125,-0.2109375
2143,-0.23730469,0.13769531,-0.05859375
2144,0.52246094,0.14160156,0.07910156
2145,1.1972656000000002,0.49707029999999996,-0.27148438
2146,1.5771483999999998,0.74121094,-0.8535155999999999
2147,1.0498047,-0.23046875,-1.7373047
2148,0.20703125,-0.39160156,-1.34375
2149,0.4921875,0.9824219000000001,-0.48730470000000004
2150,1.1425781000000002,0.57421875,0.09667969
2151,1.0878906000000002,0.37109375,0.0029296875
2152,1.6787109,0.10546875,-0.35546875
2153,0.9013671999999998,-0.19921875,-0.5859375
2154,1.1523438,-0.43164062,-0.5488281
2155,1.0283203,0.18066406,-0.81347656
2156,1.109375,-0.20410156,-0.6699219
2157,0.8359375,-0.5488281,-0.43359375
2158,0.64453125,-0.6328125,-0.31054688
2159,0.8066406,-0.2783203,-0.20410156
2160,0.62402344,-0.25,-0.20996094
2161,0.66308594,-0.10839844,-0.19238281
2162,0.65527344,0.043945312,-0.15234375
2163,0.6376953000000001,0.29589844,-0.12402344
2164,0.8105469,0.18066406,-0.11328125
2165,1.1699218999999998,0.11328125,-0.08691406
2166,1.6464843999999996,-0.07324219,-0.18066406
2167,1.3642578,-0.43164062,-0.26171875
2168,1.5058593999999998,0.07421875,-0.40527344
2169,1.8203125,-0.013671875,-0.45800779999999996
2170,1.4335938,0.16601562,-0.44921875
2171,1.3076172,0.17285156,-0.3955078
2172,1.2089843999999998,0.15234375,-0.3251953
2173,0.97558594,0.2265625,-0.265625
2174,0.80371094,0.1953125,-0.17871094
2175,0.6875,0.18847656,-0.12890625
2176,0.52441406,0.1328125,-0.08203125
2177,0.49414062,0.22558594,-0.0390625
2178,0.45800779999999996,0.234375,-0.059570312
2179,0.39160156,0.34765625,-0.038085938
2180,0.64941406,0.5341796999999999,-0.06738281
2181,0.6464844,0.5722656,-0.20117188
2182,0.83496094,0.7402344,-0.35742188
2183,1.1630858999999998,0.7910156,-0.68066406
2184,1.1630858999999998,0.5761719,-0.57421875
2185,0.77246094,0.27929688,-0.23632812
2186,0.7753906,0.3017578,-0.26757812
2187,0.84472656,0.2685547,-0.3388672
2188,0.8671875,0.119140625,-0.3388672
2189,1.4267578,-0.07519531,-0.234375
2190,2.0029296999999997,0.0625,-0.2890625
2191,1.4599608999999998,0.06542969,-0.3330078
2192,1.5341797,0.27929688,-0.36914062
2193,1.3183593999999998,0.28710938,-0.35253906
2194,1.0117188,0.23339844,-0.35839844
2195,0.76660156,0.13769531,-0.33203125
2196,0.6279296999999999,0.32421875,-0.30566406
2197,0.5683594,0.30566406,-0.21875
2198,0.48730470000000004,0.3251953,-0.15820312
2199,0.40429688,0.23535156,-0.12402344
2200,0.32128906,0.3359375,-0.13085938
2201,0.30566406,0.48925779999999996,-0.16894531
2202,0.43066406,0.60546875,-0.19628906
2203,0.31835938,0.56640625,-0.32128906
2204,0.39648438,0.6826171999999999,-0.37109375
2205,0.74316406,0.84277344,-0.50878906
2206,0.81933594,0.78515625,-0.47851562
2207,0.95410156,0.7402344,-0.3623047
2208,0.9423828000000002,0.5917969,-0.38085938
2209,1.0107422,0.45898438,-0.36914062
2210,1.0048828,0.375,-0.29101562
2211,1.0332031,0.328125,-0.3359375
2212,1.0791016000000002,0.3671875,-0.31054688
2213,1.1445312,0.5654296999999999,-0.31445312
2214,0.8857421999999998,0.58691406,-0.26464844
2215,0.8623046999999998,0.39257812,-0.3046875
2216,1.2763672,0.41601562,-0.49609375
2217,1.5048828,0.09082031,-0.2841797
2218,1.6005858999999998,0.08105469,-0.29003906
2219,1.5097656000000002,-0.041015625,-0.16699219
2220,1.5830078,0.076171875,-0.16992188
2221,1.4179688,0.10253906,-0.18847656
2222,1.1474608999999998,0.21582031,-0.23632812
2223,0.96972656,0.3154297,-0.20410156
2224,0.87402344,0.32421875,-0.19238281
2225,0.7597656,0.36914062,-0.20605469
2226,0.6904296999999999,0.36816406,-0.21679688
2227,0.5996094,0.37402344,-0.18945312
2228,0.32617188,0.49511720000000004,-0.1953125
2229,0.27734375,0.5234375,-0.17675781
2230,0.23730469,0.56640625,-0.19824219
2231,0.39257812,0.63183594,-0.19628906
2232,0.5488281,0.5859375,-0.20996094
2233,0.40234375,0.5644531,-0.2578125
2234,0.7939453000000001,0.7050781,-0.3076172
2235,0.8154296999999999,0.72265625,-0.421875
2236,1.0732422,0.60253906,-0.32910156
2237,1.2060547,0.5498046999999999,-0.22460938
2238,1.2363281000000002,0.27246094,-0.24804688
2239,1.4072266000000002,0.5292969,-0.3642578
2240,1.1542968999999998,0.2734375,-0.31640625
2241,1.1699218999999998,0.2890625,-0.32226562
2242,1.15625,0.056640625,-0.27539062
2243,1.109375,-0.061523438,-0.2763672
2244,1.0195312,-0.20703125,-0.13476562
2245,0.95703125,0.20898438,-0.15332031
2246,0.85253906,0.12597656,-0.109375
2247,1.0146484,0.12402344,-0.018554688
2248,1.0859375,0.1171875,-0.038085938
2249,0.9863280999999999,0.12011719,-0.10839844
2250,1.28125,0.061523438,-0.10644531
2251,1.3193358999999998,-0.21777344,-0.10449219
2252,1.1367188,0.19726562,-0.17675781
2253,1.3183593999999998,0.20703125,-0.15234375
2254,1.3613281000000002,0.12597656,-0.30664062
2255,1.1923828,0.203125,-0.30859375
2256,1.1914062,0.42578125,-0.25
2257,1.0986328,0.46972656,-0.08691406
2258,1.0,0.56933594,-0.2734375
2259,0.8642578000000002,0.53515625,-0.17382812
2260,0.0546875,-1.9902343999999996,1.453125
2261,-1.9970703,2.008789,-1.7373047
2262,0.3310547,-1.9902343999999996,0.13378906
2263,0.7529296999999999,1.0908203,-0.47363279999999996
2264,-0.12988281,0.7441406,-0.7167969
2265,0.17480469,0.6357421999999999,-0.625
2266,0.6796875,0.6230469,-0.5683594
2267,1.6875,-0.19628906,-0.33691406
2268,1.1542968999999998,-0.18554688,-0.14746094
2269,1.2792968999999998,0.62890625,0.06542969
2270,1.34375,0.3388672,0.016601562
2271,1.2363281000000002,0.3955078,-0.0009765625
2272,1.2441406000000002,0.48925779999999996,-0.13574219
2273,1.2041016000000002,0.35546875,-0.19238281
2274,1.4628906000000002,0.4013672,-0.061523438
2275,1.2304688,0.53808594,-0.025390625
2276,1.1005858999999998,0.32421875,-0.1171875
2277,0.9560546999999998,0.20019531,-0.0703125
2278,0.9580078000000002,0.22265625,-0.015625
2279,0.93066406,0.43261720000000004,-0.047851562
2280,0.9042969000000001,0.14746094,-0.044921875
2281,0.8330078000000002,0.12402344,-0.09277344
2282,0.91015625,0.15136719,-0.14160156
2283,0.7451171999999999,0.08984375,-0.20996094
2284,0.8027344,-0.026367188,-0.359375
2285,1.2861328,0.25878906,-0.41210938
2286,2.0009766,-0.038085938,-0.20605469
2287,1.1425781000000002,-0.25097656,-0.2265625
2288,1.0839843999999998,0.109375,-0.26660156
2289,1.6728516,-0.12988281,0.022460938
2290,1.453125,0.046875,-0.044921875
2291,1.4492188,-0.08105469,-0.07519531
2292,1.2363281000000002,-0.18652344,0.00390625
2293,1.1523438,-0.022460938,-0.060546875
2294,1.1035156000000002,-0.09765625,-0.11425781
2295,0.98339844,-0.16503906,-0.06640625
2296,0.8808594000000001,0.12695312,-0.123046875
2297,0.6328125,-0.005859375,-0.13574219
2298,0.5029297,-0.009765625,-0.22460938
2299,0.46875,0.08496094,-0.20507812
2300,0.38671875,0.17871094,-0.24121094
2301,0.46191406,0.20800781,-0.37109375
2302,0.88378906,0.15234375,-0.26367188
2303,1.0410156,0.12890625,-0.3125
2304,0.9941405999999999,0.4013672,-0.41699220000000004
2305,1.4599608999999998,0.25097656,-0.50097656
2306,1.4599608999999998,0.055664062,-0.36523438
2307,1.3525391000000002,0.1640625,-0.2685547
2308,1.3583983999999998,0.24511719,-0.19238281
2309,1.265625,0.29296875,-0.18847656
2310,1.203125,0.22753906,-0.1875
2311,1.1298828,-0.043945312,-0.09375
2312,1.2548828,0.20507812,-0.051757812
2313,1.0136719,0.2841797,-0.16503906
2314,0.9746094000000001,0.05078125,-0.16894531
2315,0.9472655999999999,0.13964844,-0.19921875
2316,0.8886719000000001,0.053710938,-0.11035156
2317,0.9267578000000002,0.043945312,-0.044921875
2318,1.0058594,0.25878906,-0.06347656
2319,1.1376953,0.16796875,-0.07421875
2320,1.0595703,0.1875,-0.25097656
2321,1.3300781000000002,0.0107421875,-0.234375
2322,1.1269531000000002,0.0859375,-0.25585938
2323,1.2949218999999998,0.12207031,-0.2529297
2324,1.5439453,0.119140625,-0.32421875
2325,1.3339843999999998,0.05859375,-0.24121094
2326,1.3291016000000002,0.2705078,-0.22753906
2327,1.3203125,0.13769531,-0.16894531
2328,1.2246093999999998,0.27246094,-0.19335938
2329,1.0400391,0.5136719,-0.21972656
2330,0.8935546999999998,0.5361328000000001,-0.265625
2331,0.7207031,0.5234375,-0.36621094
2332,0.52734375,0.40429688,-0.42578125
2333,0.4091797,0.5029297,-0.3955078
2334,0.36523438,0.4453125,-0.36523438
2335,0.25195312,0.29296875,-0.3232422
2336,0.09375,0.21191406,-0.2783203
2337,-0.078125,0.19335938,-0.35742188
2338,0.52734375,0.28222656,-0.15917969
2339,1.875,0.3359375,0.0625
2340,1.0761718999999998,0.66015625,-0.17089844
2341,1.6044922,0.7363281,-0.2548828
2342,1.3300781000000002,0.66796875,-0.111328125
2343,1.3212891000000002,0.6123046999999999,-0.14550781
2344,1.1669922,0.70703125,-0.052734375
2345,1.1191406000000002,0.6904296999999999,-0.005859375
2346,1.0849608999999998,0.5830078000000001,-0.0078125
2347,1.2177733999999998,0.3779297,0.051757812
2348,1.2480468999999998,0.3408203,0.0234375
2349,0.9941405999999999,0.36621094,-0.05078125
2350,1.0380859,0.25097656,-0.13183594
2351,1.0,0.16796875,-0.09375
2352,1.125,0.32617188,-0.14257812
2353,0.8779296999999998,0.27441406,-0.15039062
2354,0.88183594,0.2919922,-0.21289062
2355,0.8417969000000001,0.1953125,-0.23242188
2356,0.8408203000000002,0.04296875,-0.20410156
2357,0.9003905999999999,0.17285156,-0.25
2358,0.84375,0.07714844,-0.28320312
2359,1.4482422,0.14257812,-0.21191406
2360,1.6943359,-0.1484375,-0.14257812
2361,1.2822266000000002,-0.16113281,-0.14550781
2362,1.0820312,0.08691406,-0.2265625
2363,1.5693358999999998,0.0029296875,-0.061523438
2364,1.1982422,-0.13476562,-0.0107421875
2365,1.1894531000000002,0.109375,-0.16601562
2366,1.2578125,0.18261719,-0.08300781
2367,1.25,0.25976562,-0.14648438
2368,1.2167968999999998,0.3798828,-0.109375
2369,0.9873046999999998,0.265625,-0.16015625
2370,0.8876953000000002,0.40820312,-0.16992188
2371,0.7089844,0.50390625,-0.18554688
2372,0.5253906,0.46582029999999996,-0.2265625
2373,0.34375,0.37695312,-0.22070312
2374,0.3046875,0.41601562,-0.1953125
2375,0.17382812,0.45019529999999996,-0.16992188
2376,0.15820312,0.43164062,-0.13378906
2377,0.14257812,0.49316406,-0.18945312
2378,0.23632812,0.57421875,-0.15234375
2379,0.78808594,0.63183594,-0.13769531
2380,0.7109375,0.58984375,-0.22851562
2381,1.1171875,0.73535156,-0.4296875
2382,0.9501953000000002,0.6357421999999999,-0.40625
2383,1.1689453,0.5878906,-0.36914062
2384,1.2783203,0.6123046999999999,-0.42285156
2385,1.3027343999999998,0.3408203,-0.24707031
2386,1.4140625,0.13671875,-0.23925781
2387,1.3613281000000002,0.38671875,-0.35058594
2388,1.2402343999999998,0.38867188,-0.3046875
2389,1.0996093999999998,0.31054688,-0.32421875
2390,1.0097656,0.043945312,-0.28027344
2391,0.88183594,0.09667969,-0.2861328
2392,0.7734375,0.091796875,-0.26660156
2393,0.7392578000000001,0.19335938,-0.22265625
2394,0.7753906,0.20117188,-0.1875
2395,0.9033203000000002,0.11816406,-0.14550781
2396,1.3828125,0.30566406,-0.21484375
2397,1.5800781000000002,-0.076171875,-0.19238281
2398,0.8808594000000001,-0.10546875,-0.27441406
2399,1.5927733999999998,0.19726562,-0.28710938
2400,1.4755858999999998,-0.21777344,-0.09375
2401,1.2441406000000002,0.017578125,-0.23925781
2402,1.1699218999999998,0.16503906,-0.23242188
2403,1.0693358999999998,0.22070312,-0.16699219
2404,0.9423828000000002,0.19824219,-0.17871094
2405,0.8251953000000002,0.2529297,-0.17382812
2406,0.71972656,0.16503906,-0.14746094
2407,0.54003906,0.22851562,-0.16503906
2408,0.48535156,0.2841797,-0.16992188
2409,0.5205078,0.36523438,-0.14257812
2410,0.42480470000000004,0.359375,-0.12207031
2411,0.75,0.5107422,-0.12597656
2412,0.94628906,0.56152344,-0.22070312
2413,0.62890625,0.5546875,-0.31640625
2414,1.2177733999999998,0.63183594,-0.31054688
2415,1.2646483999999998,0.5107422,-0.28710938
2416,1.4882812,0.45703125,-0.34570312
2417,1.3105468999999998,0.3798828,-0.34472656
2418,1.1699218999999998,0.31640625,-0.31445312
2419,1.15625,0.3564453,-0.36035156
2420,0.97265625,0.39941406,-0.37304688
2421,0.8779296999999998,0.43164062,-0.3720703
2422,0.8925780999999999,0.40527344,-0.33984375
2423,0.84472656,0.24023438,-0.33496094
2424,0.8251953000000002,0.19921875,-0.34960938
2425,0.8378905999999999,0.22949219,-0.3095703
2426,1.1503906000000002,0.24414062,-0.28222656
2427,1.4746093999999998,0.123046875,-0.17089844
2428,1.6923828,0.072265625,-0.2548828
2429,1.9404297,0.022460938,-0.26757812
2430,1.6279297,0.16796875,-0.19628906
2431,1.4931641000000002,0.28125,-0.26464844
2432,1.2070312,0.22558594,-0.2763672
2433,0.92285156,0.29589844,-0.27441406
2434,0.5986328000000001,0.29492188,-0.2578125
2435,0.54589844,0.32910156,-0.21289062
2436,0.37402344,0.32617188,-0.13671875
2437,0.2998047,0.38476562,-0.09472656
2438,0.20019531,0.35253906,-0.13867188
2439,0.15625,0.38183594,-0.15136719
2440,0.47460938,0.59765625,-0.1953125
2441,0.67871094,0.6640625,-0.2890625
2442,0.6386719,0.7207031,-0.29882812
2443,1.2392578,0.8339844000000001,-0.3828125
2444,1.0185547,0.6484375,-0.41503906
2445,1.4677733999999998,0.61816406,-0.35742188
2446,1.4189453,0.5410156,-0.36035156
2447,1.3173828,0.34960938,-0.20605469
2448,1.1875,0.34765625,-0.28320312
2449,1.0234375,0.2919922,-0.31640625
2450,1.0546875,0.29101562,-0.31347656
2451,0.9394530999999999,0.36132812,-0.2841797
2452,0.8408203000000002,0.30273438,-0.296875
2453,0.7675781,0.3076172,-0.31835938
2454,0.73046875,0.26367188,-0.34765625
2455,0.74316406,0.19238281,-0.26171875
2456,1.0898438,0.140625,-0.28027344
2457,1.6435547,-0.017578125,-0.21386719
2458,1.2119141000000002,-0.15039062,-0.19921875
2459,1.3525391000000002,-0.057617188,-0.30566406
2460,1.6318358999999998,0.10546875,-0.21191406
2461,1.4169922,0.10546875,-0.20703125
2462,1.15625,0.31933594,-0.23730469
2463,1.0732422,0.48730470000000004,-0.26660156
2464,0.97265625,0.375,-0.25878906
2465,0.9199219000000001,0.3984375,-0.27929688
2466,0.8984375,0.38964844,-0.2783203
2467,0.7402344,0.34472656,-0.28027344
2468,0.6455078000000001,0.39453125,-0.28515625
2469,0.5078125,0.42089844,-0.27246094
2470,0.36816406,0.4013672,-0.28515625
2471,0.29492188,0.35546875,-0.27734375
2472,0.29882812,0.39746094,-0.26757812
2473,0.5214844,0.47753906,-0.2548828
2474,0.6347656,0.4091797,-0.30371094
2475,0.32128906,0.36328125,-0.34765625
2476,1.0302734,0.51953125,-0.2421875
2477,0.86816406,0.5830078000000001,-0.36328125
2478,1.0244141,0.47753906,-0.38671875
2479,1.1279297,0.5078125,-0.25683594
2480,1.1650391000000002,0.34765625,-0.25
2481,1.1777343999999998,0.3984375,-0.32226562
2482,1.2226562,0.25390625,-0.3203125
2483,1.2695312,0.203125,-0.30664062
2484,1.2382812,0.20410156,-0.3076172
2485,1.2060547,0.22167969,-0.22851562
2486,1.0839843999999998,0.234375,-0.26171875
2487,1.1435547,0.19042969,-0.16699219
2488,1.1259766000000002,0.35546875,-0.22265625
2489,1.1005858999999998,0.3154297,-0.12109375
2490,1.0341797,0.30078125,-0.109375
2491,0.94628906,0.16601562,-0.17578125
2492,1.109375,0.030273438,-0.16210938
2493,1.3769531000000002,-0.60058594,0.58984375
2494,0.91503906,0.06738281,-0.19042969
2495,1.3554688,-0.63671875,0.015625
2496,0.8310546999999998,-0.18164062,-0.42285156
2497,0.765625,0.099609375,-0.3017578
2498,1.5400391000000002,0.25585938,-0.41992188
2499,1.0761718999999998,0.2763672,-0.40234375
2500,1.5458983999999998,0.41699220000000004,-0.21777344
2501,1.5761718999999998,0.38476562,-0.18652344
2502,1.4794922,0.47949220000000004,-0.091796875
2503,1.2939453,0.36816406,-0.12597656
2504,1.0830078,0.22558594,-0.11328125
2505,0.8408203000000002,0.35351562,-0.07324219
2506,0.6113281,0.3095703,-0.07910156
2507,0.53125,0.33203125,-0.10839844
2508,0.359375,0.2578125,-0.0859375
2509,0.32226562,0.18261719,-0.087890625
2510,0.29101562,0.19042969,-0.14257812
2511,0.15722656,0.23144531,-0.2109375
2512,0.55859375,0.4296875,-0.13964844
2513,1.1259766000000002,0.47070312,-0.103515625
2514,1.2080078,0.65527344,-0.31835938
2515,1.4003906000000002,0.64941406,-0.49902344
2516,1.2050781000000002,0.40722656,-0.27539062
2517,1.5107422,0.55371094,-0.2890625
2518,1.4638672,0.5625,-0.19433594
2519,1.2568358999999998,0.47265625,-0.21777344
2520,1.1826172,0.35742188,-0.23730469
2521,1.0742188,0.33789062,-0.21386719
2522,0.99902344,0.37597656,-0.17480469
2523,0.9316405999999999,0.44140625,-0.23339844
2524,0.88183594,0.33398438,-0.27441406
2525,0.85546875,0.36621094,-0.3173828
2526,0.8027344,0.42480470000000004,-0.3486328
2527,0.8359375,0.28515625,-0.32128906
2528,0.90527344,0.12011719,-0.30664062
2529,1.3769531000000002,0.24316406,-0.328125
2530,1.5107422,-0.11230469,-0.1328125
2531,0.9951171999999998,0.03125,-0.22753906
2532,1.5595703,0.25390625,-0.26464844
2533,1.5068358999999998,0.12109375,-0.119140625
2534,1.4580078,0.103515625,-0.16992188
2535,1.2822266000000002,0.078125,-0.14550781
2536,1.1748047,0.2265625,-0.18261719
2537,1.0771483999999998,0.22851562,-0.19042969
2538,1.0341797,0.19726562,-0.22949219
2539,0.9824219000000001,0.18359375,-0.20703125
2540,0.9394530999999999,0.2529297,-0.19238281
2541,0.7685546999999999,0.28710938,-0.20410156
2542,0.6386719,0.28320312,-0.23242188
2543,0.49707029999999996,0.3564453,-0.26464844
2544,0.3359375,0.3076172,-0.2919922
2545,0.3623047,0.3046875,-0.27734375
2546,0.34960938,0.37402344,-0.26660156
2547,0.38964844,0.3720703,-0.2578125
2548,0.5205078,0.40820312,-0.26660156
2549,0.6425781,0.43359375,-0.23828125
2550,0.9970703000000002,0.43359375,-0.16503906
2551,0.8720703000000002,0.41601562,-0.2607422
2552,1.0761718999999998,0.578125,-0.265625
2553,1.578125,0.45117188,-0.23632812
2554,1.296875,0.5966796999999999,-0.41894529999999996
2555,1.2451172,0.45117188,-0.265625
2556,1.1259766000000002,0.4091797,-0.33007812
2557,1.1689453,0.2783203,-0.30273438
2558,1.1240233999999998,0.29785156,-0.2763672
2559,1.1865233999999998,0.24902344,-0.21972656
2560,1.1230468999999998,0.23046875,-0.27539062
2561,1.0410156,0.14355469,-0.21777344
2562,0.89746094,0.16210938,-0.2548828
2563,0.8574219000000001,0.025390625,-0.15625
2564,0.7861328000000001,0.00390625,-0.09472656
2565,0.85546875,0.15429688,-0.064453125
2566,0.9580078000000002,0.12890625,-0.080078125
2567,1.0488281000000002,0.18847656,-0.15234375
2568,1.0546875,0.22070312,-0.21386719
2569,0.9902344000000001,0.17675781,-0.125
2570,0.9746094000000001,0.05078125,-0.046875
2571,0.83496094,-0.19433594,-0.034179688
2572,1.1748047,0.048828125,-0.08984375
2573,1.6513672,-0.6074219,0.47558594
2574,1.3378906000000002,-0.375,0.0048828125
2575,1.2783203,-0.2607422,-0.21972656
2576,1.2109375,0.5576171999999999,-0.30566406
2577,1.1435547,0.7158203000000001,-0.44140625
2578,1.2646483999999998,0.32910156,-0.34765625
2579,1.3066406000000002,0.40820312,-0.19921875
2580,1.421875,0.31347656,-0.12988281
2581,1.3515625,0.47851562,-0.07910156
2582,1.3017578,0.44433594,-0.12597656
2583,1.0957031000000002,0.39648438,-0.15136719
2584,0.8730469000000001,0.49902344,-0.1875
2585,0.6933594,0.53808594,-0.21582031
2586,0.56640625,0.6376953000000001,-0.26464844
2587,0.42382812,0.49414062,-0.27734375
2588,0.26171875,0.3935547,-0.2734375
2589,0.22753906,0.36328125,-0.28808594
2590,0.12109375,0.3544922,-0.24121094
2591,0.013671875,0.30371094,-0.19433594
2592,0.044921875,0.2685547,-0.171875
2593,-0.033203125,0.43359375,-0.3154297
2594,0.18945312,0.47753906,-0.23242188
2595,0.2705078,0.59277344,-0.02734375
2596,-0.24902344,0.7294921999999999,-0.35742188
2597,0.27539062,0.92871094,-0.68652344
2598,0.42773438,0.8984375,-0.49902344
2599,0.8251953000000002,0.94140625,-0.5751953000000001
2600,1.2763672,0.9550780999999999,-0.53515625
2601,1.3085938,0.62109375,-0.33398438
2602,1.5732422,0.49414062,-0.2998047
2603,1.4560547,0.42578125,-0.27539062
2604,1.2236328,0.46386720000000004,-0.2919922
2605,1.0869141000000002,0.41894529999999996,-0.3310547
2606,0.95703125,0.5283203000000001,-0.3154297
2607,0.8027344,0.3544922,-0.43261720000000004
2608,0.765625,0.109375,-0.5234375
2609,1.1699218999999998,0.3046875,-0.46386720000000004
2610,1.75,0.048828125,-0.045898438
2611,1.3066406000000002,-0.26367188,-0.080078125
2612,1.5800781000000002,0.043945312,-0.22851562
2613,1.3378906000000002,0.1015625,-0.33496094
2614,1.4169922,0.0087890625,-0.29882812
2615,1.1728516000000002,0.049804688,-0.111328125
2616,1.1689453,0.24804688,-0.05078125
2617,1.0478516,0.27246094,-0.11621094
2618,0.984375,0.38867188,-0.17675781
2619,0.953125,0.38183594,-0.16210938
2620,0.8173828000000001,0.53808594,-0.18652344
2621,0.7548828000000001,0.64941406,-0.109375
2622,0.7236328000000001,0.6982421999999999,-0.32421875
2623,0.5,0.57910156,-0.26757812
2624,0.45703125,0.625,-0.31933594
2625,0.38867188,0.609375,-0.37597656
2626,0.2939453,0.609375,-0.37695312
2627,0.25195312,0.60058594,-0.35546875
2628,0.15429688,0.52734375,-0.32421875
2629,0.1796875,0.515625,-0.2705078
2630,0.203125,0.46972656,-0.234375
2631,0.25,0.42382812,-0.23046875
2632,0.36035156,0.44824220000000004,-0.19921875
2633,0.68652344,0.48632812,-0.10253906
2634,0.7685546999999999,0.5283203000000001,-0.22460938
2635,0.8359375,0.57910156,-0.32226562
2636,1.4873047,0.49121094,-0.26953125
2637,1.3681641000000002,0.5371094,-0.41015625
2638,1.6699218999999996,0.5058594,-0.2529297
2639,1.4316406000000002,0.49414062,-0.26171875
2640,1.1914062,0.5341796999999999,-0.39648438
2641,1.1171875,0.46972656,-0.42480470000000004
2642,0.94628906,0.41503906,-0.24121094
2643,0.94433594,0.42382812,-0.234375
2644,0.89941406,0.2890625,-0.31640625
2645,0.9267578000000002,0.39941406,-0.44238279999999996
2646,0.81933594,0.3125,-0.49023438
2647,0.9375,0.2841797,-0.515625
2648,1.3554688,0.3515625,-0.41894529999999996
2649,1.5761718999999998,0.072265625,-0.1640625
2650,2.0029296999999997,0.083984375,-0.17089844
2651,1.7753906000000004,-0.056640625,-0.10839844
2652,1.609375,0.3642578,-0.29882812
2653,1.4248047,0.29101562,-0.20703125
2654,1.0429688,0.3310547,-0.16113281
2655,0.66308594,0.23242188,-0.10839844
2656,0.5029297,0.1640625,-0.08105469
2657,0.55078125,0.2919922,-0.12011719
2658,0.43164062,0.29882812,-0.09277344
2659,0.3623047,0.3408203,-0.10839844
2660,0.23535156,0.36816406,-0.17871094
2661,0.32128906,0.55859375,-0.26171875
2662,0.5839844,0.5908203000000001,-0.32128906
2663,0.45410156,0.63183594,-0.37597656
2664,0.9941405999999999,0.8408203000000002,-0.5859375
2665,1.0537108999999998,0.7246094,-0.45507812
2666,1.1630858999999998,0.7216796999999999,-0.3076172
2667,1.2412108999999998,0.5410156,-0.38378906
2668,1.2636718999999998,0.41503906,-0.32617188
2669,1.2832031000000002,0.37109375,-0.30664062
2670,1.234375,0.4033203,-0.29003906
2671,1.0390625,0.34375,-0.2890625
2672,0.9628905999999999,0.20800781,-0.27441406
2673,0.9580078000000002,0.36328125,-0.34570312
2674,0.8642578000000002,0.48242188,-0.33496094
2675,0.8105469,0.46875,-0.30566406
2676,1.1992188,0.53808594,-0.3486328
2677,1.3720703,0.3466797,-0.18554688
2678,1.9707031000000004,0.18945312,-0.23730469
2679,1.4960938,0.05078125,-0.28808594
2680,1.7216797,0.12695312,-0.28710938
2681,1.5761718999999998,0.08105469,-0.2861328
2682,1.1191406000000002,0.10253906,-0.29296875
2683,0.9609375,0.28027344,-0.3125
2684,0.86035156,0.23339844,-0.3076172
2685,0.68847656,0.20507812,-0.25878906
2686,0.61328125,0.17382812,-0.16601562
2687,0.57128906,0.24316406,-0.15039062
2688,0.40625,0.3095703,-0.10546875
2689,0.47558594,0.35546875,-0.09765625
2690,0.82910156,0.50097656,-0.15917969
2691,0.5058594,0.46777344,-0.2783203
2692,0.8798828000000002,0.70214844,-0.33984375
2693,1.0517578,0.79785156,-0.45800779999999996
2694,1.1591797,0.60546875,-0.37304688
2695,1.3183593999999998,0.58691406,-0.33789062
2696,1.3320312,0.44433594,-0.34179688
2697,1.359375,0.43359375,-0.34960938
2698,1.2363281000000002,0.3828125,-0.28027344
2699,1.1845703,0.2421875,-0.24804688
2700,1.0917968999999998,-0.0029296875,-0.2578125
2701,1.0273438,-0.20996094,-0.19042969
2702,0.96777344,-0.11816406,0.064453125
2703,0.81640625,0.234375,-0.15722656
2704,0.8984375,0.12792969,-0.20605469
2705,1.2050781000000002,0.19726562,-0.20800781
2706,0.984375,0.08105469,-0.21875
2707,1.2841797,0.32128906,-0.22949219
2708,1.265625,-0.0390625,-0.19628906
2709,1.3505858999999998,0.14257812,-0.22363281
2710,1.5878906000000002,0.10839844,-0.17382812
2711,1.3769531000000002,0.16308594,-0.19433594
2712,0.14453125,0.103515625,-0.421875
2713,0.46191406,0.17285156,-0.20898438
2714,1.5849608999999998,0.45117188,-0.052734375
2715,1.2099608999999998,0.77441406,-0.23828125
2716,1.2236328,0.7939453000000001,-0.3046875
2717,1.4160156000000002,0.55371094,-0.25878906
2718,1.4560547,0.546875,-0.20117188
2719,1.4492188,0.5761719,-0.14257812
2720,1.3271483999999998,0.5175781,-0.055664062
2721,1.4628906000000002,0.3671875,-0.07128906
2722,1.3681641000000002,0.37597656,-0.06347656
2723,1.1660156000000002,0.38671875,-0.07421875
2724,1.0498047,0.40234375,-0.13476562
2725,0.96777344,0.3984375,-0.15332031
2726,0.9355469000000001,0.2998047,-0.3154297
2727,0.7783203000000001,0.25878906,-0.41894529999999996
2728,0.68066406,0.23242188,-0.41796875
2729,0.79785156,0.3984375,-0.46972656
2730,0.8857421999999998,0.41113279999999996,-0.5341796999999999
2731,1.6992188000000001,0.20507812,-0.47070312
2732,2.0029296999999997,-0.36328125,-0.034179688
2733,1.3378906000000002,-0.12207031,-0.11425781
2734,1.7148438000000001,-0.0625,-0.103515625
2735,2.0029296999999997,-0.030273438,-0.020507812
2736,1.3818358999999998,0.0546875,-0.14453125
2737,1.0830078,0.29785156,-0.25878906
2738,1.1494141000000002,0.36328125,-0.18359375
2739,0.89453125,0.22167969,-0.24511719
2740,0.74609375,0.23242188,-0.31640625
2741,0.3046875,0.24414062,-0.23535156
2742,0.1953125,0.26953125,-0.19140625
2743,0.16992188,0.328125,-0.17382812
2744,0.05078125,0.32910156,-0.16113281
2745,0.0087890625,0.41699220000000004,-0.20605469
2746,0.22167969,0.5703125,-0.18652344
2747,0.625,0.74902344,-0.30566406
2748,0.5908203000000001,0.7949219,-0.40625
2749,1.0019531,0.9160155999999999,-0.40039062
2750,1.2304688,0.86328125,-0.32714844
2751,1.4072266000000002,0.61621094,-0.35351562
2752,1.3232422,0.5810546999999999,-0.3232422
2753,1.2519531000000002,0.42871094,-0.29101562
2754,1.2695312,0.4013672,-0.24804688
2755,1.0908203,0.36328125,-0.21289062
2756,1.0595703,0.34179688,-0.25976562
2757,1.0585938,0.35058594,-0.23339844
2758,0.96875,0.33398438,-0.22949219
2759,1.0029297,0.26757812,-0.19335938
2760,0.8261719000000001,0.203125,-0.10546875
2761,1.1054688,0.2685547,-0.08496094
2762,1.1464843999999998,0.06640625,-0.059570312
2763,1.0458984,0.22265625,-0.1171875
2764,1.0429688,0.5263671999999999,-0.30859375
2765,1.1425781000000002,0.37402344,-0.20214844
2766,1.3261718999999998,0.50878906,-0.33203125
2767,1.5537108999999998,0.47363279999999996,-0.23242188
2768,1.4433593999999998,0.3935547,-0.16796875
2769,1.265625,0.44433594,-0.1484375
2770,1.2041016000000002,0.44628906,-0.19140625
2771,1.0205078,0.49609375,-0.12695312
2772,1.0322266,0.57128906,-0.23730469
2773,0.8613280999999999,0.3408203,-0.30273438
2774,0.7451171999999999,0.47949220000000004,-0.3310547
2775,0.58984375,0.39453125,-0.2998047
2776,0.34570312,0.35351562,-0.32910156
2777,0.20800781,0.17578125,-0.27441406
2778,0.068359375,0.076171875,-0.22167969
2779,0.0703125,0.111328125,-0.25976562
2780,0.4609375,0.32128906,-0.034179688
2781,1.8242188000000001,0.49316406,0.030273438
2782,1.2294922,0.7558594,-0.0859375
2783,1.3740233999999998,0.8330078000000002,-0.36328125
2784,1.2324218999999998,0.65722656,-0.12207031
2785,1.6748047,0.6220703000000001,-0.030273438
2786,1.5683593999999998,0.53222656,-0.030273438
2787,1.6337891000000002,0.3984375,-0.12011719
2788,1.5488281000000002,0.3623047,-0.07714844
2789,1.3808593999999998,0.4453125,-0.041015625
2790,1.2597656000000002,0.28320312,-0.001953125
2791,1.0869141000000002,0.4091797,-0.041015625
2792,0.9580078000000002,0.2763672,-0.07910156
2793,0.8105469,0.22558594,-0.17089844
2794,0.7636719,0.083984375,-0.087890625
2795,0.65625,0.34472656,-0.23632812
2796,0.6923828000000001,0.42578125,-0.28125
2797,0.6308594,0.29003906,-0.3671875
2798,0.7236328000000001,0.048828125,-0.3642578
2799,0.9042969000000001,0.013671875,-0.38964844
2800,1.7021484,0.15136719,-0.13769531
2801,1.5449218999999998,0.099609375,-0.10644531
2802,1.3388672,0.20605469,-0.16601562
2803,1.2451172,0.25585938,-0.15722656
2804,1.1074218999999998,0.28027344,-0.11425781
2805,0.95703125,0.24316406,-0.17675781
2806,0.8359375,0.31054688,-0.18359375
2807,0.6621094,0.33691406,-0.18652344
2808,0.47558594,0.34472656,-0.18554688
2809,0.3310547,0.29296875,-0.19726562
2810,0.12890625,0.28710938,-0.1796875
2811,0.07324219,0.3955078,-0.20019531
2812,0.0068359375,0.49414062,-0.16308594
2813,1.1708983999999998,0.83496094,-0.4765625
2814,1.1601562,0.63378906,-0.3095703
2815,1.4433593999999998,0.6113281,-0.2685547
2816,1.4394531000000002,0.48242188,-0.31640625
2817,1.3515625,0.41699220000000004,-0.328125
2818,1.2490233999999998,0.39648438,-0.30664062
2819,1.0322266,0.3984375,-0.2607422
2820,1.0947266000000002,0.3876953,-0.2607422
2821,0.9609375,0.39453125,-0.28222656
2822,0.85546875,0.2841797,-0.359375
2823,0.8144531,0.14257812,-0.3720703
2824,0.8671875,0.31347656,-0.36914062
2825,1.2324218999999998,0.42382812,-0.33203125
2826,1.3613281000000002,0.31152344,-0.26464844
2827,2.0029296999999997,0.171875,-0.24316406
2828,1.6113281000000002,0.048828125,-0.1796875
2829,1.7255859,0.20800781,-0.234375
2830,1.5185547,0.17871094,-0.16113281
2831,1.1992188,0.24804688,-0.17382812
2832,1.0820312,0.15625,-0.10839844
2833,0.83984375,0.17773438,-0.11230469
2834,0.68359375,0.15625,-0.13183594
2835,0.6386719,0.19726562,-0.123046875
2836,0.6035156,0.19433594,-0.09765625
2837,0.48242188,0.25585938,-0.08300781
2838,0.32910156,0.30078125,-0.13574219
2839,0.359375,0.43457029999999996,-0.16601562
2840,0.76953125,0.5810546999999999,-0.25195312
2841,0.6015625,0.515625,-0.31347656
2842,0.9121094000000001,0.74609375,-0.45703125
2843,0.984375,0.6503906,-0.43945312
2844,1.2167968999999998,0.51171875,-0.40820312
2845,1.4550781000000002,0.44824220000000004,-0.46679688
2846,1.3789062,0.45507812,-0.27734375
2847,1.0234375,0.5107422,-0.2626953
2848,0.9873046999999998,0.41210938,-0.28515625
2849,0.89160156,0.2607422,-0.23730469
2850,0.9394530999999999,0.3017578,-0.28320312
2851,0.8378905999999999,0.5058594,-0.3173828
2852,0.9355469000000001,0.5205078,-0.40625
2853,1.421875,0.38671875,-0.30664062
2854,1.3759766000000002,0.095703125,-0.14746094
2855,1.3574218999999998,-0.083984375,-0.19726562
2856,2.0029296999999997,0.0234375,-0.19042969
2857,1.6035156000000002,0.34277344,-0.29492188
2858,1.4091797,0.29003906,-0.28515625
2859,1.1113281000000002,0.21289062,-0.21484375
2860,0.8642578000000002,0.22558594,-0.20117188
2861,0.7421875,0.20410156,-0.22363281
2862,0.59472656,0.2861328,-0.20800781
2863,0.55371094,0.30664062,-0.17480469
2864,0.43652344,0.2939453,-0.18945312
2865,0.44824220000000004,0.3359375,-0.19140625
2866,0.3125,0.39648438,-0.18359375
2867,0.296875,0.50683594,-0.203125
2868,0.62402344,0.5878906,-0.29296875
2869,0.54003906,0.5751953000000001,-0.2734375
2870,0.93652344,0.7675781,-0.38964844
2871,0.83203125,0.6376953000000001,-0.4453125
2872,1.1621093999999998,0.5839844,-0.3330078
2873,1.2558593999999998,0.6357421999999999,-0.375
2874,1.0888672,-0.034179688,-0.3232422
2875,1.2285156000000002,0.18066406,-0.3955078
2876,1.2246093999999998,0.20800781,-0.3330078
2877,1.2021483999999998,0.46875,-0.26367188
2878,1.203125,0.43066406,-0.26464844
2879,0.9941405999999999,0.36816406,-0.3466797
2880,0.8359375,0.2939453,-0.44238279999999996
2881,0.8330078000000002,0.26367188,-0.45703125
2882,1.2529297,0.33007812,-0.45410156
2883,1.2578125,0.18945312,-0.23046875
2884,1.7871093999999996,0.19824219,-0.24121094
2885,1.6972656000000004,-0.0126953125,-0.0390625
2886,1.6259766000000002,0.09863281,-0.19824219
2887,1.4902343999999998,0.09082031,-0.2734375
2888,1.2128906000000002,0.22167969,-0.20800781
2889,1.1503906000000002,0.3486328,-0.17675781
2890,0.99316406,0.31933594,-0.17089844
2891,0.8125,0.28710938,-0.22558594
2892,0.8046875,0.38867188,-0.25585938
2893,0.63378906,0.359375,-0.2421875
2894,0.44824220000000004,0.38964844,-0.22753906
2895,0.33496094,0.41699220000000004,-0.23144531
2896,0.19824219,0.39746094,-0.22363281
2897,0.13964844,0.3486328,-0.23046875
2898,0.22851562,0.3720703,-0.18457031
2899,0.47949220000000004,0.35742188,-0.20214844
2900,0.5488281,0.38476562,-0.27148438
2901,0.7324219,0.52734375,-0.23828125
2902,1.2470703,0.55566406,-0.43261720000000004
