,accel_x,accel_y,accel_z
0,0.064453125,0.99121094,0.026367188
1,0.061523438,0.9873046999999998,0.038085938
2,0.06933594,0.9892578000000002,0.030273438
3,0.07324219,0.9980469000000001,0.04296875
4,0.09375,0.9873046999999998,0.059570312
5,0.115234375,0.9951171999999998,0.041015625
6,0.13476562,1.0009766,0.037109375
7,0.14941406,1.0126953,0.029296875
8,0.24609375,0.98046875,0.0029296875
9,0.36621094,0.9892578000000002,-0.07519531
10,0.4091797,1.1240233999999998,-0.17675781
11,0.25585938,0.9921875,-0.140625
12,0.36132812,0.953125,-0.09472656
13,0.43066406,0.8457030999999999,-0.08300781
14,0.42285156,0.828125,-0.08105469
15,0.5605469,0.8330078000000002,-0.12695312
16,0.5683594,0.8154296999999999,-0.12695312
17,0.58984375,0.8222655999999999,-0.1328125
18,0.5673828000000001,0.82421875,-0.13574219
19,0.5410156,0.9160155999999999,-0.099609375
20,0.46484375,0.9511719000000001,-0.09277344
21,0.41015625,1.0761718999999998,-0.12011719
22,0.25097656,1.2402343999999998,-0.16601562
23,-0.0234375,1.2617188,-0.24707031
24,-0.08984375,0.99609375,-0.21289062
25,-0.23339844,0.99609375,-0.17578125
26,-0.17382812,1.2021483999999998,-0.20117188
27,0.12597656,1.8427734,-0.23730469
28,0.38378906,1.9599609,-0.5136719
29,0.7763671999999999,1.6416016,-0.54589844
30,1.0224609,0.9482421999999998,-0.19335938
31,0.99609375,0.24511719,-0.20605469
32,0.875,-0.14746094,0.048828125
33,0.7246094,-0.25976562,0.16113281
34,0.6201171999999999,-0.08203125,0.022460938
35,0.6855469,0.08886719,-0.20800781
36,1.1962891000000002,0.8564453000000002,-0.66503906
37,1.9287109,2.0,-1.0605468999999998
38,0.9394530999999999,2.0,-0.8847655999999999
39,0.43359375,2.0,-0.7685546999999999
40,0.06738281,1.4296875,-0.20703125
41,-0.18847656,0.7060546999999999,0.038085938
42,-0.32421875,0.48242188,0.08691406
43,-0.71191406,0.34570312,0.19238281
44,-0.36914062,0.5107422,0.25683594
45,0.12695312,1.8662109,0.11425781
46,1.2109375,1.5927733999999998,-1.5625
47,1.6650391,1.1035156000000002,-1.2929688
48,1.3945312,0.06640625,-1.3740233999999998
49,0.5722656,-0.3779297,-0.41992188
50,-0.08984375,-0.64941406,0.23828125
51,-0.123046875,-0.43261720000000004,0.6953125
52,-0.58496094,-0.49023438,0.66015625
53,0.020507812,-0.5136719,-0.076171875
54,1.2304688,-0.5722656,-1.5419922
55,1.9355468999999996,0.70703125,-2.0
56,1.6435547,1.6269531000000002,-1.5595703
57,0.6171875,1.0839843999999998,-0.46386720000000004
58,0.33007812,0.57910156,-0.18261719
59,0.06542969,0.51171875,-0.1015625
60,0.18652344,0.546875,-0.14648438
61,-0.005859375,0.5283203000000001,0.05078125
62,0.57128906,1.0009766,-0.09863281
63,1.2304688,1.8652343999999996,-0.91015625
64,1.9746093999999996,1.7792968999999996,-1.0498047
65,1.4785156000000002,1.0517578,-0.3076172
66,1.1181641000000002,0.25683594,-0.3017578
67,0.6064453000000001,-0.16503906,-0.16503906
68,0.453125,-0.6201171999999999,0.087890625
69,0.57128906,-0.5683594,0.22851562
70,0.6308594,-0.42578125,0.06542969
71,1.0703125,-0.15039062,-0.2939453
72,2.0,0.14941406,-1.1210938
73,2.0,1.6748047,-1.3535156000000002
74,2.0,2.0,-1.0888672
75,0.48535156,1.9433593999999996,-0.9746094000000001
76,-0.23046875,0.9501953000000002,-0.375
77,-0.43261720000000004,0.47070312,0.08203125
78,-0.28125,0.33984375,0.06347656
79,-0.27929688,0.41699220000000004,0.15332031
80,-0.1015625,0.68359375,0.05078125
81,0.6777344,1.4072266000000002,-0.5917969
82,2.0,2.0,-0.94433594
83,2.0,1.4804688,-0.7607421999999999
84,1.6445311999999999,0.33007812,-0.24414062
85,1.0761718999999998,-0.15332031,-0.15429688
86,0.7158203000000001,-0.6972656,0.11035156
87,0.6738281,-0.82128906,0.30371094
88,0.5371094,-0.59765625,0.171875
89,0.7675781,-0.24707031,-0.11425781
90,1.5712891000000002,0.12792969,-0.7626953000000001
91,2.0,1.5351562,-1.3935547
92,1.9746093999999996,2.0,-0.8203125
93,0.88378906,2.0,-0.45703125
94,0.2783203,0.9902344000000001,-0.13183594
95,-0.125,0.5605469,0.14550781
96,-0.08886719,0.45605470000000004,0.32714844
97,-0.17675781,0.42675779999999996,0.25390625
98,-0.17773438,0.62890625,0.26171875
99,0.20898438,1.0283203,0.125
100,1.9257811999999999,1.8964843999999996,-0.65527344
101,2.0,1.6103516000000002,-0.8027344
102,1.7050781000000004,0.6845703000000001,-0.3671875
103,1.3603516000000002,-0.0146484375,-0.19433594
104,0.5878906,-0.3720703,-0.11816406
105,0.46386720000000004,-0.5419921999999999,0.14746094
106,0.38867188,-0.60839844,-0.13671875
107,1.1054688,-0.21386719,-0.59375
108,2.0,0.68652344,-1.3642578
109,2.0,2.0,-1.4042968999999998
110,0.9326171999999998,2.0,-0.6582031
111,0.3466797,1.375,-0.18554688
112,-0.076171875,0.6279296999999999,0.28125
113,-0.36132812,0.39746094,0.40527344
114,-0.45605470000000004,0.5097656,0.3642578
115,-0.29589844,0.7705078000000001,0.2783203
116,0.40429688,1.3857422,-0.48242188
117,1.8613281000000004,2.0,-1.1347656000000002
118,2.0,1.6328125,-1.0166016
119,1.4316406000000002,0.69628906,-0.34472656
120,1.0273438,-0.05859375,0.0546875
121,0.6855469,-0.19140625,0.10449219
122,0.38476562,-0.6748046999999999,0.20019531
123,0.15039062,-0.6875,0.091796875
124,0.46679688,-0.4013672,-0.044921875
125,1.3564453,0.068359375,-0.71777344
126,2.0,1.8046875,-1.625
127,1.3613281000000002,2.0,-0.9794921999999998
128,0.7060546999999999,2.0,-0.58984375
129,0.2421875,0.95410156,-0.39453125
130,0.072265625,0.3720703,0.037109375
131,-0.052734375,0.09472656,0.28027344
132,-0.078125,0.09277344,0.15625
133,-0.09472656,0.3720703,0.13867188
134,0.3408203,0.6845703000000001,0.02734375
135,2.0,1.6582031000000004,-0.93847656
136,2.0,1.5214843999999998,-0.90234375
137,1.2626953,0.78027344,-0.49414062
138,0.97558594,0.17675781,-0.22753906
139,0.62402344,-0.055664062,-0.095703125
140,0.31835938,-0.43847656,0.15039062
141,0.12988281,-0.6689453000000001,0.21582031
142,0.19140625,-0.67871094,0.046875
143,0.57128906,-0.46484375,-0.35742188
144,2.0,0.41503906,-1.5683593999999998
145,2.0,1.9316406000000004,-1.5302733999999998
146,1.4658203,2.0,-0.56640625
147,0.6923828000000001,1.3037108999999998,-0.46777344
148,0.14648438,0.5341796999999999,-0.14453125
149,-0.12207031,0.2763672,0.16503906
150,-0.23339844,0.3310547,0.32617188
151,-0.2841797,0.55371094,0.265625
152,-0.12890625,0.7705078000000001,-0.038085938
153,0.71875,1.1923828,-0.67871094
154,2.0,1.6376953,-0.7919921999999999
155,2.0,1.3007812,-0.6855469
156,1.6113281000000002,0.23632812,-0.20117188
157,1.0019531,-0.055664062,-0.033203125
158,0.7753906,-0.43847656,0.115234375
159,0.3984375,-0.4140625,-0.08496094
160,0.6875,-0.12988281,-0.40722656
161,1.6015625,0.3486328,-0.74609375
162,2.0,1.7714843999999996,-1.6982422
163,1.8759766,2.0,-0.85253906
164,0.89746094,2.0,-0.46875
165,-0.203125,1.0625,-0.08886719
166,-0.49414062,0.46386720000000004,0.2998047
167,-0.3671875,0.28222656,0.46679688
168,-0.35058594,0.43164062,0.42675779999999996
169,-0.14160156,0.7753906,0.24707031
170,0.5097656,1.5253906000000002,-0.515625
171,1.8398438000000001,2.0,-0.8466796999999998
172,2.0,1.9326172,-1.2451172
173,1.3476562,-0.31347656,-0.00390625
174,0.84765625,-0.5234375,-0.12890625
175,0.5722656,-0.81640625,0.07421875
176,0.23925781,-0.80859375,0.005859375
177,0.60253906,-0.39746094,-0.23046875
178,1.2314453,0.14355469,-0.67578125
179,2.0,1.6289062,-1.5517578
180,1.9765625,2.0,-0.9902344000000001
181,0.97558594,2.0,-0.41308594
182,0.13671875,1.2255858999999998,-0.27929688
183,-0.15429688,0.51953125,0.078125
184,-0.25585938,0.31054688,0.25976562
185,-0.30566406,0.2939453,0.2763672
186,-0.14453125,0.46875,0.10058594
187,0.080078125,0.69628906,0.024414062
188,1.5742188,1.5517578,-0.9746094000000001
189,2.0,1.6855468999999996,-0.8408203000000002
190,2.0,1.1582031000000002,-0.79589844
191,0.7050781,0.29296875,-0.115234375
192,0.7841796999999999,0.09082031,-0.12597656
193,0.46777344,-0.421875,0.125
194,0.3251953,-0.81640625,0.14550781
195,0.3701172,-0.67578125,-0.020507812
196,0.6386719,-0.3623047,-0.30566406
197,2.0,0.27539062,-1.0722656000000002
198,2.0,2.0,-1.9228516
199,1.6113281000000002,2.0,-0.6660156
200,0.48925779999999996,1.7412109,-0.28027344
201,0.15234375,0.58984375,-0.13378906
202,-0.234375,0.234375,0.13964844
203,-0.3515625,0.28125,0.26660156
204,-0.5859375,0.625,0.2939453
205,-0.5,0.93359375,-0.0068359375
206,0.5126953,1.5527343999999998,-0.5517578000000001
207,2.0,2.0,-1.0351562
208,2.0,1.2724608999999998,-1.0527343999999998
209,1.0742188,-0.028320312,-0.18359375
210,0.97558594,-0.3359375,0.0068359375
211,0.48339844,-0.47167970000000004,0.19238281
212,0.296875,-0.57421875,0.1953125
213,0.26464844,-0.47949220000000004,0.08105469
214,0.7421875,-0.1640625,-0.29003906
215,1.2324218999999998,0.2109375,-0.6279296999999999
216,2.0,1.4423828,-1.4169922
217,1.9384766,2.0,-1.1445312
218,1.2246093999999998,2.0,-0.5957031
219,0.23242188,1.2773438,-0.38671875
220,-0.051757812,0.6855469,-0.03125
221,-0.22460938,0.4091797,0.20703125
222,-0.33203125,0.36523438,0.26660156
223,-0.36914062,0.54589844,0.13085938
224,0.11816406,0.96875,-0.2919922
225,2.0,2.0,-1.1953125
226,2.0,1.6552734,-1.1357422
227,0.9482421999999998,-0.43359375,0.047851562
228,0.796875,-0.53125,0.09472656
229,0.3330078,-0.5830078000000001,0.19042969
230,0.24023438,-0.5283203000000001,-0.0
231,0.72558594,-0.19042969,-0.2890625
232,1.1494141000000002,0.10839844,-0.5605469
233,2.0,1.0927733999999998,-1.3515625
234,1.9550781000000004,2.0,-1.0722656000000002
235,1.1425781000000002,2.0,-0.5908203000000001
236,0.20996094,1.3691406000000002,-0.44238279999999996
237,-0.060546875,0.70703125,-0.0859375
238,-0.13476562,0.3515625,0.16894531
239,-0.2626953,0.29589844,0.27929688
240,-0.25097656,0.4609375,0.11816406
241,-0.3173828,0.96972656,-0.41113279999999996
242,1.3574218999999998,1.6738281000000004,-1.4150391000000002
243,2.0,1.8398438000000001,-1.4101562
244,2.0,0.7373046999999999,-0.3955078
245,1.3300781000000002,-0.31835938,-0.07519531
246,0.8515625,-0.39648438,0.068359375
247,0.69921875,-0.6855469,0.28808594
248,0.44042970000000004,-0.6982421999999999,0.1796875
249,0.70703125,-0.39648438,-0.15039062
250,1.09375,0.005859375,-0.8486328000000002
251,2.0,1.8603516,-1.9130859
252,1.8046875,2.0,-1.3378906000000002
253,0.79785156,2.0,-0.6933594
254,0.21386719,1.0908203,-0.40429688
255,-0.15527344,0.60253906,0.13964844
256,-0.37890625,0.24414062,0.28125
257,-0.34472656,0.16894531,0.31347656
258,-0.0009765625,0.49511720000000004,0.19824219
259,0.25195312,0.8027344,-0.34179688
260,1.5078125,1.5859375,-0.8076171999999999
261,2.0,1.8486328,-1.1230468999999998
262,1.7724609,1.2041016000000002,-0.8105469
263,1.0058594,0.34472656,0.06542969
264,0.71875,-0.23925781,0.095703125
265,0.47851562,-0.45214844,0.16601562
266,0.30273438,-0.83691406,0.2919922
267,0.36914062,-0.5175781,0.07519531
268,1.0068359,-0.03125,-0.2763672
269,2.0,0.8935546999999998,-1.4453125
270,2.0,2.0,-1.5078125
271,1.3330078,2.0,-0.7919921999999999
272,0.44921875,1.6113281000000002,-0.65527344
273,-0.08691406,0.8642578000000002,-0.18945312
274,-0.26464844,0.43164062,0.13378906
275,-0.32421875,0.2685547,0.23535156
276,-0.27246094,0.26757812,0.1875
277,-0.056640625,0.43066406,0.19628906
278,0.9326171999999998,0.93066406,-0.31152344
279,2.0,1.1933593999999998,-0.9160155999999999
280,1.703125,1.4296875,-1.1103516000000002
281,1.4013672,0.7548828000000001,-0.41894529999999996
282,0.43847656,-0.13574219,0.11621094
283,0.5878906,-0.18457031,0.16894531
284,0.39257812,-0.53808594,0.3955078
285,0.53808594,-0.70214844,0.30273438
286,0.84765625,-0.21972656,0.0078125
287,1.6796875,0.21191406,-0.8779296999999998
288,2.0,1.8271484,-1.4130858999999998
289,1.8066406000000004,2.0,-1.0703125
290,0.53515625,1.9287109,-0.8496094000000001
291,0.041992188,1.1552733999999998,-0.32910156
292,-0.09472656,0.5800781,0.0068359375
293,-0.19433594,0.2705078,0.17285156
294,-0.26464844,0.30078125,0.34472656
295,-0.08105469,0.5361328000000001,0.19628906
296,0.18359375,0.9580078000000002,-0.15820312
297,1.7304688000000001,1.9755859,-1.1054688
298,1.9970703,1.9882811999999999,-1.0380859
299,1.8857422,0.87109375,-0.93066406
300,0.9277344000000001,0.20214844,0.0087890625
301,0.9921875,-0.16210938,0.072265625
302,0.5263671999999999,-0.47363279999999996,0.18847656
303,0.3623047,-0.68066406,0.18652344
304,0.40820312,-0.5888671999999999,-0.026367188
305,0.8955078000000002,-0.17480469,-0.3251953
306,2.0,0.8828125,-1.1757812
307,2.0,2.0,-1.0976562
308,0.5751953000000001,2.0,-0.6953125
309,0.21386719,1.3798828,-0.5390625
310,0.15039062,0.65527344,-0.091796875
311,-0.07421875,0.29492188,0.23632812
312,-0.20214844,0.16503906,0.265625
313,-0.22167969,0.2607422,0.14160156
314,-0.17382812,0.39257812,0.17382812
315,0.47558594,0.90625,-0.52734375
316,1.9140625,2.0,-0.7949219
317,2.0,1.875,-0.90527344
318,1.1181641000000002,0.71972656,0.08105469
319,0.9814453000000002,0.059570312,0.02734375
320,0.7314453000000001,-0.3076172,0.12597656
321,0.47753906,-0.6669921999999999,0.25195312
322,0.23828125,-0.5673828000000001,0.036132812
323,0.5488281,-0.25097656,-0.12109375
324,1.4111328,0.18359375,-0.5517578000000001
325,2.0,2.0,-1.5820312
326,1.9316406000000004,2.0,-0.89453125
327,0.484375,2.0,-0.63378906
328,0.11816406,1.0019531,-0.29492188
329,-0.15136719,0.48828125,0.091796875
330,-0.24414062,0.33789062,0.2685547
331,-0.33789062,0.3515625,0.29296875
332,-0.28222656,0.55566406,0.19824219
333,-0.00390625,0.8691405999999999,0.08300781
334,1.4052733999999998,1.9804688000000001,-0.90722656
335,2.0,1.7392578,-1.0371094
336,2.0,1.2285156000000002,-0.7402344
337,1.21875,0.31640625,-0.18652344
338,1.1367188,-0.23925781,-0.0107421875
339,0.67089844,-0.3154297,0.18261719
340,0.43066406,-0.7373046999999999,0.34570312
341,0.28710938,-0.7109375,0.19042969
342,0.6621094,-0.43457029999999996,-0.08984375
343,2.0,0.3466797,-0.8203125
344,2.0,1.7109375,-1.4355468999999998
345,2.0,2.0,-1.1601562
346,0.9736328000000002,2.0,-0.5136719
347,0.14160156,1.203125,-0.16503906
348,-0.27734375,0.6542969,0.13378906
349,-0.47949220000000004,0.49121094,0.24804688
350,-0.4609375,0.51464844,0.20800781
351,-0.33496094,0.7480469,0.16015625
352,-0.0546875,0.9980469000000001,0.001953125
353,1.3476562,2.0,-1.0546875
354,2.0,2.0,-1.0126953
355,2.0,1.4990233999999998,-0.8984375
356,1.6484375,0.21484375,0.06933594
357,1.7158203,-0.77734375,0.24414062
358,1.1025391000000002,-0.76953125,0.24609375
359,0.60253906,-0.83496094,0.03515625
360,1.0205078,0.059570312,-0.6982421999999999
361,2.0,0.8984375,-1.1953125
362,1.9667968999999996,2.0,-1.2880858999999998
363,1.5810547,2.0,-0.72558594
364,0.40722656,1.8017578,-0.37402344
365,-0.16113281,0.96972656,-0.08886719
366,-0.45996094,0.6611328000000001,0.1875
367,-0.61816406,0.4921875,0.36035156
368,-0.43554688,0.53027344,0.23925781
369,-0.17285156,0.8964844000000001,-0.0078125
370,1.4013672,2.0,-1.0585938
371,2.0,2.0,-1.3251953
372,2.0,1.4541016000000002,-0.7207031
373,1.6005858999999998,0.13085938,0.03515625
374,1.2207031000000002,-0.42675779999999996,0.044921875
375,0.9511719000000001,-0.63671875,0.1953125
376,0.6142578000000001,-0.8339844000000001,0.16210938
377,0.41699220000000004,-0.5683594,-0.115234375
378,0.8466796999999998,-0.095703125,-0.45214844
379,2.0,0.890625,-1.2792968999999998
380,1.9355468999999996,2.0,-1.2539062
381,1.1494141000000002,2.0,-0.59472656
382,0.3466797,1.5644531000000002,-0.55566406
383,-0.0234375,0.7519531,-0.21582031
384,-0.28027344,0.6230469,0.16992188
385,-0.32128906,0.3046875,0.25390625
386,-0.22851562,0.22265625,0.18164062
387,-0.064453125,0.43164062,0.15332031
388,0.66503906,1.0507812,-0.64160156
389,2.0,1.8544922,-0.8378905999999999
390,2.0,1.5615233999999998,-0.98339844
391,1.0205078,0.5390625,-0.33203125
392,0.7939453000000001,-0.0859375,-0.30664062
393,0.62109375,-0.42382812,-0.07519531
394,0.54785156,-0.80371094,0.19140625
395,0.3125,-0.71484375,0.05078125
396,0.60546875,-0.42382812,-0.25585938
397,1.5283203,0.15039062,-0.8105469
398,2.0,1.7001953,-1.4873047
399,1.8701172,2.0,-0.79785156
400,-0.421875,0.6015625,0.25976562
401,0.22363281,1.0888672,-0.33398438
402,1.9541016,2.0,-1.0175781
403,1.3388672,-0.23339844,0.42578125
404,0.6972656,-0.38867188,0.18457031
405,0.21875,-0.6376953000000001,0.20507812
406,0.14257812,-0.5839844,0.059570312
407,0.67871094,-0.30664062,-0.2529297
408,1.6884766,0.29003906,-0.4296875
409,2.0,1.53125,-0.8544921999999998
410,2.0,2.0,-0.68359375
411,1.0595703,2.0,-0.3046875
412,0.15136719,1.4736328,0.0068359375
413,-0.27148438,0.68066406,0.21484375
414,-0.7519531,0.43261720000000004,0.25
415,-0.7636719,0.44824220000000004,0.26953125
416,-0.42285156,0.6660156,0.10449219
417,0.11328125,0.93652344,-0.27734375
418,2.0,2.0,-1.4716797
419,1.9833984,2.0,-0.578125
420,2.0,1.3046875,-0.48730470000000004
421,1.1142578,0.4091797,0.59375
422,1.1357422,0.16308594,0.84375
423,0.56933594,-0.28222656,0.51953125
424,0.5722656,-0.6113281,0.24609375
425,0.51953125,-0.5263671999999999,-0.10839844
426,0.7314453000000001,-0.0029296875,-0.3076172
427,2.0,0.9433594000000001,-0.55078125
428,2.0,2.0,-0.7890625
429,1.5878906000000002,2.0,-0.39746094
430,0.5,2.0,-0.29785156
431,-0.1171875,1.1357422,0.064453125
432,-0.6621094,0.45410156,0.123046875
433,-0.6142578000000001,0.39648438,0.140625
434,-0.62402344,0.56640625,0.11035156
435,-0.3857422,0.8183594,-0.029296875
436,0.64160156,1.5957031000000002,-0.15039062
437,2.0,2.0,-0.6982421999999999
438,1.9296875,1.8847656000000004,-0.14746094
439,1.8652343999999996,1.1171875,0.15429688
440,1.0107422,0.0009765625,0.23828125
441,0.9091796999999998,-0.10839844,0.20996094
442,0.58203125,-0.4453125,0.31152344
443,0.56640625,-0.5957031,0.19921875
444,0.60839844,-0.39648438,0.005859375
445,1.1347656000000002,0.12011719,-0.22851562
446,2.0,1.6474609,-0.72265625
447,2.0,2.0,-0.68066406
448,0.92871094,2.0,-0.10546875
449,0.14160156,1.6806641,-0.056640625
450,-0.90527344,0.73339844,0.34375
451,-0.95996094,0.45507812,0.27148438
452,-0.5908203000000001,0.6220703000000001,0.29882812
453,-0.5205078,0.82421875,0.068359375
454,-0.026367188,1.2558593999999998,0.0107421875
455,1.0507812,2.0,-0.48046875
456,1.5634766000000002,2.0,0.06933594
457,1.4033203,0.9580078000000002,0.28125
458,1.03125,-0.22363281,0.28027344
459,1.1494141000000002,-0.32714844,0.19921875
460,0.7841796999999999,-0.38671875,0.20019531
461,0.8232421999999998,-0.19726562,0.041015625
462,0.87109375,0.22265625,-0.19628906
463,1.5966797,0.9892578000000002,-0.45898438
464,2.0,2.0,-0.83984375
465,1.1347656000000002,2.0,-0.45898438
466,0.25585938,2.0,-0.3330078
467,-0.45019529999999996,1.1425781000000002,-0.01171875
468,-1.1318358999999998,0.30273438,0.20703125
469,-0.78027344,0.2265625,0.3125
470,-0.49414062,0.4609375,0.17285156
471,-0.20800781,0.734375,0.04296875
472,0.48828125,1.6523438000000001,-0.19042969
473,1.6386718999999996,2.0,-0.5888671999999999
474,1.7851561999999999,2.0,-0.076171875
475,1.5722656000000002,1.2304688,0.17675781
476,1.1435547,0.06347656,0.36132812
477,0.9902344000000001,-0.1484375,0.22949219
478,0.7363281,-0.4375,0.1484375
479,0.71191406,-0.42382812,0.013671875
480,0.8417969000000001,-0.20019531,-0.14941406
481,1.1396483999999998,0.35351562,-0.41113279999999996
482,2.0,2.0,-0.9267578000000002
483,1.5605468999999998,2.0,-0.63183594
484,0.71191406,2.0,-0.19433594
485,0.057617188,1.4716797,-0.35351562
486,-0.2890625,0.5419921999999999,0.140625
487,-0.3466797,0.034179688,0.08984375
488,-0.31640625,0.051757812,0.19140625
489,-0.46777344,0.53125,0.20800781
490,1.4257812,2.0,-0.6201171999999999
491,2.0,2.0,-0.7138671999999999
492,1.7841797,1.3339843999999998,-0.45703125
493,1.1923828,0.0859375,-0.03515625
494,1.2529297,-0.25390625,0.045898438
495,0.7636719,-0.6689453000000001,0.16015625
496,0.48535156,-0.7314453000000001,0.09277344
497,0.63183594,-0.41601562,-0.017578125
498,0.88671875,-0.0087890625,-0.19921875
499,2.0,0.78027344,-0.86035156
500,2.0,2.0,-1.1240233999999998
501,1.1611328,2.0,-0.5605469
502,0.21875,1.9980468999999996,-0.49804688
503,-0.32421875,1.0019531,-0.005859375
504,-0.36328125,0.44433594,0.20214844
505,-0.34277344,0.22851562,0.21582031
506,-0.27929688,0.29882812,0.15820312
507,-0.1015625,0.61816406,0.080078125
508,0.37402344,1.6972656000000004,-0.3828125
509,1.9511718999999996,2.0,-0.6542969
510,2.0,1.8427734,-0.6035156
511,1.2597656000000002,0.41796875,-0.13671875
512,1.3076172,-0.125,-0.0234375
513,0.8339844000000001,-0.5419921999999999,0.068359375
514,0.4140625,-0.81347656,0.10644531
515,0.26953125,-0.71875,0.043945312
516,0.6699219,-0.37695312,-0.11621094
517,1.4638672,0.25,-0.5488281
518,2.0,1.7050781000000004,-1.1884766000000002
519,1.8603516,2.0,-0.7236328000000001
520,1.2539062,2.0,-0.359375
521,0.26757812,1.3359375,-0.3984375
522,-0.23632812,0.625,-0.076171875
523,-0.42480470000000004,0.38671875,0.0859375
524,-0.5078125,0.57714844,0.08496094
525,-0.7392578000000001,1.0751953,0.045898438
526,-0.31640625,1.6660156000000004,0.31835938
527,1.2705078,2.0,-0.1796875
528,2.0,2.0,-0.484375
529,2.0,1.3916016000000002,-0.6308594
530,1.4140625,0.20800781,0.20605469
531,0.75683594,-0.59765625,0.26953125
532,0.74316406,-0.53125,0.234375
533,0.59277344,-0.50097656,0.21191406
534,0.48828125,-0.32226562,-0.0390625
535,0.9970703000000002,0.13769531,-0.31445312
536,2.0,0.92578125,-0.72753906
537,2.0,2.0,-0.6542969
538,1.5068358999999998,2.0,-0.3671875
539,0.76953125,2.0,-0.14355469
540,0.40039062,1.2314453,0.13867188
541,-0.0,0.61328125,0.28125
542,-0.45800779999999996,0.41503906,0.45214844
543,-0.5498046999999999,0.3701172,0.51171875
544,-0.20703125,0.65722656,0.5097656
545,0.20117188,0.7861328000000001,0.016601562
546,2.0,1.5878906000000002,-0.55859375
547,2.0,1.7255859,-0.98339844
548,1.6757811999999999,0.7001953000000001,-0.609375
549,0.6904296999999999,-0.13378906,0.1640625
550,0.7216796999999999,-0.6660156,0.14941406
551,0.45605470000000004,-0.78027344,0.22949219
552,0.45800779999999996,-0.7216796999999999,0.06933594
553,0.9638671999999998,-0.2919922,-0.16601562
554,1.6582031000000004,0.15332031,-0.5878906
555,2.0,1.4199218999999998,-1.1943358999999998
556,2.0,2.0,-0.9794921999999998
557,0.95214844,2.0,-0.53808594
558,0.23925781,1.2480468999999998,-0.12890625
559,-0.1796875,0.57421875,0.21582031
560,-0.36328125,0.30371094,0.35546875
561,-0.66015625,0.23925781,0.3828125
562,-0.20117188,0.6152344,0.10644531
563,0.3154297,1.0576172,-0.111328125
564,1.5771483999999998,1.7988281000000004,-0.8339844000000001
565,2.0,2.0,-0.5957031
566,2.0,1.3935547,-0.7294921999999999
567,1.3203125,0.50878906,0.21875
568,0.9169921999999998,-0.5908203000000001,0.34277344
569,0.7871094,-0.55078125,0.16210938
570,0.6113281,-0.59472656,0.234375
571,0.6171875,-0.46875,-0.041992188
572,0.9794921999999998,-0.013671875,-0.265625
573,1.7412109,0.49609375,-0.68359375
574,2.0,2.0,-1.2324218999999998
575,1.9228516,2.0,-0.5839844
576,0.7109375,2.0,-0.515625
577,-0.08691406,1.0908203,-0.2705078
578,0.11230469,0.6660156,0.0625
579,-0.19042969,0.24316406,0.115234375
580,-0.45117188,0.18652344,0.05859375
581,-0.36523438,0.39746094,-0.07421875
582,0.1484375,1.2177733999999998,-0.05078125
583,2.0,2.0,-0.5859375
584,1.9716797,2.0,-0.71875
585,2.0,0.8339844000000001,-0.4765625
586,1.1347656000000002,-0.31933594,0.009765625
587,0.9765625,-0.48535156,-0.13574219
588,0.6591796999999999,-0.7402344,-0.026367188
589,0.4091797,-0.92285156,0.020507812
590,0.6015625,-0.59277344,-0.053710938
591,0.8886719000000001,-0.16210938,-0.41015625
592,2.0,0.8144531,-1.0498047
593,2.0,2.0,-1.3105468999999998
594,1.3134766000000002,2.0,-0.61328125
595,0.5361328000000001,1.6816406000000004,-0.20703125
596,0.19238281,0.9169921999999998,0.16796875
597,-0.5703125,0.47265625,0.37304688
598,-0.4921875,0.453125,0.32617188
599,1.2910156000000002,0.9082030999999999,0.02734375
600,1.296875,-0.09375,0.18847656
601,0.83984375,-0.2705078,0.16601562
602,0.7832031,-0.61035156,0.1875
603,0.625,-0.57128906,0.0078125
604,0.6904296999999999,-0.20996094,-0.125
605,1.2255858999999998,0.24511719,-0.609375
606,2.0,1.8056641,-1.1953125
607,2.0,2.0,-0.8642578000000002
608,1.0126953,2.0,-0.3388672
609,0.19042969,1.5332031000000002,-0.3330078
610,-0.17871094,0.75878906,0.078125
611,-0.50878906,0.6035156,0.38476562
612,-1.0351562,1.0957031000000002,0.45507812
613,-0.8808594000000001,1.3681641000000002,0.33398438
614,-0.20507812,1.4882812,0.053710938
615,1.484375,2.0,-0.7138671999999999
616,1.9570311999999999,2.0,-0.7675781
617,1.9912109,1.8300781000000004,-0.75390625
618,1.3916016000000002,0.13476562,-0.13476562
619,1.2929688,-0.23535156,0.026367188
620,1.0458984,-0.3310547,0.16015625
621,0.78222656,-0.5410156,0.18945312
622,0.74316406,-0.33789062,0.095703125
623,0.9316405999999999,0.08984375,-0.21289062
624,1.8535156000000004,0.8808594000000001,-0.6894531
625,2.0,2.0,-1.0234375
626,1.7783203,2.0,-0.6464844
627,0.40234375,2.0,-0.49609375
628,-0.2607422,1.3847656000000002,-0.16113281
629,-0.7011719,0.64453125,0.41699220000000004
630,-0.5888671999999999,0.5234375,0.31445312
631,-0.57714844,0.5546875,0.40820312
632,-0.3232422,0.7988281,0.21875
633,-0.01953125,1.4707031000000002,-0.20800781
634,1.8027343999999996,2.0,-1.1025391000000002
635,2.0,2.0,-0.78222656
636,1.4667968999999998,1.0449219,-0.31933594
637,1.6660156000000004,-0.028320312,-0.22460938
638,1.1796875,-0.14550781,0.10546875
639,0.86035156,-0.5576171999999999,0.046875
640,0.50683594,-0.53808594,-0.024414062
641,0.52734375,-0.375,0.053710938
642,0.55566406,-0.08496094,-0.123046875
643,1.9970703,0.3125,-1.2197266000000002
644,2.0,2.0,-1.5634766000000002
645,1.640625,2.0,-0.7216796999999999
646,0.41699220000000004,1.8818359,-0.73339844
647,-0.22167969,0.91308594,-0.25
648,-0.58496094,0.44921875,0.26367188
649,-0.55859375,0.42089844,0.30273438
650,-0.71972656,0.56347656,0.296875
651,-0.45214844,0.81640625,0.25878906
652,0.6542969,1.7509766,-0.68359375
653,2.0,2.0,-1.0615233999999998
654,2.0,2.0,-0.86035156
655,1.3994141000000002,0.8613280999999999,-0.3251953
656,0.95703125,0.21875,0.22265625
657,0.7675781,0.103515625,0.03515625
658,0.52734375,-0.58203125,0.12109375
659,0.40820312,-0.75878906,0.20019531
660,0.6230469,-0.5136719,-0.045898438
661,0.8701171999999998,-0.076171875,-0.328125
662,2.0,1.0683593999999998,-1.4541016000000002
663,2.0,1.9003906000000004,-1.4707031000000002
664,1.5361328,2.0,-0.8779296999999998
665,0.18359375,1.7255859,-0.65625
666,-0.57714844,0.9091796999999998,-0.0625
667,-0.82910156,0.49804688,0.22070312
668,-0.9482421999999998,0.38964844,0.31445312
669,-0.7294921999999999,0.6982421999999999,0.11621094
670,-0.4453125,1.1162108999999998,-0.030273438
671,1.1464843999999998,2.0,-1.0087891
672,1.5878906000000002,2.0,-1.3837891000000002
673,2.0,2.0,-1.4863281000000002
674,1.5136718999999998,1.0410156,-0.5107422
675,1.3525391000000002,-0.20703125,-0.10644531
676,1.5146483999999998,-0.39160156,-0.03125
677,1.2792968999999998,-0.6484375,0.34277344
678,0.9042969000000001,-0.44335938,0.0126953125
679,0.7451171999999999,-0.09765625,-0.2685547
680,1.078125,0.2890625,-1.0126953
681,2.0,1.6083983999999998,-2.0
682,1.7529297,2.0,-1.6015625
683,0.734375,2.0,-0.75
684,0.017578125,1.3085938,-0.56152344
685,-0.65625,0.67285156,0.234375
686,-0.7519531,0.48144529999999996,0.46875
687,-0.6796875,0.5107422,0.30566406
688,-0.115234375,0.8457030999999999,0.03125
689,0.56640625,1.5976562,-0.28515625
690,1.3027343999999998,0.09765625,-0.022460938
691,1.0683593999999998,-0.23339844,-0.06640625
692,0.6972656,-0.55859375,-0.11230469
693,0.5029297,-0.64941406,-0.16015625
694,0.55371094,-0.60058594,-0.25097656
695,0.91503906,-0.23925781,-0.52441406
696,1.7988281000000004,0.3388672,-1.2734375
697,2.0,1.8056641,-1.6865234
698,2.0,2.0,-0.72558594
699,0.9140625,1.7353516,-0.5878906
700,0.09375,0.9658203000000002,-0.13378906
701,0.10058594,0.5361328000000001,0.28515625
702,0.1015625,0.40722656,0.3671875
703,-0.0625,0.16796875,0.20898438
704,0.6767578000000001,0.4609375,0.45703125
705,0.89453125,0.3310547,0.41992188
706,1.3154297,0.5751953000000001,0.7216796999999999
707,1.2050781000000002,0.50683594,0.58984375
708,1.1337891000000002,0.23046875,0.47851562
709,0.8144531,0.053710938,0.4033203
710,0.46972656,-0.13574219,0.32714844
711,0.34765625,-0.37402344,0.38964844
712,0.24804688,-0.44238279999999996,0.3251953
713,0.6357421999999999,-0.3095703,0.3564453
714,1.0107422,0.080078125,0.43945312
715,1.3144531000000002,0.41894529999999996,0.27539062
716,1.7958984,0.9550780999999999,0.3125
717,0.9140625,0.9628905999999999,0.12597656
718,0.71191406,0.734375,0.09472656
719,0.859375,0.7392578000000001,0.20214844
720,0.6142578000000001,0.44726562,0.13183594
721,0.3154297,0.48144529999999996,0.08984375
722,0.5234375,0.6464844,0.017578125
723,0.5292969,1.6464843999999996,-0.43457029999999996
724,1.4736328,2.0,-0.55078125
725,1.6103516000000002,1.5986328,-0.77441406
726,1.6044922,0.7314453000000001,-0.3701172
727,0.9658203000000002,-0.421875,0.061523438
728,1.0039062,-0.5839844,0.15039062
729,0.62402344,-0.7675781,0.13085938
730,0.2529297,-0.640625,-0.06542969
731,0.5830078000000001,-0.24316406,-0.19140625
732,1.2519531000000002,0.27734375,-0.5234375
733,2.0,1.3623047,-1.1582031000000002
734,2.0,2.0,-0.79003906
735,1.3515625,2.0,-0.3359375
736,0.30664062,1.4189453,-0.17382812
737,-0.061523438,0.7314453000000001,0.076171875
738,-0.25683594,0.46582029999999996,0.28222656
739,-0.5390625,0.31445312,0.26367188
740,-0.33203125,0.5107422,0.25195312
741,-0.024414062,1.1660156000000002,0.10449219
742,1.8154297,2.0,-0.73828125
743,2.0,2.0,-0.5449219
744,2.0,1.2792968999999998,-0.37109375
745,1.1738281000000002,0.13867188,0.1328125
746,0.91796875,-0.2607422,0.078125
747,0.7763671999999999,-0.6855469,-0.057617188
748,0.5058594,-0.8222655999999999,-0.060546875
749,0.75878906,-0.56640625,-0.15625
750,1.2158203,0.18554688,-0.21679688
751,2.0,1.0673828,-0.9785155999999999
752,2.0,2.0,-1.2695312
753,1.2548828,2.0,-0.38085938
754,0.49511720000000004,1.7460938000000001,-0.18652344
755,-0.021484375,0.87109375,0.0546875
756,-0.16796875,0.47070312,0.36621094
757,-0.3623047,0.39257812,0.3232422
758,-0.2685547,0.6035156,0.2939453
759,-0.15820312,0.7636719,0.32617188
760,0.022460938,1.0410156,-0.18847656
761,1.9824218999999996,1.921875,-0.9033203000000002
762,2.0,1.2324218999999998,-0.625
763,1.8222656000000004,0.41796875,-0.43554688
764,0.9980469000000001,-0.18847656,0.032226562
765,0.9003905999999999,-0.26171875,0.09277344
766,0.61816406,-0.57714844,0.15527344
767,0.34472656,-0.6220703000000001,0.13867188
768,0.6357421999999999,-0.4140625,-0.16894531
769,0.9736328000000002,0.026367188,-0.44433594
770,2.0,0.7998046999999999,-1.0693358999999998
771,2.0,1.9394531000000004,-1.1201172
772,1.859375,2.0,-0.49707029999999996
773,0.5957031,1.7148438000000001,0.095703125
774,0.1328125,0.8144531,0.24414062
775,-0.05078125,0.4033203,0.30859375
776,-0.28710938,0.23046875,0.2529297
777,-0.19628906,0.34375,0.12207031
778,0.3125,0.77734375,0.26953125
779,0.9560546999999998,0.9511719000000001,-0.5761719
780,1.9257811999999999,1.2822266000000002,-0.40234375
781,2.0,0.984375,-0.3125
782,1.2226562,0.21875,-0.06542969
783,0.3779297,-0.5830078000000001,0.12792969
784,2.0,2.0,-0.74609375
785,1.0849608999999998,1.9394531000000004,-0.18945312
786,0.6328125,0.9746094000000001,-0.23339844
787,0.23046875,0.41503906,-0.068359375
788,1.8115234,0.97558594,-0.61035156
789,0.9609375,0.20996094,-0.2548828
790,0.82128906,0.13671875,-0.26953125
791,0.44335938,-0.30859375,0.005859375
792,0.20507812,-0.7363281,0.1015625
793,0.08203125,-0.81640625,0.076171875
794,0.67578125,-0.6455078000000001,-0.375
795,1.0302734,-0.07714844,-0.64746094
796,2.0,1.1552733999999998,-1.4951172
797,1.9199218999999996,1.7011718999999996,-0.86621094
798,1.3193358999999998,2.0,-0.3779297
799,0.44042970000000004,1.1865233999999998,-0.09082031
800,0.10058594,0.5654296999999999,0.14550781
801,-0.08496094,0.30664062,0.080078125
802,-0.3466797,0.2705078,0.1328125
803,-0.1875,0.39453125,-0.072265625
804,0.29101562,0.57910156,-0.6611328000000001
805,1.5673828,1.3857422,-0.8466796999999998
806,1.9921875,1.5957031000000002,-0.515625
807,1.84375,1.078125,-0.42871094
808,1.2177733999999998,0.53125,0.33496094
809,1.1044922,0.2578125,0.22753906
810,0.58496094,-0.037109375,0.34765625
811,0.25683594,-0.46777344,0.21289062
812,0.20507812,-0.5527344,0.022460938
813,0.63964844,-0.28320312,-0.21582031
814,2.0,0.20117188,-0.9609375
815,2.0,1.6914061999999999,-1.3759766000000002
816,2.0,2.0,-1.0273438
817,0.7089844,1.8203125,-0.5595703000000001
818,0.095703125,0.84375,-0.13867188
819,-0.041992188,0.5214844,0.18261719
820,-0.39648438,0.33691406,0.22070312
821,-0.5263671999999999,0.45800779999999996,0.23144531
822,-0.35839844,0.59375,0.15625
823,0.2578125,1.1923828,-0.3828125
824,1.6416016,2.0,-1.2353516000000002
825,2.0,1.9833984,-0.89453125
826,1.421875,0.7685546999999999,-0.31445312
827,1.4189453,-0.12695312,-0.14355469
828,0.9707030999999999,-0.2578125,-0.030273438
829,0.7060546999999999,-0.6826171999999999,0.08203125
830,0.40234375,-0.7558594,0.095703125
831,0.65234375,-0.17089844,-0.36523438
832,2.0,1.3603516000000002,-1.1435547
833,2.0,2.0,-1.3261718999999998
834,0.83496094,2.0,-0.5185547
835,0.40625,1.2578125,-0.43847656
836,-0.0087890625,0.6660156,0.18945312
837,-0.47167970000000004,0.29589844,0.48828125
838,-0.43457029999999996,0.33691406,0.36914062
839,-0.53222656,0.58496094,0.32421875
840,-0.20703125,1.1650391000000002,-0.0
841,1.2705078,2.0,-0.72753906
842,1.5234375,2.0,-0.6591796999999999
843,1.7148438000000001,1.7714843999999996,-0.45507812
844,1.1376953,0.71875,0.059570312
845,1.0488281000000002,0.49804688,-0.055664062
846,0.62597656,-0.19433594,-0.10058594
847,0.8720703000000002,-0.78222656,0.0078125
848,0.69433594,-0.6621094,-0.21484375
849,0.69921875,-0.52734375,-0.3876953
850,0.82128906,-0.12402344,-0.7470703000000001
851,2.0,1.1210938,-1.1826172
852,2.0,2.0,-0.60253906
853,0.8964844000000001,2.0,0.041992188
854,0.2607422,1.2763672,-0.10839844
855,0.11035156,0.5332031,0.23242188
856,0.10644531,0.26464844,0.32714844
857,0.020507812,0.28515625,0.23535156
858,-0.09082031,0.25390625,0.21289062
859,0.16992188,0.6074219,0.24804688
860,1.1855468999999998,1.1748047,-0.7373046999999999
861,1.9765625,1.6289062,-0.53515625
862,1.953125,1.2724608999999998,-0.41699220000000004
863,0.9003905999999999,0.5292969,0.057617188
864,0.89453125,0.44140625,0.0029296875
865,0.6298828000000001,0.041992188,0.16796875
866,0.31640625,-0.43066406,0.22167969
867,0.35742188,-0.60058594,0.16894531
868,0.49804688,-0.49707029999999996,0.087890625
869,1.3330078,-0.029296875,-0.6953125
870,2.0,0.81347656,-1.5859375
871,2.0,1.4316406000000002,-1.6308593999999998
872,1.4326172,2.0,-0.7763671999999999
873,0.48730470000000004,1.4238281000000002,-0.29882812
874,0.0703125,0.80078125,0.19140625
875,-0.43652344,0.640625,0.45703125
876,-0.44140625,0.6142578000000001,0.20507812
877,-0.095703125,0.7265625,-0.032226562
878,0.984375,1.3525391000000002,-0.7871094
879,2.0,1.3085938,-0.8671875
880,1.0,0.45410156,-0.13085938
881,1.3105468999999998,0.14257812,-0.07519531
882,0.9267578000000002,-0.13769531,0.08886719
883,0.48828125,-0.37304688,0.17675781
884,0.22949219,-0.42382812,-0.015625
885,0.5341796999999999,-0.35742188,-0.09277344
886,0.8378905999999999,-0.11816406,-0.49316406
887,2.0,0.66796875,-1.3935547
888,2.0,0.78808594,-0.6894531
889,1.4853516000000002,1.9902343999999996,-0.82714844
890,0.38671875,1.5175781000000002,-0.6298828000000001
891,-0.09375,0.7949219,-0.15722656
892,-0.12597656,0.5214844,0.2685547
893,-0.15332031,0.44726562,0.32421875
894,-0.27246094,0.5292969,0.25976562
895,-0.18066406,0.7285156,0.15722656
896,0.93359375,1.4033203,-0.8105469
897,2.0,1.7119141,-0.9394530999999999
898,2.0,1.2158203,-1.078125
899,1.1894531000000002,0.33789062,0.005859375
900,0.9863280999999999,-0.203125,0.22167969
901,0.49511720000000004,-0.41992188,0.15527344
902,0.24609375,-0.6269531,0.14160156
903,0.21679688,-0.5888671999999999,-0.05078125
904,0.8574219000000001,-0.2763672,-0.3857422
905,1.9638672,0.29101562,-0.88671875
906,2.0,1.3945312,-1.3984375
907,2.0,2.0,-0.90722656
908,0.7871094,1.9072266,-0.78808594
909,0.14550781,0.9716796999999998,-0.5546875
910,-0.078125,0.52246094,-0.061523438
911,-0.11425781,0.4921875,0.19824219
912,-0.13671875,0.55859375,0.25
913,-0.140625,0.70214844,0.203125
914,0.49902344,1.1621093999999998,-0.16308594
915,1.9970703,1.3740233999999998,-0.8378905999999999
916,2.0,1.0527343999999998,-0.75683594
917,1.7167968999999996,0.24414062,-0.53808594
918,1.0166016,-0.31835938,0.171875
919,0.82714844,-0.390625,0.19628906
920,0.4013672,-0.49511720000000004,0.2626953
921,0.095703125,-0.4765625,0.08984375
922,0.3984375,-0.25683594,-0.24804688
923,-0.055664062,0.2626953,-0.0
924,-0.46191406,-0.0546875,-0.46875
925,-0.2734375,0.15625,-0.19628906
926,0.3623047,0.5517578000000001,-0.37890625
927,1.6894531000000004,1.3974608999999998,-0.7285156
928,2.0,1.6494141,-0.37109375
929,1.7373047,1.3261718999999998,-0.5957031
930,1.2255858999999998,0.5283203000000001,-0.23046875
931,0.42089844,-0.203125,0.083984375
932,0.38085938,-0.5371094,0.026367188
933,0.09472656,-0.70703125,0.057617188
934,0.21289062,-0.6171875,-0.23242188
935,0.96777344,-0.07519531,-0.6279296999999999
936,2.0,0.95703125,-1.3876953
937,2.0,1.8417968999999996,-1.2324218999999998
938,1.0898438,1.7685547,-0.75
939,0.515625,1.0439453,-0.50097656
940,0.29296875,0.515625,-0.25976562
941,-0.037109375,0.080078125,-0.15234375
942,-0.078125,-0.0,0.11621094
943,-0.14941406,0.15136719,0.107421875
944,0.29003906,0.52441406,0.045898438
945,1.0615233999999998,1.0273438,-0.53515625
946,2.0,1.3847656000000002,-0.6074219
947,2.0,1.0507812,-0.953125
948,1.3349608999999998,0.375,-0.421875
949,0.7626953000000001,-0.076171875,0.009765625
950,0.61816406,-0.076171875,0.0703125
951,0.22851562,-0.46386720000000004,0.17871094
952,-0.064453125,-0.5566406,0.11621094
953,0.3798828,-0.48535156,-0.20800781
954,1.6621093999999996,-0.072265625,-0.7294921999999999
955,2.0,0.9472655999999999,-1.3447266000000002
956,2.0,1.2265625,-0.97558594
957,1.1533203,1.8398438000000001,-0.6699219
958,0.28808594,1.0820312,-0.41894529999999996
959,-0.047851562,0.5830078000000001,-0.026367188
960,-0.059570312,0.57128906,0.38867188
961,-0.20214844,0.45117188,0.31445312
962,-0.17089844,0.47167970000000004,0.21582031
963,0.28808594,0.75878906,0.03125
964,2.0,1.0019531,-0.80566406
965,2.0,1.1708983999999998,-0.7705078000000001
966,0.94628906,-0.017578125,-0.046875
967,0.45507812,0.7998046999999999,-0.03515625
968,0.2783203,0.3798828,0.10546875
969,-0.040039062,0.22949219,0.23144531
970,-0.11230469,0.4091797,0.28320312
971,0.005859375,0.5341796999999999,0.24121094
972,0.44921875,0.6826171999999999,-0.046875
973,2.0,0.8457030999999999,-0.88671875
974,2.0,1.1152343999999998,-0.3359375
975,1.8701172,0.62597656,-0.19335938
976,0.9560546999999998,-0.0107421875,-0.032226562
977,0.9472655999999999,-0.1328125,-0.13085938
978,0.48339844,-0.42285156,0.10546875
979,0.3095703,-0.5859375,0.1484375
980,0.43164062,-0.52246094,-0.16015625
981,0.92089844,-0.26660156,-0.375
982,2.0,0.27929688,-0.77246094
983,2.0,1.5205078,-1.2333983999999998
984,1.6054688,2.0,-0.5527344
985,0.5449219,1.2744141000000002,-0.2861328
986,0.0009765625,0.5732421999999999,-0.0087890625
987,0.01171875,0.36035156,0.24414062
988,0.087890625,0.2578125,0.30371094
989,0.07128906,0.265625,0.203125
990,0.3203125,0.5800781,0.07128906
991,0.9003905999999999,1.0,-0.6142578000000001
992,1.9511718999999996,1.3525391000000002,-0.79296875
993,2.0,1.4453125,-0.7392578000000001
994,1.4072266000000002,0.59765625,-0.22363281
995,0.9580078000000002,0.12109375,0.09277344
996,0.6582031,-0.20410156,-0.052734375
997,0.3359375,-0.59375,0.09765625
998,0.25195312,-0.64941406,0.052734375
999,0.59375,-0.49316406,-0.16015625
1000,1.2890625,-0.11328125,-0.5107422
1001,2.0,0.9082030999999999,-1.03125
1002,2.0,1.5361328,-1.0869141000000002
1003,1.3300781000000002,1.9257811999999999,-0.5673828000000001
1004,0.42578125,1.3779297,-0.27441406
1005,0.0009765625,0.67285156,-0.022460938
1006,-0.26953125,0.4375,0.3798828
1007,-0.2529297,0.46875,0.36816406
1008,-0.10058594,0.8076171999999999,0.013671875
1009,1.4824218999999998,1.8896484,-0.8027344
1010,2.0,2.0,-1.1230468999999998
1011,1.9980468999999996,1.1738281000000002,-0.5722656
1012,1.1201172,0.123046875,0.02734375
1013,0.9736328000000002,-0.14648438,0.06933594
1014,0.734375,-0.45507812,0.20800781
1015,0.6298828000000001,-0.5966796999999999,0.20703125
1016,0.5517578000000001,-0.49023438,-0.048828125
1017,0.84375,-0.15917969,-0.24902344
1018,1.9609375,0.35839844,-1.0263672
1019,2.0,1.9873047,-1.3525391000000002
1020,1.7558593999999996,2.0,-0.765625
1021,0.6894531,2.0,-0.453125
1022,0.022460938,1.0371094,-0.10058594
1023,0.017578125,0.6455078000000001,0.36914062
1024,-0.17480469,0.3544922,0.39648438
1025,-0.5332031,0.36523438,0.25683594
1026,-0.17675781,0.5839844,0.08300781
1027,0.38671875,1.1689453,-0.8457030999999999
1028,1.6123047,1.8388672,-0.9394530999999999
1029,2.0,1.5673828,-0.6689453000000001
1030,1.7841797,0.80371094,-0.37402344
1031,1.4199218999999998,-0.09277344,0.22851562
1032,1.1699218999999998,-0.016601562,0.20507812
1033,0.6376953000000001,-0.40722656,0.25683594
1034,0.25878906,-0.5419921999999999,0.21484375
1035,0.4033203,-0.3984375,-0.07421875
1036,0.83496094,-0.0703125,-0.48632812
1037,2.0,0.9267578000000002,-1.1357422
1038,2.0,1.7578125,-1.2490233999999998
1039,1.609375,2.0,-0.58496094
1040,0.39746094,1.4238281000000002,-0.47558594
1041,-0.0078125,0.77734375,0.076171875
1042,0.17871094,0.6298828000000001,0.640625
1043,0.018554688,0.3857422,0.5
1044,-0.60253906,0.3408203,0.0087890625
1045,-0.23632812,0.6425781,0.05859375
1046,0.8808594000000001,1.3935547,-0.62109375
1047,1.6787109,1.6835938000000001,-0.69433594
1048,2.0,1.5351562,-0.46679688
1049,1.2373047,0.5185547,-0.16210938
1050,1.203125,0.26757812,-0.053710938
1051,1.0771483999999998,-0.07128906,0.21875
1052,0.6621094,-0.5449219,0.19335938
1053,0.37890625,-0.50683594,-0.041015625
1054,0.5703125,-0.32128906,-0.19335938
1055,0.7890625,-0.08886719,-0.3623047
1056,2.0,1.0791016000000002,-0.9404296999999998
1057,2.0,1.6757811999999999,-0.75097656
1058,1.2607422,1.9169922,-0.42871094
1059,0.62402344,1.1591797,-0.17089844
1060,0.26757812,0.70410156,0.14550781
1061,0.22851562,0.41796875,0.34570312
1062,-0.12792969,0.4033203,0.421875
1063,-0.36035156,0.30371094,0.33496094
1064,-0.2705078,0.5058594,0.16015625
1065,0.49609375,1.03125,-0.35058594
1066,1.9042968999999996,1.671875,-0.8251953000000002
1067,2.0,1.4287108999999998,-0.56640625
1068,1.4462891000000002,0.59375,-0.23242188
1069,1.4199218999999998,0.0546875,-0.12011719
1070,1.1601562,-0.25976562,0.07714844
1071,0.6621094,-0.5908203000000001,0.16699219
1072,0.15234375,-0.6015625,0.032226562
1073,0.41210938,-0.3076172,-0.22949219
1074,0.94921875,0.026367188,-0.41796875
1075,2.0,0.97753906,-1.0703125
1076,2.0,1.1982422,-0.9091796999999998
1077,1.6123047,1.8447266,-0.6298828000000001
1078,0.64453125,1.0263672,-0.32617188
1079,0.38183594,0.5761719,-0.05078125
1080,0.09667969,0.43945312,0.06640625
1081,-0.3232422,0.28808594,0.12109375
1082,-0.13769531,0.35253906,0.3408203
1083,0.23144531,0.5283203000000001,0.3154297
1084,0.6699219,0.9453125,-0.47167970000000004
1085,1.6660156000000004,1.5195312,-0.9736328000000002
1086,2.0,1.2001953,-0.58984375
1087,1.4326172,0.484375,-0.33789062
1088,1.2880858999999998,0.25683594,-0.123046875
1089,0.7558594,-0.14746094,-0.009765625
1090,0.45019529999999996,-0.5839844,0.10449219
1091,0.2685547,-0.65527344,0.01953125
1092,0.3203125,-0.5654296999999999,-0.16796875
1093,1.3691406000000002,-0.09472656,-0.6533203000000001
1094,2.0,1.1806641000000002,-1.2998047
1095,2.0,1.6337891000000002,-0.8017578000000001
1096,-0.25097656,0.44433594,0.38378906
1097,-0.32128906,0.50390625,-0.0078125
1098,-0.31445312,0.9003905999999999,0.328125
1099,2.0,2.0,-0.50390625
1100,2.0,1.640625,-0.45117188
1101,2.0,1.2050781000000002,-0.23242188
1102,1.2509766000000002,0.16503906,-0.041992188
1103,1.2705078,0.14550781,0.09765625
1104,0.91308594,-0.34375,0.26171875
1105,0.43945312,-0.62890625,0.21386719
1106,0.18847656,-0.5761719,-0.07421875
1107,0.53515625,-0.33984375,-0.13183594
1108,1.3701172,0.111328125,-0.5605469
1109,2.0,1.3554688,-1.1083983999999998
1110,1.8857422,1.9082031000000004,-0.6542969
1111,1.1621093999999998,1.8017578,-0.28125
1112,0.5078125,0.85546875,-0.07519531
1113,0.15332031,0.5654296999999999,0.34277344
1114,-0.17285156,0.40039062,0.34277344
1115,-0.3935547,0.40527344,0.39257812
1116,-0.32714844,0.5761719,0.25683594
1117,0.40722656,1.1611328,-0.099609375
1118,1.7207031000000004,1.6933593999999996,-0.9765625
1119,2.0,1.6757811999999999,-0.49023438
1120,2.0,0.7558594,-0.29882812
1121,1.3652343999999998,-0.02734375,0.0859375
1122,1.1259766000000002,-0.016601562,0.07714844
1123,0.56933594,-0.5078125,0.18847656
1124,0.3076172,-0.6015625,0.13183594
1125,0.2265625,-0.45996094,-0.04296875
1126,0.83691406,-0.18652344,-0.24121094
1127,2.0,0.33398438,-0.99316406
1128,2.0,1.3427733999999998,-1.0722656000000002
1129,2.0,1.7519531000000004,-0.77441406
1130,0.9736328000000002,1.6943359,-0.36816406
1131,0.16992188,0.8886719000000001,-0.049804688
1132,-0.048828125,0.63378906,0.38085938
1133,-0.42871094,0.515625,0.3701172
1134,-0.5839844,0.6152344,0.3388672
1135,-0.29101562,0.82421875,0.2890625
1136,0.34472656,1.6191406000000002,-0.53125
1137,2.0,2.0,-0.7685546999999999
1138,2.0,1.5615233999999998,-1.1796875
1139,1.9208984,0.54785156,-0.38671875
1140,1.3955078,-0.29589844,0.11816406
1141,1.1425781000000002,-0.43457029999999996,0.12695312
1142,0.7138671999999999,-0.6933594,0.19921875
1143,0.296875,-0.5761719,0.06347656
1144,0.48046875,-0.3720703,-0.19726562
1145,1.0292969,0.09667969,-0.51660156
1146,2.0,1.34375,-1.3476562
1147,2.0,2.0,-1.0615233999999998
1148,1.2685547,2.0,-0.37890625
1149,0.41210938,1.4306641000000002,-0.23144531
1150,-0.14941406,0.7080078000000001,0.12207031
1151,-0.34277344,0.46289062,0.3310547
1152,-0.5214844,0.4091797,0.42480470000000004
1153,-0.40429688,0.50390625,0.35253906
1154,-0.16992188,0.7783203000000001,0.13378906
1155,0.5957031,-0.49707029999999996,0.29785156
1156,0.40039062,-0.5253906,0.0546875
1157,0.5654296999999999,-0.36523438,-0.21972656
1158,1.0117188,0.09667969,-0.5488281
1159,2.0,1.4541016000000002,-1.3242188
1160,2.0,1.7714843999999996,-1.0498047
1161,1.4042968999999998,2.0,-0.54296875
1162,0.3173828,1.3427733999999998,-0.41699220000000004
1163,-0.06542969,0.7783203000000001,-0.026367188
1164,-0.12011719,0.55078125,0.24707031
1165,-0.42089844,0.45410156,0.30273438
1166,-0.47949220000000004,0.6123046999999999,0.2685547
1167,-0.171875,0.8857421999999998,0.19042969
1168,0.5966796999999999,1.4736328,-0.7998046999999999
1169,2.0,2.0,-1.0869141000000002
1170,2.0,1.6923828,-1.0888672
1171,1.4804688,0.33789062,-0.40820312
1172,1.3242188,0.17578125,-0.3173828
1173,0.9111328000000002,-0.23046875,0.17480469
1174,0.5732421999999999,-0.66308594,0.30664062
1175,0.3544922,-0.6621094,0.07910156
1176,0.47851562,-0.5136719,-0.111328125
1177,1.5283203,0.111328125,-0.75097656
1178,2.0,1.75,-1.5488281000000002
1179,2.0,2.0,-1.0078125
1180,0.9902344000000001,2.0,-0.49414062
1181,0.24902344,1.1308593999999998,-0.40429688
1182,-0.16308594,0.6796875,0.20800781
1183,-0.24902344,0.6621094,0.65722656
1184,-0.2607422,0.8144531,0.6621094
1185,-0.5390625,0.8701171999999998,0.3876953
1186,-0.3095703,1.203125,-0.0009765625
1187,1.5253906000000002,2.0,-0.7783203000000001
1188,2.0,2.0,-0.453125
1189,1.9667968999999996,1.3505858999999998,-0.2265625
1190,1.0400391,0.21777344,0.13085938
1191,0.9472655999999999,0.36328125,-0.11816406
1192,0.8046875,-0.14257812,0.17773438
1193,0.6298828000000001,-0.5908203000000001,0.27539062
1194,0.6826171999999999,-0.5292969,-0.044921875
1195,0.85546875,-0.22265625,-0.30566406
1196,1.2773438,0.29003906,-0.44726562
1197,2.0,1.625,-0.6201171999999999
1198,2.0,2.0,-0.6982421999999999
1199,0.9589844000000001,2.0,-0.3203125
1200,0.5439453000000001,1.4560547,-0.17578125
1201,0.13769531,0.8378905999999999,0.3701172
1202,-0.17089844,0.5185547,0.48925779999999996
1203,-0.3779297,0.5419921999999999,0.38085938
1204,-0.56347656,0.59277344,0.36035156
1205,-0.2607422,0.96191406,0.3173828
1206,1.5292968999999998,1.8876953,-0.62597656
1207,2.0,1.7460938000000001,-0.5605469
1208,2.0,1.1152343999999998,-0.46386720000000004
1209,1.2734375,0.16015625,-0.15820312
1210,1.4238281000000002,0.10546875,-0.072265625
1211,0.828125,-0.3642578,0.055664062
1212,0.3623047,-0.66015625,0.15136719
1213,0.16308594,-0.6230469,0.0126953125
1214,0.45507812,-0.44140625,-0.23535156
1215,1.7822266,0.12207031,-0.7246094
1216,2.0,1.5751953,-1.0449219
1217,1.9960938000000001,2.0,-0.67871094
1218,0.75097656,1.8134766,-0.35839844
1219,0.32714844,1.0605468999999998,-0.06542969
1220,0.13671875,0.64160156,0.3779297
1221,-0.19238281,0.49511720000000004,0.49414062
1222,-0.6923828000000001,0.45996094,0.40625
1223,-0.54003906,0.62109375,0.28027344
1224,-0.14648438,1.2070312,-0.15136719
1225,2.0,2.0,-0.80859375
1226,2.0,2.0,-0.671875
1227,1.2402343999999998,0.80371094,-0.17089844
1228,1.1914062,0.13183594,-0.09375
1229,1.0019531,-0.2841797,-0.037109375
1230,0.8544921999999998,-0.6611328000000001,0.11230469
1231,0.48046875,-0.6699219,-0.009765625
1232,0.52441406,-0.48046875,-0.29296875
1233,0.83691406,-0.025390625,-0.47753906
1234,2.0,0.88183594,-1.1083983999999998
1235,2.0,2.0,-0.94628906
1236,1.4091797,2.0,-0.5654296999999999
1237,0.5136719,1.6875,-0.3173828
1238,0.0126953125,0.6621094,0.30273438
1239,-0.29882812,0.54296875,0.28710938
1240,-0.5410156,0.46386720000000004,0.26171875
1241,-0.3095703,0.6591796999999999,0.14160156
1242,0.45507812,1.3642578,-0.35058594
1243,1.9404297,2.0,-0.9560546999999998
1244,2.0,1.8408203,-0.5410156
1245,1.4580078,0.5625,-0.24121094
1246,1.3974608999999998,0.040039062,-0.15039062
1247,1.0429688,-0.296875,-0.0078125
1248,0.6123046999999999,-0.6767578000000001,0.19042969
1249,0.19921875,-0.62597656,0.018554688
1250,0.1875,-0.4765625,-0.14648438
1251,0.97558594,-0.0087890625,-0.30566406
1252,2.0,1.0058594,-1.0253906
1253,2.0,1.9755859,-0.95996094
1254,1.1943358999999998,2.0,-0.4033203
1255,0.5410156,1.2480468999999998,-0.3203125
1256,0.15722656,0.69628906,-0.033203125
1257,-0.07519531,0.49902344,0.2529297
1258,-0.31835938,0.47460938,0.28320312
1259,-0.5234375,0.48632812,0.296875
1260,-0.29882812,0.8779296999999998,0.36035156
1261,0.89453125,1.7324218999999996,-0.7841796999999999
1262,2.0,2.0,-0.7216796999999999
1263,2.0,1.3662108999999998,-0.58496094
1264,1.2861328,0.3544922,-0.17382812
1265,1.3085938,0.2548828,-0.15625
1266,0.73339844,-0.32421875,0.00390625
1267,0.5214844,-0.7597656,0.21972656
1268,0.20019531,-0.7128906,0.15234375
1269,0.38964844,-0.48925779999999996,-0.080078125
1270,1.3554688,0.06347656,-0.45507812
1271,2.0,1.2441406000000002,-1.0927733999999998
1272,1.3828125,2.0,-0.62109375
1273,0.2548828,1.2919922,-0.375
1274,-0.048828125,0.8046875,-0.024414062
1275,-0.25390625,0.6298828000000001,0.265625
1276,-0.5214844,0.5517578000000001,0.30859375
1277,-0.5673828000000001,0.59765625,0.19824219
1278,-0.3046875,0.8105469,0.14550781
1279,0.8408203000000002,1.5107422,-0.7519531
1280,2.0,2.0,-0.8623046999999998
1281,2.0,1.5458983999999998,-0.93847656
1282,1.6191406000000002,0.3046875,-0.23925781
1283,1.2519531000000002,0.111328125,-0.087890625
1284,0.79296875,-0.16699219,0.0087890625
1285,0.34960938,-0.64746094,0.041015625
1286,0.059570312,-0.8300780999999999,-0.009765625
1287,0.45117188,-0.65722656,-0.10449219
1288,1.21875,-0.1484375,-0.3720703
1289,2.0,1.1650391000000002,-1.0244141
1290,2.0,2.0,-0.6171875
1291,1.3037108999999998,2.0,-0.3720703
1292,0.47949220000000004,1.2451172,-0.23242188
1293,0.1171875,0.6503906,0.072265625
1294,-0.009765625,0.45703125,0.24902344
1295,-0.14941406,0.37695312,0.21191406
1296,-0.43359375,0.4375,0.27148438
1297,-0.24121094,0.70996094,0.3642578
1298,0.7705078000000001,1.3154297,-0.44824220000000004
1299,2.0,1.7011718999999996,-0.3955078
1300,2.0,1.4199218999999998,-0.41796875
1301,1.1708983999999998,0.26464844,-0.047851562
1302,0.7675781,-0.16796875,-0.03125
1303,0.50390625,-0.47851562,0.057617188
1304,0.2841797,-0.453125,-0.029296875
1305,0.5439453000000001,-0.29101562,-0.20410156
1306,1.1845703,0.13183594,-0.3701172
1307,2.0,1.4238281000000002,-1.0703125
1308,2.0,2.0,-0.71972656
1309,0.86621094,1.9658203,-0.46484375
1310,0.41503906,1.0595703,-0.23046875
1311,0.111328125,0.59375,0.14941406
1312,-0.09667969,0.41992188,0.11035156
1313,-0.32128906,0.4013672,0.16210938
1314,-0.36621094,0.38085938,0.30273438
1315,0.109375,0.7607421999999999,0.2529297
1316,1.2792968999999998,1.453125,-0.75
1317,2.0,1.8896484,-0.7441406
1318,1.8359375,1.1582031000000002,-0.44726562
1319,0.94433594,0.39453125,-0.14257812
1320,1.0166016,0.23828125,-0.09277344
1321,0.68066406,-0.30664062,0.109375
1322,0.33984375,-0.5566406,0.15332031
1323,2.0,1.6337891000000002,-1.3046875
1324,2.0,2.0,-0.87109375
1325,0.91796875,1.7333984,-0.5576171999999999
1326,0.2734375,0.89453125,-0.29101562
1327,0.13476562,0.56933594,0.115234375
1328,-0.14355469,0.43261720000000004,0.3154297
1329,-0.42382812,0.35839844,0.37890625
1330,-0.49023438,0.58203125,0.3095703
1331,-0.32421875,0.9511719000000001,0.119140625
1332,1.9033203,2.0,-0.8125
1333,2.0,2.0,-0.95410156
1334,1.7548828,1.0556641000000002,-0.31835938
1335,1.3671875,0.043945312,0.032226562
1336,1.1015625,-0.09277344,-0.0087890625
1337,0.71972656,-0.5595703000000001,0.14160156
1338,0.4140625,-0.6298828000000001,0.06542969
1339,0.40234375,-0.40527344,-0.125
1340,0.83203125,-0.056640625,-0.35058594
1341,2.0,0.6621094,-0.8730469000000001
1342,-0.16699219,0.16113281,0.38671875
1343,-0.40234375,0.24023438,0.44433594
1344,-0.28222656,0.6972656,0.47558594
1345,0.53808594,1.3232422,-0.29296875
1346,2.0,2.0,-0.13183594
1347,2.0,1.3876953,-0.3203125
1348,1.125,0.3935547,-0.0068359375
1349,0.74902344,0.06640625,-0.09472656
1350,0.7714844,-0.09375,-0.034179688
1351,0.48632812,-0.5185547,0.09765625
1352,0.24707031,-0.5546875,0.016601562
1353,0.203125,-0.52441406,0.053710938
1354,0.5097656,-0.18652344,-0.087890625
1355,2.0,2.0,-1.0605468999999998
1356,2.0,2.0,-0.5703125
1357,0.76171875,2.0,-0.23046875
1358,0.49902344,1.3779297,-0.09667969
1359,0.28027344,0.6826171999999999,0.19628906
1360,-0.00390625,0.30078125,0.3623047
1361,-0.22460938,0.20898438,0.46386720000000004
1362,-0.38867188,0.27246094,0.44335938
1363,-0.28027344,0.8203125,0.5019531
1364,0.7470703000000001,1.5,-0.22070312
1365,2.0,2.0,-0.23925781
1366,2.0,1.4082031000000002,-0.65527344
1367,1.1494141000000002,0.43359375,-0.12597656
1368,1.0722656000000002,0.020507812,0.0390625
1369,0.73828125,-0.19042969,0.056640625
1370,0.41796875,-0.47460938,0.14550781
1371,0.18457031,-0.5234375,0.111328125
1372,0.34570312,-0.28808594,0.06640625
1373,1.0625,0.06738281,-0.36523438
1374,2.0,1.7314453,-0.89453125
1375,2.0,2.0,-0.6298828000000001
1376,0.9902344000000001,2.0,-0.33984375
1377,0.43847656,1.3261718999999998,-0.17089844
1378,0.20898438,0.62109375,0.059570312
1379,0.109375,0.28125,0.25683594
1380,-0.19238281,0.109375,0.24707031
1381,-0.25878906,0.18554688,0.3798828
1382,-0.12597656,0.5048828,0.2919922
1383,1.1181641000000002,1.3251953,-0.20898438
1384,2.0,2.0,-0.3076172
1385,1.8955078,1.6103516000000002,-0.6660156
1386,1.2548828,0.6591796999999999,-0.1328125
1387,0.8808594000000001,0.13378906,-0.01171875
1388,0.6875,-0.21679688,-0.009765625
1389,0.3486328,-0.64160156,0.068359375
1390,0.14941406,-0.640625,0.11230469
1391,0.9296875,-0.037109375,-0.19140625
1392,2.0,2.0,-0.9814453000000002
1393,1.8164061999999999,2.0,-0.44140625
1394,0.6308594,2.0,-0.19238281
1395,0.48242188,1.0732422,-0.24609375
1396,0.3251953,0.40234375,-0.021484375
1397,0.09765625,0.13378906,0.1953125
1398,-0.13769531,0.040039062,0.2265625
1399,-0.32421875,0.20019531,0.17480469
1400,-0.064453125,0.39648438,0.2763672
1401,1.4492188,0.90625,-0.3173828
1402,1.6337891000000002,1.6933593999999996,-0.43652344
1403,1.9707031000000004,1.296875,-0.703125
1404,1.0478516,0.6015625,-0.0859375
1405,0.9589844000000001,0.14746094,0.041992188
1406,0.6591796999999999,-0.20703125,0.12597656
1407,0.25195312,-0.51953125,0.21875
1408,0.03125,-0.51660156,0.119140625
1409,0.5292969,-0.32617188,-0.111328125
1410,1.4414062,0.083984375,-0.56152344
1411,2.0,1.4404297,-1.2021483999999998
1412,1.8515625,2.0,-0.65234375
1413,0.97265625,1.8427734,-0.30371094
1414,0.43066406,0.98339844,-0.31640625
1415,0.17773438,0.48144529999999996,-0.022460938
1416,-0.057617188,0.14941406,0.14453125
1417,-0.25,0.087890625,0.27246094
1418,-0.11621094,0.3984375,0.2939453
1419,0.3388672,0.95996094,-0.12988281
1420,1.6025391000000002,1.3583983999999998,-0.6669921999999999
1421,1.9501953,1.2236328,-0.48632812
1422,1.734375,0.8955078000000002,-0.52734375
1423,1.1230468999999998,0.2763672,0.028320312
1424,0.9765625,-0.1328125,0.18359375
1425,0.7363281,-0.41210938,0.18066406
1426,0.33496094,-0.6894531,0.21582031
1427,0.3388672,-0.5917969,-0.08496094
1428,0.9580078000000002,-0.13769531,-0.36914062
1429,2.0,1.0761718999999998,-1.2597656000000002
1430,1.8867188000000001,2.0,-0.8876953000000002
1431,1.0175781,2.0,-0.5136719
1432,0.515625,1.2802733999999998,-0.2939453
1433,0.28125,0.6855469,-0.017578125
1434,0.10058594,0.359375,0.18164062
1435,-0.13964844,-0.0009765625,0.0859375
1436,-0.10546875,-0.0009765625,0.17871094
1437,0.34570312,0.052734375,0.16894531
1438,2.0,0.80371094,-0.5703125
1439,1.6113281000000002,1.1132812,-0.9296875
1440,1.515625,1.0390625,-0.7626953000000001
1441,1.1894531000000002,0.60253906,-0.34179688
1442,0.69433594,0.13671875,0.034179688
1443,0.91796875,-0.13476562,-0.13085938
1444,0.44042970000000004,-0.33496094,0.20898438
1445,0.045898438,-0.4609375,0.2685547
1446,0.22851562,-0.36621094,-0.0048828125
1447,0.79296875,-0.1328125,-0.3564453
1448,2.0,1.15625,-1.2792968999999998
1449,1.9931641,1.6777343999999996,-1.0361328
1450,0.9003905999999999,0.46972656,-0.515625
1451,0.6123046999999999,0.44726562,0.072265625
1452,0.087890625,0.24316406,0.23828125
1453,-0.2529297,0.3046875,0.31933594
1454,-0.42675779999999996,0.38378906,0.24707031
1455,0.9658203000000002,0.0126953125,0.015625
1456,0.50390625,-0.24707031,0.24707031
1457,0.21484375,-0.44628906,0.30273438
1458,0.07519531,-0.5029297,0.08496094
1459,0.51464844,-0.34570312,-0.08203125
1460,2.0,0.10644531,-0.7861328000000001
1461,2.0,1.3564453,-1.2695312
1462,1.6494141,1.953125,-0.54589844
1463,0.88964844,1.4130858999999998,-0.3515625
1464,0.5234375,0.7246094,-0.20996094
1465,0.29492188,0.38378906,0.11425781
1466,-0.14355469,0.22949219,0.15332031
1467,-0.3046875,0.24902344,0.26464844
1468,-0.17285156,0.46289062,0.3359375
1469,0.2998047,0.68652344,-0.076171875
1470,2.0,1.1191406000000002,-0.859375
1471,2.0,1.4990233999999998,-0.6035156
1472,1.6943359,0.78515625,-0.41503906
1473,0.90527344,-0.0546875,-0.02734375
1474,0.9658203000000002,-0.080078125,0.15136719
1475,0.515625,-0.45507812,0.21582031
1476,0.1640625,-0.5839844,0.1953125
1477,0.33789062,-0.49902344,-0.046875
1478,0.8857421999999998,-0.060546875,-0.24707031
1479,2.0,0.5957031,-0.9169921999999998
1480,2.0,1.8798828,-1.1152343999999998
1481,1.3466797,2.0,-0.53027344
1482,0.50878906,1.4814453,-0.32226562
1483,0.20605469,0.79589844,-0.10644531
1484,0.20507812,0.36816406,0.23046875
1485,-0.12011719,0.24511719,0.27246094
1486,-0.23242188,0.24707031,0.25585938
1487,-0.25,0.5234375,0.27539062
1488,2.0,1.6591797,-0.52734375
1489,2.0,1.6308593999999998,-0.7080078000000001
1490,1.3466797,0.5830078000000001,-0.30664062
1491,1.078125,-0.0087890625,0.234375
1492,0.79785156,-0.23242188,0.17773438
1493,0.3857422,-0.43261720000000004,0.15234375
1494,0.059570312,-0.60839844,0.13183594
1495,0.49316406,-0.38964844,-0.107421875
1496,1.3779297,0.10449219,-0.5
1497,2.0,1.4716797,-1.2138672
1498,1.9863281000000004,2.0,-0.71875
1499,0.63964844,1.9912109,-0.47558594
1500,0.34570312,1.2041016000000002,-0.14355469
1501,0.3955078,0.6621094,0.19042969
1502,-0.15234375,-0.0126953125,0.06542969
1503,-0.25878906,0.107421875,0.22753906
1504,0.13964844,-0.013671875,0.46386720000000004
1505,2.0,1.3515625,-0.6220703000000001
1506,1.4970703,1.1005858999999998,-0.86328125
1507,1.4423828,0.9326171999999998,-0.6796875
1508,0.9824219000000001,0.48828125,-0.22753906
1509,0.6611328000000001,-0.001953125,0.0234375
1510,0.5800781,-0.24414062,0.22753906
1511,0.36523438,-0.47851562,0.28808594
1512,0.17773438,-0.5878906,0.076171875
1513,0.8544921999999998,-0.3955078,-0.26464844
1514,1.7998047,0.0146484375,-1.0214844
1515,2.0,1.6650391,-1.5878906000000002
1516,1.5927733999999998,2.0,-1.0126953
1517,0.049804688,0.09863281,0.23828125
1518,0.92871094,0.20898438,-0.28320312
1519,0.67285156,-0.016601562,-0.029296875
1520,0.32226562,-0.34765625,0.25976562
1521,0.09082031,-0.48535156,0.24414062
1522,0.28027344,-0.46582029999999996,-0.00390625
1523,0.9394530999999999,-0.13378906,-0.47460938
1524,2.0,0.7314453000000001,-1.3847656000000002
1525,2.0,1.421875,-1.0947266000000002
1526,1.21875,1.5556641000000002,-0.6904296999999999
1527,0.5185547,0.8984375,-0.48046875
1528,0.30078125,0.46582029999999996,-0.13183594
1529,0.16015625,0.28515625,0.16796875
1530,-0.13378906,0.13183594,0.19628906
1531,-0.29003906,0.31347656,0.1796875
1532,-0.13574219,0.49804688,0.09277344
1533,1.8310547,0.66796875,-0.7207031
1534,2.0,1.5322266000000002,-0.6845703000000001
1535,2.0,1.1416016000000002,-0.8515625
1536,0.90527344,0.49511720000000004,-0.19140625
1537,0.94921875,0.2529297,-0.08496094
1538,0.62402344,-0.038085938,0.018554688
1539,0.33398438,-0.453125,0.2919922
1540,0.103515625,-0.6503906,0.20117188
1541,0.28808594,-0.6533203000000001,-0.022460938
1542,1.0009766,-0.28515625,-0.46289062
1543,2.0,0.9941405999999999,-1.3427733999999998
1544,2.0,2.0,-1.0712891000000002
1545,0.96875,2.0,-0.640625
1546,0.35253906,1.1787108999999998,-0.32421875
1547,0.24121094,0.6064453000000001,0.08496094
1548,0.009765625,0.38378906,0.29101562
1549,-0.41113279999999996,0.35253906,0.46191406
1550,-0.91796875,0.35546875,0.3466797
1551,-0.49121094,0.79589844,0.23144531
1552,2.0,1.8789061999999999,-0.47460938
1553,2.0,2.0,-1.0126953
1554,1.8710938000000001,1.984375,-0.9394530999999999
1555,1.2158203,0.6435546999999999,0.01171875
1556,0.9511719000000001,-0.05078125,0.2626953
1557,0.6933594,-0.111328125,0.03125
1558,0.5,-0.40429688,0.18164062
1559,0.41699220000000004,-0.3720703,0.10058594
1560,0.58691406,-0.18554688,-0.12695312
1561,0.8964844000000001,0.09082031,-0.4765625
1562,2.0,1.0732422,-1.2148438
1563,2.0,2.0,-0.8378905999999999
1564,1.2285156000000002,2.0,-0.5185547
1565,0.41894529999999996,1.2275391000000002,-0.22558594
1566,0.15429688,0.6982421999999999,0.08886719
1567,0.0087890625,0.39746094,0.20117188
1568,-0.24414062,0.18945312,0.23242188
1569,-0.3701172,0.2734375,0.23535156
1570,-0.23242188,0.50878906,0.091796875
1571,1.4355468999999998,1.0449219,-0.71777344
1572,2.0,1.6552734,-0.328125
1573,1.6953125,1.3144531000000002,-0.9326171999999998
1574,1.484375,0.86621094,-0.41113279999999996
1575,0.8017578000000001,0.24121094,-0.049804688
1576,0.89160156,0.15332031,-0.09765625
1577,0.5361328000000001,-0.24316406,0.14746094
1578,0.28125,-0.46484375,0.23144531
1579,0.28027344,-0.40429688,0.07128906
1580,0.6660156,-0.16796875,-0.16601562
1581,2.0,0.7373046999999999,-1.0390625
1582,2.0,1.8632811999999999,-0.96972656
1583,1.1503906000000002,1.9814453,-0.6123046999999999
1584,0.5029297,1.359375,-0.40234375
1585,0.328125,0.609375,-0.23925781
1586,0.24316406,0.35253906,0.0048828125
1587,0.0009765625,0.21191406,0.14648438
1588,-0.22167969,0.1796875,0.24316406
1589,-0.09667969,0.44433594,0.25683594
1590,0.6201171999999999,0.70996094,-0.28125
1591,2.0,1.2685547,-0.5
1592,2.0,1.2333983999999998,-0.7705078000000001
1593,1.4580078,0.65625,-0.3125
1594,0.6845703000000001,-0.1171875,-0.12207031
1595,0.85839844,-0.18847656,0.015625
1596,0.44042970000000004,-0.39257812,0.17675781
1597,0.18554688,-0.3955078,0.109375
1598,0.53027344,-0.25390625,-0.11816406
1599,1.1279297,0.028320312,-0.48046875
1600,2.0,1.0869141000000002,-1.2636718999999998
1601,2.0,1.9794922,-0.99316406
1602,1.1035156000000002,1.8164061999999999,-0.6484375
1603,0.48046875,1.1152343999999998,-0.29492188
1604,0.2919922,0.5673828000000001,0.15625
1605,0.017578125,0.20898438,0.29589844
1606,-0.31445312,0.034179688,0.19140625
1607,-0.16503906,0.26757812,0.17089844
1608,0.20800781,0.5488281,0.036132812
1609,1.6376953,0.8105469,-0.5625
1610,2.0,1.2470703,-0.6689453000000001
1611,1.7558593999999996,0.9091796999999998,-0.609375
1612,0.86621094,0.33789062,-0.14257812
1613,0.90527344,0.19238281,-0.17480469
1614,0.50878906,-0.13378906,0.13671875
1615,0.22558594,-0.4765625,0.25390625
1616,0.11230469,-0.5546875,0.15136719
1617,0.53808594,-0.44433594,0.0546875
1618,1.6572266,-0.11816406,-0.81640625
1619,2.0,1.3457031000000002,-1.3417968999999998
1620,2.0,1.8769531000000004,-0.859375
1621,1.0732422,1.6220703,-0.49902344
1622,0.32617188,1.0039062,-0.20703125
1623,0.022460938,0.5,0.080078125
1624,-0.12695312,0.41015625,0.4091797
1625,-0.37597656,0.3310547,0.3330078
1626,-0.35253906,0.5019531,0.31640625
1627,0.1875,0.609375,0.43945312
1628,2.0,1.0351562,-0.47558594
1629,2.0,1.6816406000000004,-0.7451171999999999
1630,1.7529297,1.0839843999999998,-0.66308594
1631,0.7910156,0.18164062,-0.08300781
1632,0.92578125,0.068359375,-0.044921875
1633,1.9199218999999996,0.12695312,-0.7675781
1634,2.0,1.7041016,-1.0234375
1635,2.0,2.0,-0.61816406
1636,0.9667969000000001,1.8564453,-0.2763672
1637,0.10253906,1.1474608999999998,0.10644531
1638,-0.21777344,0.5917969,0.35839844
1639,-0.52734375,0.328125,0.36035156
1640,-0.43847656,0.46777344,0.32910156
1641,0.16210938,0.8408203000000002,-0.17871094
1642,0.7207031,1.2939453,-0.5175781
1643,2.0,1.1806641000000002,-0.7607421999999999
1644,2.0,1.5429688,-0.29003906
1645,1.8720703,0.89746094,-0.33789062
1646,0.97265625,0.11230469,0.140625
1647,0.9472655999999999,0.061523438,-0.029296875
1648,0.49609375,-0.3623047,-0.07128906
1649,0.2548828,-0.5546875,0.040039062
1650,0.32421875,-0.50683594,-0.087890625
1651,0.73046875,-0.31835938,-0.32617188
1652,1.71875,0.1484375,-0.72753906
1653,2.0,1.8203125,-1.0478516
1654,1.8837891,2.0,-0.41503906
1655,1.0292969,1.5605468999999998,-0.19042969
1656,0.49707029999999996,0.91015625,-0.1484375
1657,0.049804688,0.44824220000000004,0.036132812
1658,-0.20800781,0.29296875,0.24609375
1659,-0.45410156,0.26367188,0.3720703
1660,-0.27441406,0.38964844,0.1015625
1661,-0.14550781,0.3876953,0.036132812
1662,2.0,1.3837891000000002,-0.57910156
1663,1.5605468999999998,0.9716796999999998,-0.8564453000000002
1664,1.9785156000000004,1.0410156,-0.47070312
1665,1.1347656000000002,0.45703125,0.00390625
1666,0.7109375,-0.056640625,0.119140625
1667,0.59472656,-0.08105469,0.083984375
1668,0.38085938,-0.30371094,0.1796875
1669,2.0,1.8837891,-0.890625
1670,0.89941406,1.5292968999999998,-0.5107422
1671,0.36035156,0.8652344000000001,-0.21191406
1672,0.115234375,0.53515625,0.068359375
1673,-0.27734375,0.2705078,0.22070312
1674,-0.48144529999999996,0.29003906,0.35839844
1675,-0.34960938,0.56640625,0.2109375
1676,0.2705078,0.67285156,0.08691406
1677,2.0,1.1728516000000002,-0.47265625
1678,2.0,1.6347656000000002,-0.8564453000000002
1679,1.7880859,1.0986328,-0.74316406
1680,1.109375,0.41992188,-0.09375
1681,0.9248046999999998,0.06542969,-0.0048828125
1682,0.7421875,-0.22753906,0.0703125
1683,0.3720703,-0.5517578000000001,0.14941406
1684,0.328125,-0.5908203000000001,0.041992188
1685,0.6044921999999999,-0.3544922,-0.20898438
1686,1.4941406000000002,0.06347656,-0.8574219000000001
1687,2.0,1.5234375,-1.3681641000000002
1688,1.8857422,2.0,-0.8076171999999999
1689,0.9140625,1.8183593999999996,-0.5185547
1690,0.18359375,1.0644531000000002,-0.29003906
1691,0.056640625,0.63378906,-0.19726562
1692,-0.06933594,0.28808594,-0.083984375
1693,-0.009765625,0.103515625,0.23535156
1694,0.091796875,0.23632812,0.076171875
1695,0.47558594,0.2734375,-0.051757812
1696,2.0,1.0390625,-0.11230469
1697,1.6474609,1.1542968999999998,-1.0351562
1698,0.9091796999999998,0.51660156,-0.24511719
1699,0.95214844,0.07128906,-0.08691406
1700,0.6591796999999999,-0.12988281,0.13769531
1701,0.34277344,-0.4375,0.15625
1702,0.18847656,-0.6035156,0.03515625
1703,0.39160156,-0.30078125,-0.375
1704,1.8505859,0.18554688,-1.1972656000000002
1705,2.0,1.6748047,-1.5351562
1706,1.3828125,1.9912109,-0.9248046999999998
1707,0.7519531,1.3251953,-0.52734375
1708,0.55078125,0.828125,-0.107421875
1709,0.40527344,0.4013672,0.0234375
1710,0.11230469,0.14648438,0.17480469
1711,-0.16015625,0.091796875,0.26757812
1712,-0.19433594,0.032226562,0.19824219
1713,0.9580078000000002,0.3076172,-0.12890625
1714,1.7431641,1.1318358999999998,-1.0458984
1715,1.8076172,1.3359375,-0.9511719000000001
1716,1.4257812,0.86035156,-0.75097656
1717,0.7294921999999999,0.35839844,-0.123046875
1718,0.8886719000000001,0.119140625,-0.057617188
1719,0.57421875,-0.27734375,0.15917969
1720,0.22851562,-0.52734375,0.19824219
1721,0.23730469,-0.44921875,-0.009765625
1722,0.7363281,-0.3466797,-0.28320312
1723,2.0,0.17089844,-1.0625
1724,2.0,1.2109375,-1.1044922
1725,2.0,1.5195312,-0.93066406
1726,0.9560546999999998,1.2822266000000002,-0.56933594
1727,0.16308594,0.7363281,-0.265625
1728,0.037109375,0.44628906,-0.024414062
1729,-0.05859375,0.36621094,0.08886719
1730,-0.2998047,0.42871094,0.15625
1731,-0.21289062,0.64160156,0.08886719
1732,0.20605469,1.0898438,-0.17382812
1733,1.4580078,1.6259766000000002,-0.78125
1734,2.0,1.4648438,-0.77441406
1735,2.0,0.87402344,-0.5107422
1736,1.3818358999999998,0.2734375,0.0146484375
1737,1.0761718999999998,-0.037109375,0.08300781
1738,0.7705078000000001,-0.43457029999999996,0.046875
1739,0.34472656,-0.6777344,0.02734375
1740,0.26757812,-0.69628906,-0.13671875
1741,0.68359375,-0.3779297,-0.2548828
1742,2.0,0.37402344,-0.9423828000000002
1743,0.13964844,0.6767578000000001,0.3466797
1744,-0.14160156,0.35253906,0.26367188
1745,-0.21679688,0.3515625,0.26464844
1746,-0.021484375,0.48242188,0.09375
1747,0.6435546999999999,0.984375,-0.5800781
1748,1.7763672,1.2265625,-0.74902344
1749,2.0,1.0878906000000002,-0.5527344
1750,1.6064453,0.7832031,-0.33789062
1751,1.2861328,0.2685547,0.15625
1752,1.2597656000000002,-0.15722656,0.12988281
1753,0.7626953000000001,-0.24902344,0.103515625
1754,0.33691406,-0.34765625,-0.0068359375
1755,0.35058594,-0.16113281,-0.08886719
1756,0.6298828000000001,0.029296875,-0.203125
1757,1.9345703,0.5234375,-0.93359375
1758,2.0,1.8642578,-0.96777344
1759,1.4960938,2.0,-0.7324219
1760,0.3671875,1.4970703,-0.24414062
1761,0.17382812,0.8808594000000001,0.12207031
1762,0.27246094,0.5546875,0.28515625
1763,-0.028320312,0.22851562,0.41796875
1764,-0.29882812,0.12988281,0.21289062
1765,-0.18945312,0.31933594,0.06738281
1766,-0.0048828125,0.7138671999999999,-0.234375
1767,1.8339843999999996,1.7519531000000004,-0.62402344
1768,1.5898438,1.5429688,-0.59277344
1769,1.2587891000000002,1.3427733999999998,-0.54589844
1770,0.95996094,0.76953125,-0.20605469
1771,0.87597656,0.53222656,-0.057617188
1772,0.90722656,0.453125,-0.078125
1773,0.57714844,0.17285156,-0.0390625
1774,0.42675779999999996,-0.11035156,0.049804688
1775,0.47949220000000004,-0.0390625,0.0234375
1776,0.61621094,-0.01171875,-0.37695312
1777,1.9550781000000004,1.2207031000000002,-0.625
1778,1.5917968999999998,1.7861328,-0.75683594
1779,1.0322266,1.765625,-0.71875
1780,0.7158203000000001,1.1982422,-0.20703125
1781,0.5175781,0.7246094,0.05078125
1782,0.2607422,0.5205078,0.18847656
1783,0.11328125,0.37109375,0.18554688
1784,0.0087890625,0.2998047,0.15917969
1785,0.022460938,0.31445312,0.13964844
1786,0.115234375,0.5126953,0.07421875
1787,0.34570312,0.8955078000000002,-0.14648438
1788,0.7001953000000001,1.7216797,-0.2578125
1789,0.8574219000000001,1.6064453,-0.15039062
1790,0.9589844000000001,1.4414062,-0.15039062
1791,0.7792969,1.1738281000000002,0.02734375
1792,0.48144529999999996,0.94921875,-0.05859375
