# Sensor position: Chest
# Sensor side: Right
# Activity type: Standing
# Activity code: 100
# Subject id: s1655552
timestamp,seq,accel_x,accel_y,accel_z
1603106792867,0,0.18432617,0.93573,0.09832764
1603106792945,1,0.13500977,0.96307373,0.0993042
1603106793024,2,0.28198242,0.9098511,-0.04888916
1603106793103,3,0.19165039,1.0192261,0.08734131
1603106793182,4,0.27270508,0.9125366,0.10247803
1603106793260,5,0.13500977,0.8969116,0.07318115
1603106793339,6,0.20410156,1.0111694,0.1305542
1603106793418,7,0.3005371,0.87615967,0.07171631
1603106793497,8,0.22045898,0.8539429,0.1161499
1603106793575,9,0.17407227,0.98846436,0.11248779
1603106793654,10,0.1953125,0.96209717,0.11639404
1603106793733,11,0.19726562,0.9274292,0.117614746
1603106793812,12,0.20239258,0.9586792,0.07684326
1603106793890,13,0.22827148,0.94647217,0.08392334
1603106793969,14,0.26220703,0.9376831,0.062927246
1603106794048,15,0.24560547,0.9303589,0.06976318
1603106794127,16,0.25097656,0.93084717,0.08758545
1603106794205,17,0.18115234,0.95428467,0.11199951
1603106794284,18,0.20947266,0.9057007,0.051208496
1603106794363,19,0.15917969,1.0255737,0.02166748
1603106794442,20,0.2614746,0.8847046,0.0119018555
1603106794520,21,0.1081543,0.97869873,0.028015137
1603106794599,22,0.045654297,0.99505615,-0.030334473
1603106794678,23,0.052001953,0.9953003,-0.0791626
1603106794757,24,0.00390625,1.0162964,-0.047424316
1603106794835,25,0.01977539,0.9660034,0.020690918
1603106794914,26,0.118652344,0.96014404,0.016784668
1603106794993,27,0.13378906,0.95843506,0.05682373
1603106795072,28,0.08544922,0.9718628,0.03778076
1603106795150,29,0.1003418,0.9713745,0.058044434
1603106795229,30,0.13623047,0.9730835,0.06072998
1603106795308,31,0.08886719,0.96087646,0.054138184
1603106795387,32,0.08325195,0.9660034,0.0524292
1603106795465,33,0.09667969,0.9684448,0.03753662
1603106795544,34,0.09814453,0.97283936,0.044128418
1603106795623,35,0.111572266,0.9628296,0.053894043
1603106795702,36,0.1274414,0.95892334,0.043151855
1603106795780,37,0.12768555,0.9567261,0.034362793
1603106795859,38,0.115234375,0.9743042,0.007751465
1603106795938,39,0.11401367,0.96136475,0.051696777
1603106796017,40,0.11669922,0.97576904,0.0211792
1603106796095,41,0.10424805,0.9755249,0.02508545
1603106796174,42,0.0925293,0.9689331,0.018981934
1603106796253,43,0.11230469,0.9706421,0.032165527
1603106796332,44,0.10546875,0.9713745,0.022644043
1603106796410,45,0.09741211,0.961853,0.019226074
1603106796489,46,0.10961914,0.9750366,0.016540527
1603106796568,47,0.104003906,0.9657593,0.023864746
1603106796647,48,0.12207031,0.95770264,0.035583496
1603106796725,49,0.12915039,0.9743042,0.03753662
1603106796804,50,0.12475586,0.9525757,0.034362793
1603106796883,51,0.12915039,0.96551514,0.043640137
1603106796962,52,0.103027344,0.95965576,0.028259277
1603106797040,53,0.06933594,0.9747925,0.062438965
1603106797119,54,0.11987305,0.9660034,0.05609131
1603106797198,55,0.083740234,0.97039795,0.04046631
1603106797277,56,0.060546875,0.9760132,0.040222168
1603106797355,57,0.103759766,0.9796753,0.020202637
1603106797434,58,0.08911133,0.97772217,0.05682373
1603106797513,59,0.099853516,0.9730835,0.053894043
1603106797592,60,0.083984375,0.9640503,0.04437256
1603106797670,61,0.103027344,0.9645386,0.031188965
1603106797749,62,0.10986328,0.96014404,0.022155762
1603106797828,63,0.11450195,0.961853,0.038024902
1603106797907,64,0.11621094,0.95770264,0.03363037
1603106797985,65,0.11303711,0.9647827,0.023376465
1603106798064,66,0.1081543,0.96502686,0.038269043
1603106798143,67,0.11352539,0.9645386,0.030944824
1603106798222,68,0.10644531,0.9750366,0.036071777
1603106798300,69,0.09887695,0.9682007,0.04534912
1603106798379,70,0.09472656,0.9713745,0.04144287
1603106798458,71,0.100097656,0.9743042,0.038513184
1603106798537,72,0.09716797,0.9664917,0.04510498
1603106798615,73,0.104003906,0.97161865,0.0446167
1603106798694,74,0.10253906,0.9694214,0.03704834
1603106798773,75,0.09423828,0.9677124,0.03729248
1603106798852,76,0.09106445,0.96917725,0.031433105
1603106798930,77,0.096191406,0.9701538,0.032409668
1603106799009,78,0.08666992,0.97406006,0.039733887
1603106799088,79,0.09692383,0.9760132,0.023620605
1603106799167,80,0.080566406,0.9694214,0.022888184
1603106799245,81,0.087646484,0.9694214,0.03656006
1603106799324,82,0.08227539,0.9696655,0.026794434
1603106799403,83,0.09399414,0.9713745,0.023864746
1603106799482,84,0.09667969,0.96917725,0.019226074
1603106799560,85,0.09692383,0.9689331,0.008728027
1603106799639,86,0.08886719,0.97283936,0.016784668
1603106799718,87,0.08666992,0.96868896,0.014343262
1603106799797,88,0.088378906,0.9730835,0.00579834
1603106799875,89,0.08666992,0.9684448,0.0138549805
1603106799954,90,0.09277344,0.9694214,0.014587402
1603106800033,91,0.091796875,0.96698,0.015075684
1603106800112,92,0.08544922,0.9677124,0.014343262
1603106800190,93,0.088134766,0.9730835,0.008728027
1603106800269,94,0.095214844,0.9738159,0.010925293
1603106800348,95,0.09106445,0.97576904,0.016540527
1603106800427,96,0.095947266,0.97454834,0.004333496
1603106800505,97,0.09741211,0.97088623,0.010681152
1603106800584,98,0.09692383,0.9689331,0.019958496
1603106800663,99,0.099609375,0.96502686,0.015075684
1603106800742,100,0.10058594,0.97088623,0.011169434
1603106800820,101,0.103759766,0.96990967,0.024597168
1603106800899,102,0.10644531,0.9684448,0.028015137
1603106800978,103,0.1081543,0.97161865,0.017028809
1603106801057,104,0.099609375,0.9689331,0.0211792
1603106801135,105,0.10253906,0.9701538,0.028259277
1603106801214,106,0.111328125,0.9706421,0.022888184
1603106801293,107,0.11230469,0.9713745,0.02923584
1603106801372,108,0.11450195,0.96380615,0.030700684
1603106801450,109,0.12109375,0.9730835,0.027526855
1603106801529,110,0.11206055,0.96673584,0.028503418
1603106801608,111,0.11279297,0.96209717,0.027038574
1603106801687,112,0.11767578,0.96795654,0.0138549805
1603106801765,113,0.12060547,0.9672241,0.014831543
1603106801844,114,0.12158203,0.9677124,0.016784668
1603106801923,115,0.12084961,0.9689331,0.022399902
1603106802002,116,0.12109375,0.96698,0.0099487305
1603106802080,117,0.10595703,0.9633179,0.014831543
1603106802159,118,0.10253906,0.96917725,0.007507324
1603106802238,119,0.10205078,0.9645386,0.007019043
1603106802317,120,0.107421875,0.97210693,0.0028686523
1603106802395,121,0.10498047,0.9713745,0.009216309
1603106802474,122,0.107421875,0.9711304,0.005065918
1603106802553,123,0.107666016,0.9684448,0.0048217773
1603106802632,124,0.107421875,0.9738159,0.008483887
1603106802710,125,0.103515625,0.9711304,0.008728027
1603106802789,126,0.099121094,0.9718628,0.007507324
1603106802868,127,0.1015625,0.9706421,0.009460449
1603106802947,128,0.099121094,0.9682007,0.0053100586
1603106803025,129,0.09643555,0.9660034,0.008239746
1603106803104,130,0.10620117,0.9701538,0.002380371
1603106803183,131,0.1015625,0.97406006,0.010681152
1603106803262,132,0.099609375,0.97576904,0.008728027
1603106803340,133,0.104003906,0.97210693,-0.004699707
1603106803419,134,0.09716797,0.97332764,-0.004211426
1603106803498,135,0.09692383,0.9713745,-0.0032348633
1603106803577,136,0.09643555,0.97088623,-0.0037231445
1603106803655,137,0.09106445,0.97650146,0.0038452148
1603106803734,138,0.099121094,0.97161865,-0.0064086914
1603106803813,139,0.09765625,0.9725952,0.0014038086
1603106803892,140,0.08911133,0.9725952,9.1552734E-4
1603106803970,141,0.092285156,0.97210693,-0.0015258789
1603106804049,142,0.09741211,0.9723511,-0.0056762695
1603106804128,143,0.09790039,0.9660034,6.713867E-4
1603106804207,144,0.10424805,0.97039795,0.005554199
1603106804285,145,0.10180664,0.97454834,4.272461E-4
1603106804364,146,0.111572266,0.9735718,0.0079956055
1603106804443,147,0.106933594,0.97039795,0.0072631836
1603106804522,148,0.103027344,0.9682007,0.001159668
1603106804600,149,0.099609375,0.9696655,-0.0020141602
1603106804679,150,0.107421875,0.9706421,6.713867E-4
1603106804758,151,0.104003906,0.9677124,0.0016479492
1603106804837,152,0.10058594,0.9711304,0.0038452148
1603106804915,153,0.10253906,0.9713745,0.007019043
1603106804994,154,0.099609375,0.9711304,0.0053100586
1603106805073,155,0.10839844,0.9694214,0.0079956055
1603106805152,156,0.09448242,0.9718628,0.012145996
1603106805230,157,0.106933594,0.9723511,0.012878418
1603106805309,158,0.11010742,0.9711304,0.008483887
1603106805388,159,0.0949707,0.9701538,0.0099487305
1603106805467,160,0.10229492,0.9743042,0.003112793
1603106805559,161,0.09887695,0.97161865,0.012390137
1603106805652,162,0.10083008,0.96868896,0.010437012
1603106805745,163,0.10595703,0.97039795,0.0099487305
1603106805837,164,0.10473633,0.965271,0.009216309
1603106805930,165,0.10205078,0.9684448,0.00970459
1603106806023,166,0.10546875,0.9711304,0.006286621
1603106806115,167,0.1003418,0.9694214,0.016784668
1603106806208,168,0.09790039,0.97161865,0.0067749023
1603106806301,169,0.095458984,0.9725952,0.010681152
1603106806393,170,0.08959961,0.97454834,0.016784668
1603106806486,171,0.1003418,0.9738159,0.0014038086
1603106806579,172,0.09863281,0.9657593,0.00970459
1603106806671,173,0.100097656,0.96746826,0.0072631836
1603106806764,174,0.10205078,0.9730835,0.010925293
1603106806857,175,0.099853516,0.9784546,0.007507324
1603106806950,176,0.09790039,0.96990967,0.010681152
1603106807042,177,0.10253906,0.9694214,-0.008605957
1603106807135,178,0.09277344,0.9738159,0.001159668
1603106807228,179,0.078125,0.9796753,0.010192871
1603106807320,180,0.09008789,0.9706421,-0.010803223
1603106807413,181,0.10205078,0.9796753,-0.022277832
1603106807506,182,0.08886719,0.97283936,-0.0134887695
1603106807598,183,0.076416016,0.96868896,0.0048217773
1603106807691,184,0.08496094,0.96795654,0.007019043
1603106807784,185,0.087646484,0.97161865,-0.002746582
1603106807876,186,0.07495117,0.9723511,0.001159668
1603106807969,187,0.08300781,0.96990967,0.0021362305
1603106808062,188,0.07788086,0.97821045,0.001159668
1603106808154,189,0.08520508,0.9760132,0.002380371
1603106808247,190,0.083740234,0.97454834,0.0060424805
1603106808340,191,0.083496094,0.9723511,0.0014038086
1603106808433,192,0.07861328,0.9743042,0.00579834
1603106808511,193,0.08276367,0.97161865,0.013122559
1603106808590,194,0.08105469,0.9713745,0.0028686523
1603106808669,195,0.0793457,0.9738159,0.008728027
1603106808748,196,0.079833984,0.9730835,0.00579834
1603106808826,197,0.08129883,0.9760132,0.0021362305
1603106808905,198,0.080322266,0.9747925,0.004333496
1603106808984,199,0.083740234,0.97650146,0.0014038086
1603106809063,200,0.08300781,0.9750366,0.004333496
1603106809141,201,0.08105469,0.97088623,0.007507324
1603106809220,202,0.083740234,0.97406006,-0.0037231445
1603106809299,203,0.08178711,0.97332764,6.713867E-4
1603106809378,204,0.079589844,0.97576904,-0.0017700195
1603106809456,205,0.08129883,0.9743042,-0.0020141602
1603106809535,206,0.08276367,0.9725952,0.0021362305
1603106809614,207,0.08520508,0.9718628,-0.0020141602
1603106809693,208,0.084228516,0.97210693,0.0016479492
1603106809771,209,0.087890625,0.9713745,0.001159668
1603106809850,210,0.08618164,0.97332764,-0.0029907227
1603106809929,211,0.088378906,0.97332764,-5.493164E-4
1603106810008,212,0.08154297,0.9701538,0.0016479492
1603106810086,213,0.0859375,0.9747925,-0.0012817383
1603106810165,214,0.08544922,0.9696655,0.0045776367
1603106810244,215,0.083496094,0.9711304,0.0045776367
1603106810323,216,0.09033203,0.9755249,0.009216309
1603106810401,217,0.09057617,0.97039795,0.016296387
1603106810480,218,0.09448242,0.97088623,0.014831543
1603106810559,219,0.08154297,0.9713745,0.013122559
1603106810638,220,0.09301758,0.9743042,0.020446777
1603106810716,221,0.08325195,0.9730835,0.024841309
1603106810795,222,0.08544922,0.97161865,0.01727295
1603106810874,223,0.087646484,0.9725952,0.010192871
1603106810953,224,0.0925293,0.9696655,0.018005371
1603106811031,225,0.08862305,0.97161865,0.019714355
1603106811110,226,0.091308594,0.9738159,0.020690918
1603106811189,227,0.08520508,0.97210693,0.010925293
1603106811268,228,0.088134766,0.9730835,0.019714355
1603106811346,229,0.08642578,0.9713745,0.012145996
1603106811425,230,0.08691406,0.97332764,0.016052246
1603106811504,231,0.07910156,0.97698975,0.014099121
1603106811583,232,0.095703125,0.96868896,0.011413574
1603106811661,233,0.08496094,0.9743042,-0.0017700195
1603106811740,234,0.07373047,0.9730835,0.015808105
1603106811819,235,0.0949707,0.97406006,-0.014465332
1603106811898,236,0.08178711,0.9689331,0.010681152
1603106811976,237,0.08862305,0.9660034,0.009460449
1603106812055,238,0.08642578,0.97454834,0.00579834
1603106812134,239,0.10546875,0.97650146,0.020690918
1603106812213,240,0.09399414,0.97039795,0.019958496
1603106812291,241,0.08325195,0.9682007,0.014831543
1603106812370,242,0.080566406,0.97528076,0.008483887
1603106812449,243,0.079833984,0.9762573,0.00970459
1603106812528,244,0.083496094,0.97283936,-5.493164E-4
1603106812606,245,0.06713867,0.9784546,0.0099487305
1603106812685,246,0.08300781,0.9747925,0.0016479492
1603106812764,247,0.08642578,0.9730835,0.005554199
1603106812843,248,0.11425781,0.97332764,-0.002746582
1603106812921,249,0.10498047,0.97161865,0.009216309
1603106813000,250,0.09863281,0.96258545,0.0099487305
1603106813079,251,0.08984375,0.95721436,0.019958496
1603106813158,252,0.07910156,0.97283936,0.03656006
1603106813236,253,0.09399414,0.961853,0.022644043
1603106813315,254,0.08642578,0.9784546,0.014343262
1603106813394,255,0.07470703,0.97528076,0.024841309
1603106813473,256,0.072509766,0.9816284,0.03338623
1603106813551,257,0.0715332,0.9767456,0.034851074
1603106813630,258,0.06982422,0.977478,0.036071777
1603106813709,259,0.06201172,0.97576904,0.04510498
1603106813788,260,0.080566406,0.9640503,0.06390381
1603106813866,261,0.08129883,0.96673584,0.06781006
1603106813945,262,0.075683594,0.9711304,0.054382324
1603106814024,263,0.06738281,0.96746826,0.046569824
1603106814103,264,0.07836914,0.97528076,0.046325684
1603106814181,265,0.07348633,0.9755249,0.0524292
1603106814260,266,0.08154297,0.9723511,0.04071045
1603106814339,267,0.08300781,0.9755249,0.034851074
1603106814418,268,0.068847656,0.9696655,0.02508545
1603106814496,269,0.071777344,0.97283936,0.018005371
1603106814575,270,0.08081055,0.9706421,0.01751709
1603106814654,271,0.091308594,0.96990967,0.016540527
1603106814733,272,0.09667969,0.9664917,-0.004211426
1603106814811,273,0.09277344,0.97283936,0.004333496
1603106814890,274,0.09716797,0.96624756,6.713867E-4
1603106814969,275,0.09716797,0.9682007,0.004333496
1603106815048,276,0.09765625,0.97210693,0.007019043
1603106815126,277,0.09692383,0.9684448,0.015319824
1603106815205,278,0.099609375,0.9723511,0.016052246
1603106815284,279,0.100097656,0.9718628,0.018737793
1603106815363,280,0.103027344,0.97576904,0.02166748
1603106815441,281,0.095703125,0.9711304,0.019226074
1603106815520,282,0.08691406,0.9755249,0.016296387
1603106815599,283,0.07861328,0.9718628,0.022155762
1603106815678,284,0.08178711,0.97161865,0.0211792
1603106815756,285,0.071777344,0.97161865,0.02142334
1603106815835,286,0.07543945,0.9743042,0.015075684
1603106815914,287,0.07324219,0.9762573,0.017028809
1603106815993,288,0.072021484,0.97943115,0.012634277
1603106816071,289,0.061523438,0.9747925,0.016540527
1603106816150,290,0.068115234,0.97650146,-0.0068969727
1603106816229,291,0.06640625,0.97650146,-7.9345703E-4
1603106816308,292,0.053466797,0.9813843,-0.0115356445
1603106816386,293,0.059326172,0.97528076,-0.021057129
1603106816465,294,0.060058594,0.97576904,-0.0178833
1603106816544,295,0.064208984,0.9701538,-0.022521973
1603106816623,296,0.075927734,0.9713745,-0.014953613
1603106816701,297,0.076416016,0.9713745,-0.018127441
1603106816780,298,0.072753906,0.97454834,-0.016906738
1603106816859,299,0.07373047,0.9747925,-0.024230957
1603106816938,300,0.06958008,0.9762573,-0.0178833
1603106817016,301,0.07348633,0.97772217,-0.0178833
1603106817095,302,0.07299805,0.97650146,-0.019348145
1603106817174,303,0.07788086,0.97283936,-0.01739502
1603106817253,304,0.083496094,0.97210693,-0.016906738
1603106817331,305,0.079589844,0.9735718,-0.0134887695
1603106817410,306,0.09838867,0.979187,-0.011047363
1603106817489,307,0.09716797,0.9755249,-0.010559082
1603106817568,308,0.088134766,0.97161865,-0.016906738
1603106817646,309,0.068359375,0.97039795,-0.008850098
1603106817725,310,0.0690918,0.9735718,-0.013000488
1603106817804,311,0.08178711,0.9713745,-0.0049438477
1603106817883,312,0.07763672,0.97772217,-0.011047363
1603106817961,313,0.07885742,0.97332764,-0.009338379
1603106818040,314,0.084228516,0.980896,-0.008850098
1603106818119,315,0.0871582,0.9743042,-0.0044555664
1603106818198,316,0.07788086,0.97332764,-0.009338379
1603106818276,317,0.08227539,0.9747925,-0.012756348
1603106818355,318,0.080322266,0.97406006,-0.007873535
1603106818434,319,0.07421875,0.97650146,-0.0010375977
1603106818513,320,0.07836914,0.97332764,-0.0051879883
1603106818591,321,0.08911133,0.9706421,-0.010314941
1603106818670,322,0.08886719,0.96990967,-0.0044555664
1603106818749,323,0.08105469,0.9735718,-0.0020141602
1603106818828,324,0.076171875,0.97943115,-0.0068969727
1603106818906,325,0.076171875,0.97283936,-0.007385254
1603106818985,326,0.075927734,0.97821045,-0.005432129
1603106819064,327,0.07373047,0.9735718,-0.0037231445
1603106819143,328,0.07519531,0.97161865,-0.008361816
1603106819221,329,0.07763672,0.97528076,-0.0064086914
1603106819300,330,0.07519531,0.9772339,-7.9345703E-4
1603106819379,331,0.0637207,0.97943115,-0.014709473
1603106819458,332,0.057373047,0.97210693,-7.9345703E-4
1603106819536,333,0.05908203,0.9713745,-0.0037231445
1603106819615,334,0.076660156,0.97528076,-0.031799316
1603106819694,335,0.072509766,0.97576904,-0.020812988
1603106819773,336,0.07788086,0.977478,-0.020324707
1603106819851,337,0.07543945,0.9779663,-0.030822754
1603106819930,338,0.06201172,0.97772217,-0.035949707
1603106820009,339,0.06665039,0.977478,-0.043518066
1603106820088,340,0.06982422,0.97772217,-0.04473877
1603106820166,341,0.063964844,0.97454834,-0.04840088
1603106820245,342,0.07421875,0.9743042,-0.04547119
1603106820324,343,0.068115234,0.9725952,-0.04547119
1603106820403,344,0.064208984,0.9743042,-0.036193848
1603106820481,345,0.072021484,0.9725952,-0.035461426
1603106820560,346,0.06640625,0.97406006,-0.039123535
1603106820639,347,0.06665039,0.9804077,-0.03692627
1603106820718,348,0.057861328,0.9789429,-0.04034424
1603106820796,349,0.068115234,0.97454834,-0.041809082
1603106820875,350,0.07006836,0.9784546,-0.03765869
1603106820954,351,0.0690918,0.97454834,-0.028381348
1603106821033,352,0.060302734,0.9672241,-0.035949707
1603106821111,353,0.08300781,0.97991943,-0.017150879
1603106821190,354,0.079833984,0.97528076,-0.0076293945
1603106821269,355,0.08300781,0.9760132,-0.012512207
1603106821348,356,0.08178711,0.9760132,-0.0044555664
1603106821426,357,0.06567383,0.97454834,-0.015930176
1603106821505,358,0.07421875,0.97283936,-0.018615723
1603106821584,359,0.08300781,0.97088623,-0.01763916
1603106821663,360,0.07470703,0.9789429,-0.014953613
1603106821741,361,0.07495117,0.9767456,-0.020324707
1603106821820,362,0.08959961,0.9796753,-0.016906738
1603106821899,363,0.09350586,0.9779663,-0.004211426
1603106821978,364,0.07299805,0.9660034,-0.027648926
1603106822056,365,0.04345703,0.9718628,-0.030578613
1603106822135,366,0.09472656,0.97869873,-0.026916504
1603106822214,367,0.1003418,0.96673584,-0.0115356445
1603106822293,368,0.09399414,0.97210693,-0.0032348633
1603106822371,369,0.096191406,0.97088623,-0.018127441
1603106822450,370,0.09887695,0.9750366,-0.015930176
1603106822529,371,0.09057617,0.97406006,-0.0056762695
1603106822608,372,0.099365234,0.97576904,-0.013244629
1603106822686,373,0.06762695,0.9730835,6.713867E-4
1603106822765,374,0.08544922,0.9762573,-0.007873535
1603106822844,375,0.076416016,0.97698975,-0.0115356445
1603106822923,376,0.0847168,0.97528076,-0.0095825195
1603106823001,377,0.08642578,0.9743042,-0.013244629
1603106823080,378,0.08544922,0.9701538,-0.010559082
1603106823159,379,0.088134766,0.9762573,-0.016418457
1603106823238,380,0.087646484,0.9657593,-0.012512207
1603106823316,381,0.07861328,0.965271,0.005065918
1603106823395,382,0.07348633,0.9840698,-0.020812988
1603106823474,383,0.08544922,0.96698,-0.0049438477
1603106823553,384,0.103515625,0.9743042,-0.02154541
1603106823645,385,0.07885742,0.96868896,-0.0049438477
1603106823738,386,0.07543945,0.98065186,-0.0037231445
1603106823831,387,0.095214844,0.97283936,-0.007385254
1603106823924,388,0.08544922,0.9730835,-0.016906738
1603106824017,389,0.103027344,0.96990967,0.007751465
1603106824110,390,0.07714844,0.9911499,-0.0020141602
1603106824202,391,0.08227539,0.95965576,-5.493164E-4
1603106824295,392,0.08862305,0.977478,-0.0056762695
1603106824388,393,0.096191406,0.97161865,-0.008605957
1603106824481,394,0.076416016,0.9657593,-0.018859863
1603106824574,395,0.068359375,0.9747925,-0.012023926
1603106824667,396,0.06616211,0.9723511,-0.019592285
1603106824759,397,0.08496094,0.97161865,-0.0115356445
1603106824852,398,0.08911133,0.97406006,-0.009094238
1603106824945,399,0.09008789,0.9725952,-0.023254395
1603106825038,400,0.08081055,0.9755249,-0.026672363
1603106825131,401,0.068115234,0.9779663,-0.026428223
1603106825224,402,0.080566406,0.9762573,-0.02911377
1603106825317,403,0.08618164,0.97576904,-0.026184082
1603106825409,404,0.08642578,0.9735718,-0.02154541
1603106825502,405,0.07397461,0.9789429,-0.023498535
1603106825595,406,0.06738281,0.97454834,-0.024719238
1603106825688,407,0.08276367,0.97210693,-0.023254395
1603106825781,408,0.08105469,0.97332764,-0.020324707
1603106825874,409,0.07763672,0.97943115,-0.022766113
1603106825966,410,0.078125,0.9738159,-0.019836426
1603106826059,411,0.084228516,0.9711304,-0.02154541
1603106826152,412,0.08325195,0.9730835,-0.0154418945
1603106826245,413,0.080566406,0.9747925,-0.01739502
1603106826338,414,0.087646484,0.9747925,-0.019104004
1603106826431,415,0.088134766,0.9718628,-0.019348145
1603106826524,416,0.08496094,0.9743042,-0.022766113
1603106826602,417,0.08911133,0.9755249,-0.022521973
1603106826681,418,0.083740234,0.97406006,-0.023742676
1603106826760,419,0.087402344,0.9723511,-0.022521973
1603106826839,420,0.08154297,0.9760132,-0.020812988
1603106826917,421,0.08325195,0.9730835,-0.027893066
1603106826996,422,0.083740234,0.9735718,-0.022033691
1603106827075,423,0.08178711,0.97528076,-0.023254395
1603106827154,424,0.08105469,0.97821045,-0.0178833
1603106827232,425,0.08105469,0.97772217,-0.02154541
1603106827311,426,0.076416016,0.9750366,-0.023742676
1603106827390,427,0.07788086,0.9750366,-0.023986816
1603106827469,428,0.076416016,0.9760132,-0.027648926
1603106827547,429,0.08105469,0.97039795,-0.035461426
1603106827626,430,0.07788086,0.9755249,-0.038391113
1603106827705,431,0.07080078,0.9711304,-0.039123535
1603106827784,432,0.06958008,0.97772217,-0.035949707
1603106827862,433,0.072509766,0.9762573,-0.03668213
1603106827941,434,0.06982422,0.9767456,-0.042785645
1603106828020,435,0.068115234,0.97528076,-0.037902832
1603106828099,436,0.06518555,0.97821045,-0.039855957
1603106828177,437,0.06762695,0.97650146,-0.03692627
1603106828256,438,0.068115234,0.9755249,-0.039855957
1603106828335,439,0.06518555,0.9725952,-0.03741455
1603106828414,440,0.067871094,0.97528076,-0.034240723
1603106828492,441,0.076171875,0.9760132,-0.042053223
1603106828571,442,0.08081055,0.97772217,-0.03253174
1603106828650,443,0.080322266,0.9762573,-0.034973145
1603106828729,444,0.08129883,0.97650146,-0.033996582
1603106828807,445,0.07446289,0.9755249,-0.034240723
1603106828886,446,0.06762695,0.9747925,-0.03692627
1603106828965,447,0.075927734,0.9723511,-0.034484863
1603106829044,448,0.076171875,0.96795654,-0.026916504
1603106829122,449,0.07519531,0.9743042,-0.035705566
1603106829201,450,0.080566406,0.9796753,-0.026184082
1603106829280,451,0.08544922,0.97772217,-0.020568848
1603106829359,452,0.07836914,0.97650146,-0.016174316
1603106829437,453,0.06323242,0.97210693,-0.020812988
1603106829516,454,0.061767578,0.9735718,-0.023010254
1603106829595,455,0.07324219,0.9747925,-0.023742676
1603106829674,456,0.07714844,0.9747925,-0.012023926
1603106829752,457,0.07739258,0.9747925,-0.024475098
1603106829831,458,0.07763672,0.9772339,-0.01739502
1603106829910,459,0.07714844,0.9738159,-0.013000488
1603106829989,460,0.07739258,0.9760132,-0.015930176
1603106830067,461,0.0715332,0.9760132,-0.020568848
1603106830146,462,0.0715332,0.97576904,-0.0154418945
1603106830225,463,0.06518555,0.9755249,-0.0154418945
1603106830304,464,0.068359375,0.97698975,-0.020568848
1603106830382,465,0.07006836,0.977478,-0.019592285
1603106830461,466,0.072021484,0.9735718,-0.026916504
1603106830540,467,0.067871094,0.97332764,-0.019836426
1603106830619,468,0.0715332,0.9735718,-0.02178955
1603106830697,469,0.07373047,0.97332764,-0.020812988
1603106830776,470,0.072021484,0.9762573,-0.02130127
1603106830855,471,0.075683594,0.97528076,-0.020080566
1603106830934,472,0.075683594,0.9750366,-0.014465332
1603106831012,473,0.072753906,0.97406006,-0.017150879
1603106831091,474,0.06933594,0.9755249,-0.0178833
1603106831170,475,0.06762695,0.9735718,-0.023498535
1603106831249,476,0.068359375,0.97772217,-0.023254395
1603106831327,477,0.071777344,0.9735718,-0.016662598
1603106831406,478,0.07348633,0.9762573,-0.021057129
1603106831485,479,0.06933594,0.9762573,-0.02154541
1603106831564,480,0.06958008,0.9767456,-0.020080566
1603106831642,481,0.06616211,0.97454834,-0.02178955
1603106831721,482,0.0690918,0.97821045,-0.022766113
1603106831800,483,0.068359375,0.97406006,-0.016906738
1603106831879,484,0.068603516,0.97576904,-0.024963379
1603106831957,485,0.06542969,0.97698975,-0.024230957
1603106832036,486,0.072509766,0.9762573,-0.020080566
1603106832115,487,0.06982422,0.9767456,-0.023010254
1603106832194,488,0.06201172,0.9762573,-0.021057129
1603106832272,489,0.068847656,0.9767456,-0.019104004
1603106832351,490,0.071777344,0.9743042,-0.019836426
1603106832430,491,0.068359375,0.9755249,-0.022033691
1603106832509,492,0.06274414,0.9750366,-0.016174316
1603106832587,493,0.064208984,0.97698975,-0.016418457
1603106832666,494,0.05883789,0.97283936,-0.014221191
1603106832745,495,0.06958008,0.9747925,-0.0064086914
1603106832824,496,0.06542969,0.9796753,0.013122559
1603106832902,497,0.06713867,0.9789429,0.01361084
1603106832981,498,0.06518555,0.9747925,0.005065918
1603106833060,499,0.063964844,0.9735718,-0.0017700195
1603106833139,500,0.06933594,0.97576904,-0.004211426
1603106833217,501,0.06616211,0.9755249,-0.0012817383
1603106833296,502,0.064208984,0.9767456,-0.004211426
1603106833375,503,0.0637207,0.97698975,-0.0025024414
1603106833454,504,0.064941406,0.9762573,-0.006164551
1603106833532,505,0.061279297,0.9772339,-0.006652832
1603106833611,506,0.06298828,0.97869873,-0.01739502
1603106833690,507,0.05908203,0.97698975,-0.026672363
1603106833769,508,0.06713867,0.9784546,-0.02960205
1603106833847,509,0.0637207,0.97772217,-0.038635254
1603106833926,510,0.06591797,0.97161865,-0.0335083
1603106834005,511,0.05908203,0.9701538,-0.04156494
1603106834084,512,0.06542969,0.97576904,-0.03277588
1603106834162,513,0.0703125,0.97528076,-0.046447754
1603106834241,514,0.064941406,0.9767456,-0.04498291
1603106834320,515,0.06665039,0.9743042,-0.042541504
1603106834399,516,0.06665039,0.9772339,-0.04522705
1603106834477,517,0.06591797,0.97283936,-0.04473877
1603106834556,518,0.06567383,0.9750366,-0.039611816
1603106834635,519,0.06982422,0.9750366,-0.041809082
1603106834714,520,0.06665039,0.97332764,-0.040100098
1603106834792,521,0.07299805,0.97698975,-0.035949707
1603106834871,522,0.06738281,0.97332764,-0.035705566
1603106834950,523,0.07055664,0.97698975,-0.035705566
1603106835029,524,0.06616211,0.9755249,-0.035705566
1603106835107,525,0.0703125,0.9779663,-0.03326416
1603106835186,526,0.0703125,0.9762573,-0.030822754
1603106835265,527,0.068115234,0.9762573,-0.019836426
1603106835344,528,0.068359375,0.97698975,-0.035705566
1603106835422,529,0.06713867,0.97821045,-0.030822754
1603106835501,530,0.061279297,0.97528076,-0.027404785
1603106835580,531,0.06542969,0.9735718,-0.035705566
1603106835659,532,0.068603516,0.97772217,-0.03302002
1603106835737,533,0.061035156,0.9804077,-0.02911377
1603106835816,534,0.067871094,0.9767456,-0.034973145
1603106835895,535,0.064208984,0.97869873,-0.03375244
1603106835974,536,0.06323242,0.97406006,-0.032287598
1603106836052,537,0.0625,0.97283936,-0.034484863
1603106836131,538,0.06201172,0.9701538,-0.022277832
1603106836210,539,0.057617188,0.9762573,-0.029846191
1603106836289,540,0.06323242,0.97821045,-0.03643799
1603106836367,541,0.059814453,0.9784546,-0.024719238
1603106836446,542,0.061523438,0.980896,-0.023254395
1603106836525,543,0.061523438,0.9755249,-0.0154418945
1603106836604,544,0.060546875,0.9804077,-0.02130127
1603106836682,545,0.056396484,0.9762573,-0.027160645
1603106836761,546,0.061035156,0.9750366,-0.026428223
1603106836840,547,0.064453125,0.9760132,-0.023742676
1603106836919,548,0.07373047,0.97869873,-0.024719238
1603106836997,549,0.06958008,0.9747925,-0.019836426
1603106837076,550,0.072509766,0.9762573,-0.014709473
1603106837155,551,0.076660156,0.9760132,-0.0134887695
1603106837234,552,0.06640625,0.97406006,-0.010314941
1603106837312,553,0.06225586,0.9762573,-0.012512207
1603106837391,554,0.057128906,0.97283936,-0.014465332
1603106837470,555,0.06616211,0.9747925,-0.019592285
1603106837549,556,0.07495117,0.97454834,-0.016662598
1603106837627,557,0.06958008,0.982605,-0.020324707
1603106837706,558,0.06933594,0.98553467,-0.010803223
1603106837785,559,0.057373047,0.9713745,-0.006164551
1603106837864,560,0.076416016,0.9813843,-0.016418457
1603106837942,561,0.07006836,0.9767456,-0.012512207
1603106838021,562,0.052001953,0.97528076,-0.016906738
1603106838100,563,0.079833984,0.9723511,-0.014709473
1603106838179,564,0.072265625,0.97528076,-0.018859863
1603106838257,565,0.0847168,0.9747925,-0.010559082
1603106838336,566,0.064208984,0.9821167,-0.015686035
1603106838415,567,0.07910156,0.97528076,-0.0115356445
1603106838494,568,0.0625,0.97088623,-0.013244629
1603106838572,569,0.07055664,0.9779663,-0.03277588
1603106838651,570,0.06518555,0.9816284,-0.008605957
1603106838730,571,0.075683594,0.9694214,-0.016418457
1603106838809,572,0.07080078,0.97161865,-0.008605957
1603106838887,573,0.095458984,0.9735718,-0.018127441
1603106838966,574,0.08154297,0.9762573,-0.011291504
1603106839045,575,0.057128906,0.9730835,-0.023010254
1603106839124,576,0.07006836,0.9760132,-0.011779785
1603106839202,577,0.057861328,0.9738159,0.0026245117
1603106839281,578,0.07348633,0.9813843,-0.008117676
1603106839360,579,0.032470703,0.9743042,-0.00592041
1603106839439,580,0.05883789,0.9821167,-0.023498535
1603106839517,581,0.09692383,0.9845581,-0.010559082
1603106839596,582,0.06713867,0.9706421,-0.026672363
1603106839675,583,0.06958008,0.9772339,-0.012023926
1603106839754,584,0.06933594,0.96746826,0.031188965
1603106839832,585,0.038330078,1.0119019,-0.17364502
1603106839911,586,0.09301758,0.9594116,-0.03668213
1603106839990,587,0.055664062,0.947937,-0.02154541
1603106840069,588,0.056884766,0.9857788,-0.034240723
1603106840147,589,0.03515625,0.9723511,-0.029846191
1603106840226,590,0.068603516,0.98065186,-0.0076293945
1603106840305,591,0.078125,0.9772339,-0.022033691
1603106840384,592,0.07080078,0.9660034,-0.026428223
1603106840462,593,0.068115234,0.979187,-0.019592285
1603106840541,594,0.07128906,0.9789429,-0.012756348
1603106840620,595,0.06713867,0.9789429,-0.015197754
1603106840699,596,0.07348633,0.97772217,-0.012756348
1603106840777,597,0.071777344,0.96868896,-0.014953613
1603106840856,598,0.07495117,0.97650146,-0.012023926
1603106840935,599,0.072753906,0.98846436,-0.024963379
1603106841014,600,0.057861328,0.98480225,-0.018615723
1603106841092,601,0.048583984,0.9743042,-0.023010254
1603106841171,602,0.056640625,0.9738159,-0.012023926
1603106841250,603,0.07519531,0.9616089,-0.013000488
1603106841329,604,0.07055664,0.9755249,-0.030090332
1603106841407,605,0.064941406,0.9779663,-0.018127441
1603106841486,606,0.061279297,0.97943115,-0.008850098
1603106841565,607,0.059814453,0.9713745,-0.018859863
1603106841644,608,0.08691406,0.9760132,-0.018859863
1603106841736,609,0.07495117,0.9735718,-0.014465332
1603106841828,610,0.072265625,0.9767456,-0.0071411133
1603106841920,611,0.0769043,0.9762573,-0.019348145
1603106842013,612,0.064208984,0.9760132,-0.024230957
1603106842105,613,0.06225586,0.9767456,-0.011047363
1603106842197,614,0.068115234,0.982605,-0.012023926
1603106842289,615,0.07470703,0.9743042,-0.019348145
1603106842382,616,0.07788086,0.9750366,-0.019104004
1603106842474,617,0.06591797,0.9762573,-0.015930176
1603106842566,618,0.06713867,0.980896,-0.0134887695
1603106842659,619,0.072509766,0.9755249,-0.027404785
1603106842751,620,0.07006836,0.9833374,-0.024719238
1603106842843,621,0.076416016,0.9762573,-0.025939941
1603106842935,622,0.061279297,0.96795654,-0.01739502
1603106843028,623,0.07348633,0.9623413,-0.030090332
1603106843120,624,0.088134766,0.97650146,-0.042541504
1603106843212,625,0.075927734,0.9779663,-0.034240723
1603106843305,626,0.079833984,0.9730835,-0.02154541
1603106843397,627,0.092285156,0.97039795,-0.02960205
1603106843489,628,0.07299805,0.9784546,-0.023010254
1603106843581,629,0.040771484,0.9857788,0.0072631836
1603106843674,630,0.044433594,0.98309326,9.1552734E-4
1603106843766,631,0.061035156,0.977478,-0.0154418945
1603106843858,632,0.067871094,0.9684448,-0.012268066
1603106843951,633,0.07299805,0.97283936,-0.026184082
1603106844043,634,0.07324219,0.9743042,-0.027893066
1603106844135,635,0.06762695,0.97991943,-0.028381348
1603106844227,636,0.08984375,0.97039795,-0.025939941
1603106844320,637,0.083740234,0.9711304,-0.018615723
1603106844412,638,0.09033203,0.97406006,-0.022521973
1603106844504,639,0.07543945,0.9755249,-0.024719238
1603106844597,640,0.06347656,0.9796753,-0.020080566
1603106844675,641,0.057617188,0.9735718,-0.02130127
1603106844754,642,0.064208984,0.97991943,-0.022033691
1603106844833,643,0.076416016,0.97576904,-0.02545166
1603106844912,644,0.080078125,0.9738159,-0.02520752
1603106844990,645,0.072509766,0.97454834,-0.02545166
1603106845069,646,0.056396484,0.9723511,-0.022277832
1603106845148,647,0.061035156,0.980896,-0.026672363
1603106845227,648,0.060302734,0.97528076,-0.03302002
1603106845305,649,0.0625,0.9779663,-0.030578613
1603106845384,650,0.053222656,0.977478,-0.024963379
1603106845463,651,0.064697266,0.97454834,-0.038391113
1603106845542,652,0.055908203,0.97698975,-0.025939941
1603106845620,653,0.0546875,0.9762573,-0.032043457
1603106845699,654,0.064941406,0.97698975,-0.032043457
1603106845778,655,0.06518555,0.97576904,-0.036193848
1603106845857,656,0.06518555,0.9760132,-0.031555176
1603106845935,657,0.064208984,0.9779663,-0.0335083
1603106846014,658,0.059814453,0.97772217,-0.03765869
1603106846093,659,0.064941406,0.9701538,-0.027648926
1603106846172,660,0.06567383,0.97698975,-0.031555176
1603106846250,661,0.068847656,0.9801636,-0.038146973
1603106846329,662,0.06518555,0.9750366,-0.03692627
1603106846408,663,0.06567383,0.9755249,-0.037902832
1603106846487,664,0.064208984,0.9779663,-0.039367676
1603106846565,665,0.061767578,0.9755249,-0.036193848
1603106846644,666,0.06542969,0.9725952,-0.038146973
1603106846723,667,0.06640625,0.9755249,-0.039611816
1603106846802,668,0.06982422,0.97576904,-0.03375244
1603106846880,669,0.071777344,0.9760132,-0.03253174
1603106846959,670,0.06274414,0.9767456,-0.03668213
1603106847038,671,0.06323242,0.9760132,-0.035461426
1603106847117,672,0.07055664,0.97650146,-0.043273926
1603106847195,673,0.064208984,0.97283936,-0.03668213
1603106847274,674,0.06713867,0.97698975,-0.038146973
1603106847353,675,0.07446289,0.97576904,-0.042785645
1603106847432,676,0.071777344,0.97454834,-0.0413208
1603106847510,677,0.0690918,0.97869873,-0.03692627
1603106847589,678,0.06640625,0.9738159,-0.03326416
1603106847668,679,0.068115234,0.9762573,-0.039855957
1603106847747,680,0.06689453,0.97772217,-0.03375244
1603106847825,681,0.06616211,0.9747925,-0.0335083
1603106847904,682,0.06225586,0.9772339,-0.033996582
1603106847983,683,0.05908203,0.977478,-0.037902832
1603106848062,684,0.06274414,0.9784546,-0.04107666
1603106848140,685,0.063964844,0.9682007,-0.035949707
1603106848219,686,0.06542969,0.9840698,-0.023010254
1603106848298,687,0.07104492,0.9772339,-0.015686035
1603106848377,688,0.06665039,0.980896,-0.02130127
1603106848455,689,0.06274414,0.97283936,-0.023010254
1603106848534,690,0.07397461,0.97772217,-0.035949707
1603106848613,691,0.07299805,0.9738159,-0.031311035
1603106848692,692,0.072265625,0.9743042,-0.024719238
1603106848770,693,0.09008789,0.97821045,-0.038391113
1603106848849,694,0.0625,0.9804077,-0.02130127
1603106848928,695,0.039794922,0.97528076,-0.034973145
1603106849007,696,0.07104492,0.96502686,-0.05328369
1603106849085,697,0.107910156,0.979187,-0.044006348
1603106849164,698,0.09033203,0.9684448,-0.043029785
1603106849243,699,0.079589844,0.9689331,-0.061828613
1603106849322,700,0.08935547,0.97943115,-0.04864502
1603106849400,701,0.055664062,0.97039795,-0.03668213
1603106849479,702,0.08129883,0.97650146,-0.03741455
1603106849558,703,0.087646484,0.9718628,-0.057678223
1603106849637,704,0.072021484,0.9725952,-0.034484863
1603106849715,705,0.06762695,0.9772339,-0.028381348
1603106849794,706,0.06982422,0.9789429,-0.034973145
1603106849873,707,0.09375,0.980896,-0.039611816
1603106849952,708,0.08129883,0.9718628,-0.041809082
1603106850030,709,0.068603516,0.9730835,-0.04498291
1603106850109,710,0.09375,0.97821045,-0.028381348
1603106850188,711,0.099609375,0.97039795,-0.020568848
1603106850267,712,0.088134766,0.9747925,-0.02960205
1603106850345,713,0.09790039,0.97210693,-0.04058838
1603106850424,714,0.07348633,0.97528076,-0.039123535
1603106850503,715,0.0690918,0.97772217,-0.029846191
1603106850582,716,0.09326172,0.9755249,-0.032287598
1603106850660,717,0.0949707,0.9689331,-0.04083252
1603106850739,718,0.08862305,0.96429443,-0.05621338
1603106850818,719,0.051513672,0.9899292,-0.031066895
1603106850897,720,0.0871582,0.9723511,-0.030090332
1603106850975,721,0.0793457,0.96209717,-0.055236816
1603106851054,722,0.0690918,0.9928589,-0.027648926
1603106851133,723,0.099853516,0.97283936,-0.019592285
1603106851212,724,0.075683594,0.97454834,-0.03253174
1603106851290,725,0.103515625,0.97210693,-0.043029785
1603106851369,726,0.123535156,0.9713745,-0.050842285
1603106851448,727,0.119384766,0.9594116,-0.05645752
1603106851527,728,0.05810547,0.9894409,-0.019104004
1603106851605,729,0.045898438,0.98553467,-0.031311035
1603106851684,730,0.08642578,0.9813843,-0.05621338
1603106851763,731,0.064453125,0.9772339,-0.057434082
1603106851842,732,0.07861328,0.9574585,-0.027404785
1603106851920,733,0.092041016,0.9682007,-0.023742676
1603106851999,734,0.072265625,0.9874878,-0.028869629
1603106852078,735,0.084472656,0.97283936,-0.017150879
1603106852157,736,0.06225586,0.97698975,-0.035949707
1603106852235,737,0.11376953,0.9701538,-0.05645752
1603106852314,738,0.04345703,0.97088623,-0.049865723
1603106852393,739,0.057617188,0.98187256,-0.031799316
1603106852472,740,0.06323242,0.9772339,-0.050354004
1603106852550,741,0.12573242,0.9664917,-0.06817627
1603106852629,742,0.0637207,0.96746826,-0.097229004
1603106852708,743,0.033691406,0.97943115,-0.035949707
1603106852787,744,0.05444336,0.9821167,-0.035949707
1603106852865,745,0.027832031,0.9845581,-0.05303955
1603106852944,746,0.056396484,0.9579468,-0.040100098
1603106853023,747,0.052734375,0.99139404,-0.026184082
1603106853102,748,0.0871582,0.9772339,-0.010070801
1603106853180,749,0.0703125,0.98358154,-0.03302002
1603106853259,750,0.08300781,0.98724365,-0.038635254
1603106853338,751,0.083984375,0.97943115,-0.057678223
1603106853417,752,0.02368164,0.9647827,-0.019836426
1603106853495,753,0.10229492,0.9633179,-0.003479004
1603106853574,754,0.096191406,0.9833374,-0.03253174
1603106853653,755,0.07397461,0.97283936,-0.012023926
1603106853732,756,0.075683594,0.9723511,-0.030090332
1603106853810,757,0.07543945,0.98309326,-0.027648926
1603106853889,758,0.07104492,0.9694214,-0.03375244
1603106853968,759,0.053222656,0.977478,-0.050842285
1603106854047,760,0.057373047,0.9657593,-0.047424316
1603106854125,761,0.09716797,0.9813843,-0.053527832
1603106854204,762,0.06323242,0.97821045,-0.030090332
1603106854283,763,0.06738281,0.9743042,-0.01763916
1603106854362,764,0.033691406,0.9879761,-0.016906738
1603106854440,765,0.055908203,0.9779663,-0.0256958
1603106854519,766,0.044677734,0.98724365,-0.020080566
1603106854598,767,0.06347656,0.9711304,-0.035949707
