# Sensor position: Wrist
# Sensor side: Right
# Activity type: Running
# Activity code: 11
# Subject id: s1655552
timestamp,seq,accel_x,accel_y,accel_z
1601660146837,0,0.41235352,-0.32110596,0.80389404
1601660146842,1,0.7265625,-0.5215454,0.6781616
1601660146844,2,0.8754883,-0.8377075,0.48944092
1601660146846,3,0.6970215,-0.8867798,0.42913818
1601660146847,4,0.54052734,-0.62872314,0.34368896
1601660146849,5,0.4489746,-0.63897705,0.324646
1601660146850,6,0.4165039,-0.55181885,0.41351318
1601660146853,7,0.5571289,-0.62091064,0.526062
1601660146855,8,0.46850586,-0.7817993,0.60443115
1601660146860,9,0.3942871,-0.9871216,0.588562
1601660146861,10,0.3400879,-0.93292236,0.5253296
1601660146862,11,0.30664062,-0.6968384,0.41815186
1601660146864,12,0.30810547,-0.5581665,0.46331787
1601660146864,13,0.20092773,-0.5125122,0.49847412
1601660146865,14,0.13671875,-0.4837036,0.62835693
1601660146872,15,0.21777344,-0.755188,0.54974365
1601660146873,16,0.36645508,-1.09552,0.43621826
1601660146877,17,0.22729492,-1.1814575,0.32611084
1601660146879,18,0.23168945,-0.98321533,0.2741089
1601660146881,19,0.18383789,-0.73321533,0.21917725
1601660146886,20,0.2758789,-0.5527954,0.19720459
1601660146888,21,0.19995117,-0.7144165,0.27142334
1601660146890,22,-0.1574707,-0.84625244,0.12786865
1601660146894,23,-0.9226074,-0.64385986,-0.07745361
1601660146900,24,-1.9470215,-0.56451416,-0.5286255
1601660146902,25,-1.9846191,-0.53570557,-0.4710083
1601660146902,26,-1.1022949,-0.66241455,-0.18536377
1601660146906,27,-0.7883301,-0.81451416,-0.020324707
1601660146907,28,-0.6152344,-1.1001587,0.16790771
1601660146907,29,-0.48999023,-1.1052856,0.14959717
1601660146909,30,-0.78808594,-1.2937622,-0.04473877
1601660146910,31,-1.5927734,-1.7573853,-0.28985596
1601660149815,32,-2.0,-1.9226685,-0.4290161
1601660149841,33,-1.6066895,-0.5552368,-0.54278564
1601660149846,34,-0.7714844,0.7694702,-0.45098877
1601660149848,35,-0.77246094,0.6803589,-0.14923096
1601660149849,36,-1.2028809,-0.2966919,0.014343262
1601660149850,37,-2.0,-1.9998169,0.0211792
1601660149851,38,-1.1604004,-1.9998169,-0.121154785
1601660149853,39,0.2614746,-1.1060181,-0.023986816
1601660149855,40,1.1491699,-0.550354,0.22528076
1601660149858,41,0.13623047,-1.2815552,0.050964355
1601660149864,42,-2.0,-1.9998169,-0.105041504
1601660149864,43,-2.0,-1.0061646,-0.23052979
1601660149867,44,-1.1860352,0.65252686,-0.53619385
1601660149869,45,-0.8774414,1.2738647,-0.25958252
1601660149870,46,-1.380127,0.15228271,-0.19464111
1601660149871,47,-2.0,-1.9998169,-0.19488525
1601660149874,48,-0.6491699,-1.9998169,-0.34527588
1601660149875,49,1.0134277,-0.51226807,0.013366699
1601660149877,50,1.282959,-0.19268799,0.09832764
1601660149880,51,-0.48754883,-1.9998169,-0.06036377
1601660149889,52,-2.0,-1.9998169,-0.0064086914
1601660149900,53,-1.7834473,-0.2979126,-0.43389893
1601660149901,54,-0.8754883,1.4315796,-0.94903564
1601660149902,55,-0.98583984,0.6942749,-0.3484497
1601660149902,56,-2.0,-1.9998169,0.39959717
1601660149903,57,-1.4404297,-1.9998169,0.29779053
1601660149904,58,0.49121094,-0.94976807,0.016784668
1601660149908,59,1.1206055,0.005554199,-0.11993408
1601660149911,60,0.78466797,-0.28302002,-0.026672363
1601660149912,61,-1.7661133,-1.9998169,0.024353027
1601660149915,62,-2.0,-1.9998169,-0.028869629
1601660149916,63,-0.9003906,0.6456909,-0.48077393
1601660152994,64,-0.8474121,1.3302612,-0.7078247
1601660152999,65,-1.3432617,-0.021057129,-0.22052002
1601660153000,66,-2.0,-1.9998169,0.3283081
1601660153005,67,-0.38256836,-1.9998169,0.13494873
1601660153007,68,0.7595215,-0.25689697,0.14447021
1601660153019,69,1.1315918,0.08831787,0.061462402
1601660153020,70,0.2565918,-1.510315,-0.073791504
1601660153022,71,-2.0,-1.9998169,-0.15557861
1601660153027,72,-1.4150391,-0.9072876,-0.2642212
1601660153030,73,-0.97021484,1.5094604,-0.5913696
1601660153034,74,-0.9316406,1.038269,-0.36480713
1601660153036,75,-2.0,-1.9998169,0.116882324
1601660153037,76,-1.3879395,-1.9998169,0.1227417
1601660153039,77,0.5214844,-0.73760986,0.046325684
1601660153041,78,1.3212891,0.09686279,-0.008361816
1601660153042,79,0.779541,-0.2942505,-0.035217285
1601660153044,80,-2.0,-1.9998169,-0.23077393
1601660153045,81,-2.0,-1.9998169,-0.23883057
1601660153047,82,-1.1091309,0.8378296,-0.6448364
1601660153048,83,-1.0805664,1.4059448,-0.5498657
1601660153050,84,-1.6491699,-0.611145,-0.1375122
1601660153052,85,-2.0,-1.9998169,0.3727417
1601660153053,86,0.123291016,-1.6299438,0.024353027
1601660153055,87,1.09375,0.00970459,0.1227417
1601660153057,88,0.8588867,-0.07501221,0.12298584
1601660153059,89,-0.5048828,-1.9998169,0.14129639
1601660153060,90,-2.0,-1.9998169,0.051940918
1601660153061,91,-1.0400391,-0.3694458,-0.4109497
1601660153062,92,-1.1989746,1.3449097,-0.82647705
1601660153062,93,-1.3491211,0.43060303,-0.43536377
1601660153064,94,-2.0,-1.9998169,0.5805054
1601660153066,95,-0.43652344,-1.9998169,0.28070068
1601660155379,96,0.77612305,-0.24737549,-0.023254395
1601660155380,97,1.3144531,0.38690186,-0.08355713
1601660155386,98,0.6425781,-0.88946533,-0.038635254
1601660155387,99,-2.0,-1.9998169,0.5140991
1601660155388,100,-1.4265137,-1.3933716,0.043395996
1601660155388,101,-1.1291504,0.8566284,-0.6382446
1601660155396,102,-1.28125,0.7387085,-0.57232666
1601660155397,103,-1.7011719,-1.4607544,0.21282959
1601660155398,104,-1.4069824,-1.9998169,0.41253662
1601660155400,105,0.55688477,-1.0979614,-0.058898926
1601660155400,106,1.2043457,0.36883545,-0.047180176
1601660155402,107,1.0136719,-0.3291626,-0.17926025
1601660155402,108,-1.9101562,-1.9998169,0.07611084
1601660155402,109,-2.0,-1.9998169,-0.20098877
1601660155405,110,-1.1186523,0.66986084,-0.46514893
1601660155407,111,-1.0439453,1.2960815,-0.4981079
1601660155410,112,-1.3615723,-0.31622314,-0.20562744
1601660155414,113,-2.0,-1.9998169,0.35321045
1601660155415,114,0.38891602,-1.4758911,0.07196045
1601660155418,115,1.2575684,0.08514404,0.120788574
1601660155423,116,0.9921875,-0.20465088,0.06512451
1601660155424,117,-1.6437988,-1.9998169,-0.028625488
1601660155424,118,-2.0,-1.9998169,-0.14874268
1601660155424,119,-0.8244629,0.10614014,-0.42071533
1601660155426,120,-1.3532715,1.069519,-0.66900635
1601660155429,121,-1.1745605,0.18304443,-0.20733643
1601660155430,122,-1.9748535,-1.9998169,0.4093628
1601660155432,123,0.06274414,-1.9998169,0.14398193
1601660155433,124,0.954834,-0.13873291,0.020935059
1601660155436,125,1.1323242,0.11273193,-0.042541504
1601660155438,126,0.13330078,-1.9998169,0.07147217
1601660155439,127,-1.9802246,-1.9998169,0.2321167
1601660157169,128,-1.2475586,-0.5664673,-0.34039307
1601660157170,129,-1.4304199,0.9537964,-0.8567505
1601660157170,130,-1.1689453,0.43182373,-0.42803955
1601660157176,131,-2.0,-1.9998169,0.51190186
1601660157178,132,-0.58935547,-1.9998169,0.5807495
1601660157180,133,0.85424805,-0.37213135,0.12664795
1601660157184,134,1.6499023,0.40374756,-0.18511963
1601660157187,135,0.6804199,-1.5637817,-0.059143066
1601660157191,136,-2.0,-1.9998169,0.37591553
1601660157194,137,-1.407959,-1.0298462,-0.19488525
1601660157195,138,-1.1574707,0.61224365,-0.8491821
1601660157199,139,-1.0964355,0.6588745,-0.6506958
1601660157201,140,-1.3933105,-1.3557739,0.1539917
1601660157203,141,-1.4555664,-1.9998169,0.539978
1601660157205,142,0.7043457,-1.0689087,0.11273193
1601660157207,143,1.6767578,0.23577881,0.12176514
1601660157208,144,0.9226074,-0.767395,-0.039611816
1601660157208,145,-2.0,-1.9998169,0.45233154
1601660157213,146,-1.732666,-1.9285278,-0.0064086914
1601660157214,147,-1.0820312,0.574646,-0.86968994
1601660157217,148,-1.2932129,0.9159546,-0.87164307
1601660157221,149,-1.4616699,-0.52130127,0.16815186
1601660157224,150,-2.0,-1.9998169,0.92352295
1601660157228,151,0.08544922,-1.8135376,0.22332764
1601660157230,152,1.197998,0.14642334,-0.047180176
1601660157231,153,1.222168,0.016296387,-0.14752197
1601660157237,154,-0.4333496,-1.9998169,-0.0791626
1601660157238,155,-2.0,-1.9998169,0.18499756
1601660157247,156,-1.3359375,-0.16583252,-0.4024048
1601660157248,157,-1.4143066,1.1727905,-1.0383911
1601660157248,158,-1.4255371,0.21868896,-0.43121338
1601660157249,159,-2.0,-1.9998169,0.28070068
1601660159755,160,-0.07788086,-1.9998169,0.18231201
1601660159758,161,1.4033203,-0.39337158,0.0045776367
1601660159761,162,1.3254395,0.036071777,-0.10455322
1601660159766,163,0.011474609,-1.9998169,-6.1035156E-5
1601660159773,164,-2.0,-1.9998169,0.43426514
1601660159778,165,-1.427002,-0.5237427,-0.21759033
1601660159781,166,-1.4631348,1.0648804,-0.96173096
1601660159790,167,-1.328125,0.6281128,-0.57403564
1601660159794,168,-1.9768066,-1.9998169,-0.03643799
1601660159796,169,-0.52905273,-1.9998169,0.15301514
1601660159802,170,0.826416,-0.34136963,0.22454834
1601660159805,171,1.3205566,0.449646,0.12786865
1601660159805,172,0.93066406,-0.5210571,-0.086242676
1601660159808,173,-1.4946289,-1.9998169,0.1828003
1601660159810,174,-1.5366211,-1.9998169,-0.007385254
1601660159812,175,-1.2145996,0.5519409,-0.7473755
1601660159822,176,-1.5124512,0.90301514,-0.7022095
1601660159825,177,-1.3583984,-0.9885864,-0.12506104
1601660159827,178,-1.4333496,-1.9998169,0.16448975
1601660159833,179,0.56762695,-1.2962036,0.08123779
1601660159835,180,1.1149902,0.27850342,-0.06817627
1601660159836,181,1.001709,-0.09283447,-0.13995361
1601660159836,182,0.0925293,-1.9998169,0.109558105
1601660159836,183,-1.9855957,-1.9998169,0.26556396
1601660159846,184,-0.9550781,0.09539795,-0.4126587
1601660159866,185,-1.2595215,0.92523193,-0.75982666
1601660159890,186,-1.2470703,0.14935303,-0.31427002
1601660159896,187,-2.0,-1.9998169,0.13909912
1601660159910,188,0.27246094,-1.9998169,-0.05596924
1601660159921,189,0.9641113,0.31585693,0.19451904
1601660159945,190,1.0483398,0.18865967,0.2489624
1601660159949,191,0.49902344,-1.7769165,-0.17755127
1601660162345,192,-2.0,-1.9998169,-0.3604126
1601660162348,193,-1.1425781,-0.909729,-0.2666626
1601660162368,194,-1.3742676,1.4284058,-0.8152466
1601660162368,195,-1.5439453,0.62713623,-0.50128174
1601660162368,196,-2.0,-1.9998169,0.03265381
1601660162377,197,-0.89624023,-1.9998169,-0.11236572
1601660162390,198,0.7817383,-0.6001587,0.08294678
1601660162396,199,1.0822754,-0.12579346,0.19476318
1601660162399,200,0.6604004,-1.0703735,-0.012756348
1601660162405,201,-2.0,-1.9998169,-0.09527588
1601660162409,202,-1.7373047,-1.4624634,-0.13043213
1601660162410,203,-1.1281738,0.79022217,-0.46710205
1601660162412,204,-1.0986328,0.75653076,-0.41583252
1601660162414,205,-1.4768066,-1.8967896,0.078063965
1601660162419,206,-0.65478516,-1.9998169,0.113220215
1601660162420,207,0.4807129,-1.0652466,-0.07989502
1601660162420,208,1.1933594,-0.006652832,0.039978027
1601660162420,209,1.0585938,-0.3508911,-0.054992676
1601660162424,210,-0.7507324,-1.9998169,0.038757324
1601660162431,211,-1.3850098,-1.9998169,-0.206604
1601660162431,212,-1.1113281,0.4857788,-0.73809814
1601660162433,213,-1.3657227,0.7235718,-0.56695557
1601660162434,214,-1.4230957,-0.80718994,0.36175537
1601660162442,215,-1.8337402,-1.9998169,0.2008667
1601660162444,216,0.34350586,-1.7307739,-0.17437744
1601660162445,217,1.6479492,0.12371826,-0.14117432
1601660162447,218,1.3847656,-0.39752197,-0.28546143
1601660162450,219,-1.7255859,-1.9998169,-0.44659424
1601660162452,220,-2.0,-1.9998169,-0.15289307
1601660162453,221,-1.5959473,0.7650757,-0.78204346
1601660162456,222,-1.3486328,1.1852417,-0.9060669
1601660162457,223,-1.3193359,-0.07647705,-0.13995361
1601660164923,224,-2.0,-1.9998169,0.37493896
1601660164925,225,0.16259766,-1.911438,-0.04058838
1601660164928,226,1.3737793,-0.14752197,0.15423584
1601660164929,227,1.373291,-0.20391846,0.019958496
1601660164933,228,-0.73706055,-1.9998169,0.2658081
1601660164936,229,-2.0,-1.9998169,0.20916748
1601660164938,230,-1.1760254,0.049743652,-0.59210205
1601660164940,231,-1.5205078,1.1242065,-0.95562744
1601660164942,232,-1.5544434,-0.04425049,-0.35601807
1601660164943,233,-2.0,-1.9998169,0.47088623
1601660164944,234,0.27026367,-1.8743286,0.16375732
1601660164947,235,0.9914551,0.05706787,0.051940918
1601660164948,236,1.2575684,0.08758545,0.07879639
1601660164951,237,0.20776367,-1.9998169,0.12664795
1601660164953,238,-1.5725098,-1.9998169,0.26263428
1601660164954,239,-1.013916,-0.7810669,-0.24517822
1601660164956,240,-1.4863281,0.6600952,-0.954895
1601660164956,241,-1.1955566,0.35394287,-0.51104736
1601660164957,242,-1.5615234,-1.9998169,0.2970581
1601660164960,243,-0.8786621,-1.9998169,0.6535034
1601660164961,244,0.7590332,-0.49664307,0.19354248
1601660164962,245,1.3984375,0.19354248,0.018737793
1601660164962,246,0.37939453,-1.7036743,0.04534912
1601660164963,247,-1.4978027,-1.9998169,0.31854248
1601660164963,248,-1.21875,-1.142395,0.022888184
1601660164963,249,-1.3764648,0.5910034,-0.8945923
1601660164964,250,-1.3786621,0.41326904,-0.75128174
1601660164965,251,-1.682373,-1.9387817,0.13519287
1601660164969,252,-1.1442871,-1.9998169,0.21795654
1601660164969,253,0.5698242,-1.1062622,0.018737793
1601660164970,254,1.3046875,0.1564331,0.17572021
1601660164971,255,0.9206543,-0.32183838,0.082214355
1601660167505,256,-1.3000488,-1.9998169,0.33709717
1601660167507,257,-1.935791,-1.9998169,0.14422607
1601660167511,258,-1.1445312,0.18182373,-0.5874634
1601660167513,259,-1.4423828,1.06781,-0.80181885
1601660167517,260,-1.4753418,-0.46124268,-0.32086182
1601660167519,261,-2.0,-1.9998169,0.39544678
1601660167520,262,0.39819336,-1.5681763,0.18841553
1601660167523,263,1.2717285,0.059020996,-0.015197754
1601660167525,264,1.1154785,-0.09259033,0.049743652
1601660167526,265,-0.91186523,-1.9998169,0.13616943
1601660167529,266,-2.0,-1.9998169,0.17034912
1601660167529,267,-1.1445312,0.25115967,-0.4290161
1601660167532,268,-1.3381348,1.0866089,-0.923645
1601660167534,269,-1.4589844,0.14324951,-0.3394165
1601660167539,270,-2.0,-1.9998169,0.6503296
1601660167541,271,-0.7570801,-1.9998169,0.41278076
1601660167542,272,0.8955078,-0.7407837,-0.11187744
1601660167544,273,1.5576172,-0.41851807,-0.09942627
1601660167545,274,-0.5234375,-1.9998169,0.26849365
1601660167548,275,-2.0,-1.9998169,0.38909912
1601660167549,276,-1.3034668,-0.5303345,-0.30767822
1601660167551,277,-1.2961426,1.3156128,-1.2422485
1601660167553,278,-1.6120605,0.9345093,-0.61724854
1601660167554,279,-2.0,-1.9998169,0.3151245
1601660167556,280,-1.5053711,-1.9998169,0.47821045
1601660167556,281,0.26757812,-1.0789185,0.25286865
1601660167557,282,1.4291992,0.038024902,0.13104248
1601660167558,283,1.1867676,-0.45367432,-0.09283447
1601660167560,284,-1.6254883,-1.9998169,0.27557373
1601660167562,285,-2.0,-1.9998169,0.19866943
1601660167563,286,-1.270752,0.26800537,-0.614563
1601660167565,287,-1.4033203,1.3527222,-0.82818604
1601660170089,288,-1.3818359,-0.028625488,-0.19927979
1601660170092,289,-2.0,-1.9998169,0.33880615
1601660170096,290,-0.44335938,-1.9204712,0.113220215
1601660170097,291,1.2456055,-0.2937622,-0.0037231445
1601660170099,292,1.7155762,-0.31011963,-0.055725098
1601660170105,293,-0.2770996,-1.9998169,0.1515503
1601660170106,294,-2.0,-1.9998169,0.49554443
1601660170108,295,-1.1459961,-0.6421509,-0.20684814
1601660170113,296,-1.4899902,1.1183472,-0.8965454
1601660170116,297,-1.4016113,0.66619873,-0.4817505
1601660170118,298,-2.0,-1.9998169,0.34613037
1601660170121,299,-1.3395996,-1.9998169,0.5219116
1601660170126,300,0.6008301,-0.9092407,0.14154053
1601660170129,301,1.6086426,0.07147217,0.0993042
1601660170139,302,0.7878418,-0.81036377,0.0138549805
1601660170143,303,-2.0,-1.9998169,0.3554077
1601660170144,304,-1.9035645,-1.7451782,0.117370605
1601660170145,305,-1.1035156,0.637146,-0.90093994
1601660170147,306,-1.3928223,0.71990967,-0.82818604
1601660170149,307,-1.4064941,-0.8953247,-0.005432129
1601660170152,308,-1.7463379,-1.9998169,0.7423706
1601660170154,309,0.4399414,-1.4524536,0.1552124
1601660170155,310,1.1230469,0.074157715,-0.17584229
1601660170156,311,1.1904297,-0.08502197,-0.036193848
1601660170158,312,-0.34204102,-1.9998169,0.28094482
1601660170161,313,-2.0,-1.9998169,0.15325928
1601660170162,314,-1.208252,-0.1453247,-0.29986572
1601660170163,315,-1.456543,1.4262085,-1.0230103
1601660170164,316,-1.3166504,0.49700928,-0.3579712
1601660170166,317,-2.0,-1.9998169,0.4472046
1601660170167,318,-0.23754883,-1.9998169,0.016296387
1601660170168,319,1.3356934,-0.09918213,-0.17462158
1601660172671,320,1.2365723,-0.062316895,-0.23492432
1601660172673,321,-0.46801758,-1.9998169,0.062438965
1601660172674,322,-2.0,-1.9998169,0.2970581
1601660172675,323,-1.0227051,-0.26348877,-0.21002197
1601660172678,324,-1.2536621,1.1044312,-0.65582275
1601660172679,325,-1.2758789,0.63739014,-0.38116455
1601660172681,326,-2.0,-1.9998169,0.2633667
1601660172683,327,-1.1413574,-1.9998169,0.16693115
1601660172685,328,0.5957031,-0.71051025,0.031188965
1601660172685,329,1.2827148,0.08441162,0.18963623
1601660172686,330,0.59936523,-0.9182739,0.13226318
1601660172687,331,-1.8278809,-1.9998169,0.19403076
1601660172689,332,-1.5947266,-1.6589966,-0.2666626
1601660172690,333,-1.1357422,0.6864624,-0.68829346
1601660172697,334,-1.2434082,1.1696167,-0.6921997
1601660172697,335,-1.6179199,-0.8218384,-0.13165283
1601660172697,336,-2.0,-1.9998169,0.38616943
1601660172704,337,-0.0036621094,-1.3401489,0.27557373
1601660172705,338,1.3979492,0.05218506,0.17938232
1601660172706,339,1.3461914,-0.7608032,-0.07867432
1601660172709,340,-1.5166016,-1.9998169,0.2909546
1601660172710,341,-2.0,-1.9998169,-0.011779785
1601660172711,342,-1.0981445,0.30706787,-0.47247314
1601660172712,343,-1.0412598,1.0282593,-0.73223877
1601660172715,344,-1.4191895,-0.24908447,-0.09552002
1601660172718,345,-2.0,-1.9998169,0.70184326
1601660172719,346,-0.053955078,-1.9998169,0.39666748
1601660172720,347,0.92871094,-0.2937622,0.15740967
1601660172723,348,1.3779297,-0.12872314,0.059020996
1601660172725,349,-0.64086914,-1.9998169,0.322937
1601660172728,350,-2.0,-1.9998169,0.27825928
1601660172730,351,-1.2167969,-0.1873169,-0.32525635
1601660175450,352,-1.3105469,1.008728,-0.8128052
1601660175452,353,-1.3342285,0.21356201,-0.26348877
1601660175454,354,-2.0,-1.9998169,0.70892334
1601660175456,355,-0.22485352,-1.9998169,0.42352295
1601660175459,356,0.77001953,-0.34747314,0.13885498
1601660175461,357,1.2514648,-0.006164551,-0.013000488
1601660175462,358,0.15698242,-1.7903442,0.31292725
1601660175465,359,-2.0,-1.9998169,0.7081909
1601660175469,360,-1.2438965,-0.8843384,-0.05645752
1601660175471,361,-1.0505371,0.8668823,-1.0291138
1601660175472,362,-1.2619629,0.83929443,-0.69000244
1601660175475,363,-2.0,-1.9998169,0.32928467
1601660175477,364,-0.77001953,-1.9998169,0.48944092
1601660175482,365,0.6113281,-0.52423096,0.23162842
1601660175485,366,1.3574219,-0.042053223,-0.018127441
1601660175488,367,0.42944336,-1.4116821,0.33587646
1601660175490,368,-1.994873,-1.9998169,1.1786499
1601660175492,369,-1.3349609,-1.0786743,-0.010070801
1601660175495,370,-1.157959,0.7453003,-0.6956177
1601660175497,371,-1.298584,0.47650146,-0.6055298
1601660175498,372,-1.3847656,-0.9837036,0.07977295
1601660175499,373,-1.8664551,-1.9998169,0.81121826
1601660175502,374,0.33251953,-1.3169556,0.34417725
1601660175508,375,1.3603516,0.27191162,-0.0134887695
1601660175510,376,0.9165039,-0.7127075,-0.012023926
1601660175510,377,-0.65625,-1.9998169,0.6930542
1601660175510,378,-1.6098633,-1.9998169,0.47625732
1601660175511,379,-1.1008301,0.49505615,-0.6206665
1601660175511,380,-1.4128418,0.6972046,-0.8909302
1601660175513,381,-1.6875,-0.31500244,-0.1795044
1601660175515,382,-2.0,-1.9998169,0.6190796
1601660175516,383,0.10473633,-1.909729,0.309021
1601660177837,384,1.2197266,-0.03717041,0.2929077
1601660177837,385,1.2253418,-0.10748291,0.10809326
1601660177839,386,-0.5734863,-1.9998169,0.26483154
1601660177840,387,-2.0,-1.9998169,0.2514038
1601660177841,388,-1.2160645,0.11077881,-0.42730713
1601660177842,389,-1.5124512,1.2990112,-1.1082153
1601660177843,390,-1.5273438,0.042419434,-0.3555298
1601660177845,391,-2.0,-1.9998169,0.60272217
1601660177847,392,-0.35180664,-1.9998169,0.28631592
1601660177848,393,0.8881836,-0.44708252,-0.016906738
1601660177849,394,1.5083008,-0.14068604,-0.124816895
1601660177852,395,0.2097168,-1.6763306,0.020690918
1601660177855,396,-2.0,-1.9998169,0.34295654
1601660177859,397,-1.4162598,-0.8250122,-0.0115356445
1601660177865,398,-1.1784668,1.0836792,-0.80963135
1601660177867,399,-1.4714355,0.7262573,-0.5606079
1601660177869,400,-2.0,-1.9751587,0.168396
1601660177870,401,-1.8161621,-1.9998169,0.21942139
1601660177871,402,0.5366211,-1.3167114,0.066833496
1601660177871,403,1.4277344,-0.31158447,0.25115967
1601660177874,404,0.6154785,-0.9116821,0.22406006
1601660177876,405,-1.7116699,-1.9998169,0.28729248
1601660177877,406,-2.0,-1.8894653,-0.18878174
1601660177877,407,-1.2573242,0.91204834,-0.6824341
1601660177879,408,-1.4382324,1.0143433,-0.5713501
1601660177881,409,-2.0,-1.1399536,0.04949951
1601660177881,410,-1.9790039,-1.9998169,0.4611206
1601660177882,411,0.12963867,-1.5874634,0.2243042
1601660177883,412,1.463623,-0.30621338,0.15008545
1601660177884,413,1.0158691,-0.57110596,0.03729248
1601660177884,414,-1.6247559,-1.9998169,0.42132568
1601660177886,415,-2.0,-1.9998169,0.13543701
1601660181219,416,-1.2321777,0.55145264,-0.79766846
1601660181220,417,-1.4694824,1.0785522,-1.0667114
1601660181222,418,-1.6398926,-0.5911255,-0.08746338
1601660181224,419,-2.0,-1.9998169,0.5446167
1601660181230,420,0.14819336,-1.7190552,0.19158936
1601660181243,421,1.2185059,-0.11236572,-0.019104004
1601660181244,422,1.2839355,-0.23980713,-0.18170166
1601660181246,423,-0.34765625,-1.9998169,0.06561279
1601660181252,424,-2.0,-1.9998169,0.19134521
1601660181255,425,-1.262207,0.038269043,-0.31402588
1601660181256,426,-1.3066406,1.2640991,-0.7295532
1601660181260,427,-1.4360352,0.31170654,-0.3242798
1601660181266,428,-2.0,-1.9998169,0.21673584
1601660181268,429,-0.56030273,-1.9998169,0.042663574
1601660181270,430,1.0405273,-0.5540161,0.078308105
1601660181274,431,1.3498535,-0.08770752,0.031921387
1601660181282,432,0.26611328,-1.8274536,0.105895996
1601660181285,433,-2.0,-1.9998169,0.3751831
1601660181290,434,-1.2692871,-0.456604,-0.30767822
1601660181294,435,-1.2299805,1.1034546,-0.95269775
1601660181297,436,-1.2392578,0.6325073,-0.58966064
1601660181301,437,-2.0,-1.9998169,0.08538818
1601660181303,438,-1.486084,-1.9998169,0.387146
1601660181306,439,0.48364258,-1.0105591,0.23626709
1601660181310,440,1.4953613,0.09173584,-7.9345703E-4
1601660181314,441,0.8039551,-0.57696533,0.024108887
1601660181317,442,-2.0,-1.9998169,1.5194702
1601660181326,443,-1.8493652,-1.5903931,0.49505615
1601660181329,444,-1.1274414,0.5289917,-1.0288696
1601660181334,445,-1.3544922,0.6898804,-1.06427
1601660181339,446,-1.6748047,-0.7822876,0.15618896
1601660181342,447,-2.0,-1.9998169,1.2645874
1601660183801,448,0.28686523,-1.2439575,0.54901123
1601660183804,449,1.1010742,0.121032715,0.07928467
1601660183805,450,0.9194336,-0.17315674,-0.07647705
1601660183812,451,-1.286377,-1.9998169,0.72821045
1601660183815,452,-2.0,-1.9998169,0.56121826
1601660183820,453,-1.1247559,0.2675171,-0.38970947
1601660183821,454,-1.4470215,1.0997925,-0.95196533
1601660183825,455,-1.472168,0.21282959,-0.5088501
1601660183827,456,-2.0,-1.9998169,0.40985107
1601660183832,457,-0.15527344,-1.9998169,0.46795654
1601660183834,458,0.93115234,-0.11871338,0.2086792
1601660183837,459,1.3227539,0.053894043,0.013366699
1601660183838,460,-0.043701172,-1.9998169,0.2970581
1601660183841,461,-2.0,-1.9998169,0.3805542
1601660183845,462,-1.1567383,-0.1831665,-0.39996338
1601660183848,463,-1.3122559,1.1500854,-1.2805786
1601660183851,464,-1.2734375,0.5223999,-0.6333618
1601660183854,465,-2.0,-1.9998169,0.30511475
1601660183857,466,-0.9379883,-1.9998169,0.3373413
1601660183861,467,0.46557617,-0.5342407,-0.06060791
1601660183863,468,1.3796387,-6.1035156E-5,-0.3008423
1601660183867,469,0.7434082,-0.97662354,-0.066467285
1601660183869,470,-1.9870605,-1.9998169,0.50701904
1601660183874,471,-1.6679688,-1.7307739,0.08856201
1601660183874,472,-1.1425781,0.36297607,-0.7852173
1601660183876,473,-1.4008789,0.7506714,-0.85723877
1601660183876,474,-1.2163086,-0.7246704,-0.004699707
1601660183877,475,-1.8054199,-1.9998169,0.72576904
1601660183878,476,0.47509766,-1.208313,0.04925537
1601660183879,477,1.3181152,0.30291748,-0.15875244
1601660183881,478,1.1262207,-0.41607666,-0.18414307
1601660183885,479,-1.4223633,-1.9998169,0.28753662
1601660186194,480,-2.0,-1.9998169,0.08319092
1601660186198,481,-1.2658691,0.35687256,-0.63409424
1601660186200,482,-1.3725586,1.3099976,-0.85894775
1601660186203,483,-1.4438477,-0.24884033,-0.23468018
1601660186206,484,-2.0,-1.9998169,0.72454834
1601660186208,485,0.18774414,-1.7488403,0.3949585
1601660186211,486,1.1308594,-0.07086182,0.16082764
1601660186215,487,0.95214844,-0.4512329,-0.06768799
1601660186219,488,-0.71362305,-1.9998169,0.27996826
1601660186220,489,-2.0,-1.9998169,0.33099365
1601660186221,490,-1.5175781,-0.109680176,-0.317688
1601660186226,491,-1.5559082,1.2941284,-1.1599731
1601660186229,492,-1.4897461,-0.08331299,-0.40289307
1601660186234,493,-2.0,-1.9998169,0.701355
1601660186241,494,0.31689453,-1.9998169,0.3624878
1601660186242,495,1.0688477,-0.18341064,0.07489014
1601660186244,496,1.105957,-0.20806885,0.1083374
1601660186250,497,-0.13378906,-1.9998169,0.43426514
1601660186253,498,-2.0,-1.9998169,0.5663452
1601660186257,499,-1.2370605,-0.6428833,-0.15826416
1601660186268,500,-1.5024414,1.0199585,-1.2271118
1601660186273,501,-1.364502,0.5023804,-0.5928345
1601660186275,502,-2.0,-1.9998169,0.69940186
1601660186284,503,-0.07373047,-1.9998169,0.50213623
1601660186287,504,0.87719727,-0.3262329,0.29730225
1601660186290,505,1.2536621,0.020690918,0.046813965
1601660186291,506,0.32885742,-1.8181763,0.13568115
1601660186293,507,-2.0,-1.9998169,0.38226318
1601660186294,508,-1.3647461,-0.895813,-0.14385986
1601660186296,509,-1.0578613,0.9254761,-0.7749634
1601660186297,510,-1.4492188,0.545105,-0.5142212
1601660186298,511,-1.7661133,-1.6565552,0.2062378
1601660188380,512,-1.2248535,-1.9998169,0.6312866
1601660188386,513,0.4951172,-0.9116821,0.18572998
1601660188388,514,1.3781738,0.19573975,-0.09136963
1601660188390,515,0.68603516,-0.9871216,-0.023254395
1601660188392,516,-1.7629395,-1.9998169,0.8493042
1601660188395,517,-1.4719238,-1.630188,0.24163818
1601660188404,518,-1.1320801,0.53289795,-0.8574829
1601660188405,519,-1.4594727,0.7692261,-0.94854736
1601660188408,520,-1.7607422,-0.87579346,-0.0803833
1601660188416,521,-2.0,-1.9998169,0.71307373
1601660188420,522,0.20581055,-1.7346802,0.31829834
1601660188422,523,1.3381348,-0.22564697,0.15545654
1601660188423,524,0.9772949,-0.4500122,0.050720215
1601660188424,525,-0.94018555,-1.9998169,0.49505615
1601660188428,526,-2.0,-1.9998169,0.35565186
1601660188430,527,-1.1630859,-0.08453369,-0.3123169
1601660188435,528,-1.3217773,1.095398,-0.90948486
1601660188436,529,-1.4572754,0.45184326,-0.43951416
1601660188440,530,-2.0,-1.9998169,0.46820068
1601660188442,531,-0.8781738,-1.9998169,0.6744995
1601660188446,532,1.1711426,-0.46929932,0.0680542
1601660188447,533,1.5749512,-0.2546997,-0.2991333
1601660188451,534,-0.6425781,-1.9998169,0.3156128
1601660188455,535,-2.0,-1.9998169,0.62542725
1601660188456,536,-1.3166504,-0.1428833,-0.19732666
1601660188457,537,-1.0493164,1.1151733,-1.0510864
1601660188459,538,-1.3466797,0.48895264,-0.5918579
1601660188463,539,-2.0,-1.9998169,0.3847046
1601660188469,540,-0.8852539,-1.9998169,0.54681396
1601660188470,541,0.6057129,-0.66534424,0.2062378
1601660188471,542,1.3212891,0.08856201,0.06390381
1601660188472,543,0.5847168,-1.09552,0.08270264
1601660191161,544,-2.0,-1.9998169,0.4821167
1601660191164,545,-1.7626953,-1.6755981,-0.07086182
1601660191166,546,-1.4091797,0.96258545,-0.8206177
1601660191171,547,-1.4450684,0.9450073,-0.7666626
1601660191174,548,-1.8100586,-1.385315,0.16864014
1601660191177,549,-1.8259277,-1.9998169,0.78656006
1601660191178,550,0.3166504,-1.131897,0.39227295
1601660191184,551,1.2119141,-0.036193848,0.043151855
1601660191185,552,0.81933594,-0.4710083,0.02508545
1601660191189,553,-1.1699219,-1.9998169,0.6727905
1601660191191,554,-2.0,-1.9998169,0.51483154
1601660191194,555,-1.0756836,0.25701904,-0.40948486
1601660191197,556,-1.2473145,1.1486206,-0.9920044
1601660191199,557,-1.4804688,-0.190979,-0.22296143
1601660191202,558,-2.0,-1.9998169,0.8619995
1601660191204,559,-0.09423828,-1.8557739,0.47332764
1601660191208,560,1.3161621,0.0099487305,0.008972168
1601660191211,561,1.2290039,-0.33551025,-0.21759033
1601660191215,562,-1.5227051,-1.9998169,0.35565186
1601660191217,563,-2.0,-1.9998169,0.11248779
1601660191220,564,-0.9680176,0.18743896,-0.53131104
1601660191221,565,-1.1289062,0.9579468,-1.0559692
1601660191224,566,-1.3242188,0.22235107,-0.2888794
1601660191229,567,-2.0,-1.9998169,0.61639404
1601660191233,568,-1.2822266,-1.9998169,0.62054443
1601660191239,569,0.45361328,-0.7136841,0.053894043
1601660191243,570,1.4187012,-0.062072754,-0.27911377
1601660191247,571,0.40405273,-1.7542114,0.11517334
1601660191252,572,-2.0,-1.9998169,0.57928467
1601660191254,573,-1.4008789,-0.49395752,-0.116760254
1601660191260,574,-1.2353516,1.3973999,-0.9402466
1601660191265,575,-1.5480957,0.3637085,-0.35650635
1601660193744,576,-2.0,-1.9998169,0.5018921
1601660193751,577,-0.76171875,-1.9998169,0.35491943
1601660193754,578,0.6308594,-0.6758423,0.024597168
1601660193755,579,1.421875,-0.18707275,0.031433105
1601660193758,580,0.3408203,-1.3067017,0.19866943
1601660193759,581,-2.0,-1.9998169,0.48406982
1601660193760,582,-1.6538086,-1.109436,-0.026672363
1601660193763,583,-1.2121582,0.8800659,-0.72662354
1601660193764,584,-1.5041504,1.0033569,-0.7564087
1601660193766,585,-2.0,-1.9998169,0.1630249
1601660193767,586,-0.91015625,-1.9998169,0.6132202
1601660193767,587,0.81762695,-0.66656494,0.11859131
1601660193771,588,1.6936035,-0.014709473,-0.20318604
1601660193774,589,-0.21459961,-1.9998169,0.31292725
1601660193777,590,-2.0,-1.9998169,0.6762085
1601660193780,591,-1.4421387,-0.52178955,-0.25006104
1601660193781,592,-1.3737793,1.1923218,-1.2383423
1601660193784,593,-1.7629395,0.49188232,-0.50982666
1601660193785,594,-2.0,-1.9998169,0.5150757
1601660193789,595,-0.6567383,-1.9998169,0.51312256
1601660193789,596,0.7519531,-0.7498169,0.22113037
1601660193790,597,1.4240723,-0.21295166,-0.030822754
1601660193793,598,0.061279297,-1.8313599,0.11566162
1601660193794,599,-2.0,-1.9998169,0.5150757
1601660193794,600,-1.4909668,-0.74102783,-0.0071411133
1601660193795,601,-1.1433105,0.9960327,-0.798645
1601660193796,602,-1.376709,0.78338623,-0.503479
1601660193799,603,-2.0,-1.9609985,0.26556396
1601660193801,604,-1.4411621,-1.9998169,0.69451904
1601660193805,605,0.5517578,-0.87213135,0.1954956
1601660193807,606,1.395752,0.040222168,-0.06402588
1601660193807,607,0.6569824,-0.79278564,0.016052246
1601660196130,608,-2.0,-1.9998169,0.43841553
1601660196132,609,-1.9682617,-1.65802,0.14154053
1601660196137,610,-1.2192383,0.62054443,-0.5874634
1601660196140,611,-1.4785156,1.1027222,-0.83477783
1601660196144,612,-1.7507324,-0.9854126,-0.1375122
1601660196146,613,-2.0,-1.9998169,0.6112671
1601660196146,614,0.33276367,-1.3447876,0.42840576
1601660196150,615,1.6408691,-0.1038208,0.28948975
1601660196154,616,0.63378906,-1.117981,0.11224365
1601660196156,617,-2.0,-1.9998169,0.46551514
1601660196158,618,-1.8342285,-1.4846802,-0.020080566
1601660196159,619,-1.2375488,0.50579834,-0.74957275
1601660196161,620,-1.5146484,0.791687,-0.9981079
1601660196164,621,-1.6115723,-0.59942627,-0.046203613
1601660196166,622,-2.0,-1.9998169,0.763855
1601660196167,623,0.1730957,-1.6419067,0.38372803
1601660196172,624,1.6142578,-0.23321533,-0.047424316
1601660196174,625,1.0358887,-0.7319946,0.061706543
1601660196177,626,-1.0581055,-1.9998169,0.38446045
1601660196179,627,-1.7946777,-1.9998169,-0.24615479
1601660196185,628,-1.1364746,0.031677246,-0.53692627
1601660196188,629,-1.5935059,0.6425171,-0.69195557
1601660196192,630,-1.3745117,0.124694824,-0.3965454
1601660196194,631,-1.9162598,-1.9998169,0.52996826
1601660196197,632,-0.2915039,-1.9998169,0.45013428
1601660196197,633,1.0048828,-0.32989502,0.015563965
1601660196199,634,1.6633301,0.039489746,0.0021362305
1601660196203,635,0.43188477,-1.7368774,0.13275146
1601660196205,636,-2.0,-1.9998169,0.17474365
1601660196206,637,-1.8571777,-1.4258423,-0.3887329
1601660196208,638,-1.6464844,0.9450073,-1.2634888
1601660196209,639,-1.4631348,0.90838623,-0.9421997
1601660198713,640,-2.0,-1.9998169,0.20721436
1601660198718,641,-1.1103516,-1.9998169,0.46307373
1601660198719,642,0.7155762,-1.0147095,0.085632324
1601660198721,643,1.9470215,-0.21905518,-0.117248535
1601660198724,644,0.6208496,-1.4024048,0.02166748
1601660198728,645,-1.6711426,-1.9998169,0.7616577
1601660198733,646,-1.668457,-1.9998169,0.16473389
1601660198736,647,-1.1699219,0.30218506,-0.9624634
1601660198738,648,-1.701416,0.66864014,-1.3154907
1601660198739,649,-1.3566895,-0.58428955,-0.20758057
1601660198742,650,-2.0,-1.9998169,0.619812
1601660198744,651,0.03515625,-1.9998169,0.33758545
1601660198747,652,1.3181152,-0.19342041,0.1359253
1601660198749,653,1.2097168,-0.38311768,0.12005615
1601660198751,654,-0.17333984,-1.9998169,0.41033936
1601660198755,655,-1.8300781,-1.9998169,0.48944092
1601660198756,656,-1.2946777,-0.39068604,-0.24102783
1601660198757,657,-1.5803223,1.0045776,-1.3276978
1601660198758,658,-1.6164551,-0.22540283,-0.45562744
1601660198760,659,-1.8010254,-1.9998169,0.64764404
1601660198763,660,-0.09643555,-1.9998169,0.69403076
1601660198765,661,1.1242676,-0.15020752,0.16009521
1601660198767,662,1.3210449,-0.25177002,-0.070129395
1601660198769,663,0.12988281,-1.9998169,0.22137451
1601660198773,664,-2.0,-1.9998169,0.48162842
1601660198774,665,-1.3762207,-0.5281372,-0.2913208
1601660198777,666,-1.6816406,1.1698608,-1.3599243
1601660198779,667,-1.7966309,-0.1963501,-0.39996338
1601660198788,668,-2.0,-1.9998169,0.791687
1601660198793,669,0.11010742,-1.9998169,0.51678467
1601660198794,670,0.9448242,-0.050354004,0.054138184
1601660198796,671,1.3256836,-0.054748535,0.053894043
1601660201310,672,0.3544922,-1.9998169,0.36932373
1601660201313,673,-1.953125,-1.9998169,0.53582764
1601660201320,674,-1.1999512,-0.8726196,-0.12896729
1601660201323,675,-1.5527344,1.0123901,-1.4212036
1601660201326,676,-1.4763184,0.31854248,-0.70147705
1601660201330,677,-2.0,-1.9998169,0.3776245
1601660201331,678,-0.55688477,-1.9998169,0.43548584
1601660201332,679,0.6333008,-0.83013916,0.23382568
1601660201337,680,1.4985352,-0.03692627,0.08734131
1601660201338,681,0.52368164,-1.440979,0.12322998
1601660201342,682,-1.7902832,-1.9998169,0.40985107
1601660201345,683,-1.3093262,-1.336731,-0.18365479
1601660201347,684,-1.3605957,0.6630249,-1.0564575
1601660201349,685,-1.6391602,0.8295288,-0.5186157
1601660201351,686,-1.4902344,-1.8015747,0.31903076
1601660201354,687,-1.3933105,-1.9998169,0.6732788
1601660201358,688,0.27075195,-1.2756958,0.1762085
1601660201362,689,1.3041992,-0.159729,-0.053771973
1601660201362,690,1.3227539,-0.69244385,0.04144287
1601660201366,691,-1.4455566,-1.9998169,0.89886475
1601660201368,692,-1.7319336,-1.9998169,0.5282593
1601660201369,693,-0.9182129,0.014831543,-0.41558838
1601660201374,694,-1.784668,0.8961792,-0.93170166
1601660201376,695,-1.5456543,-0.56378174,-0.14971924
1601660201378,696,-2.0,-1.9998169,0.6586304
1601660201380,697,0.18408203,-1.7012329,0.47747803
1601660201382,698,1.1608887,0.03729248,0.14300537
1601660201384,699,1.2341309,-0.23077393,-0.049865723
1601660201385,700,-0.3322754,-1.9998169,0.6227417
1601660201386,701,-1.6547852,-1.9998169,0.7453003
1601660201389,702,-1.3210449,-0.40875244,-0.505188
1601660201389,703,-1.6550293,0.7758179,-1.4055786
1601660203881,704,-1.3044434,0.038024902,-0.50738525
1601660203885,705,-2.0,-1.9998169,1.0731812
1601660203888,706,-0.43603516,-1.9998169,0.78411865
1601660203894,707,0.7453613,-0.5220337,0.47235107
1601660203895,708,1.3991699,-0.012512207,0.37615967
1601660203900,709,0.58935547,-1.5505981,0.39154053
1601660203904,710,-1.3051758,-1.9998169,0.80511475
1601660203906,711,-1.2121582,-1.5518188,-0.035461426
1601660203910,712,-1.2839355,0.65423584,-1.0645142
1601660203913,713,-1.8566895,0.41156006,-0.70440674
1601660203917,714,-1.7915039,-1.696106,0.23797607
1601660203918,715,-1.4470215,-1.9998169,0.67889404
1601660203921,716,0.24804688,-1.529602,0.24066162
1601660203924,717,1.3366699,-0.061828613,0.13934326
1601660203928,718,1.1884766,-0.4973755,0.20843506
1601660203930,719,-1.1333008,-1.9998169,0.8600464
1601660203933,720,-1.8081055,-1.9998169,0.45599365
1601660203936,721,-1.1086426,0.14447021,-0.7786255
1601660203938,722,-1.4885254,0.71429443,-1.1426392
1601660203940,723,-1.2966309,-0.35845947,-0.02130127
1601660203942,724,-1.7563477,-1.9998169,0.8529663
1601660203946,725,-0.10522461,-1.9998169,0.56903076
1601660203948,726,0.9770508,-0.36016846,0.3859253
1601660203952,727,1.6411133,-0.07525635,0.031188965
1601660203954,728,-0.4777832,-1.9998169,0.17523193
1601660203958,729,-2.0,-1.9998169,0.2218628
1601660203959,730,-0.9848633,-0.17633057,-0.37213135
1601660203960,731,-1.0012207,0.9125366,-0.6104126
1601660203961,732,-1.1486816,0.12738037,-0.1404419
1601660203963,733,-1.8273926,-1.9998169,0.40594482
1601660203967,734,-0.8095703,-1.9998169,0.52679443
1601660203968,735,0.45043945,-0.8023071,0.34710693
1601660206464,736,1.5380859,-0.15240479,0.2843628
1601660206466,737,0.7060547,-1.1099243,0.2518921
1601660206473,738,-2.0,-1.9998169,0.8016968
1601660206480,739,-1.6574707,-1.3137817,0.08734131
1601660206482,740,-1.1936035,0.87542725,-0.7788696
1601660206485,741,-1.2780762,0.8707886,-0.6621704
1601660206488,742,-2.0,-1.7319946,0.2033081
1601660206492,743,-1.479248,-1.9998169,0.5697632
1601660206494,744,0.38671875,-1.1604614,0.20184326
1601660206496,745,1.439209,-0.059143066,-0.0178833
1601660206501,746,1.0405273,-0.41412354,-0.020080566
1601660206504,747,-1.2817383,-1.9998169,0.62323
1601660206507,748,-1.8244629,-1.9998169,0.30047607
1601660206509,749,-1.2407227,0.4389038,-0.6633911
1601660206513,750,-1.5292969,1.102478,-0.8599243
1601660206518,751,-2.0,-1.2749634,0.019958496
1601660206521,752,-1.9851074,-1.9998169,0.85687256
1601660206524,753,0.2956543,-1.2490845,0.28607178
1601660206527,754,1.105957,-0.16729736,0.06512451
1601660206530,755,1.2878418,-0.43634033,-0.006652832
1601660206536,756,-0.79003906,-1.9998169,0.34954834
1601660206540,757,-2.0,-1.9998169,0.35687256
1601660206542,758,-1.1484375,-0.1651001,-0.44439697
1601660206544,759,-1.5708008,1.1693726,-1.2942505
1601660206544,760,-1.5002441,0.0602417,-0.3303833
1601660206548,761,-2.0,-1.9998169,0.93304443
1601660206560,762,-0.2421875,-1.9998169,0.5114136
1601660206561,763,1.1469727,-0.32281494,-0.051818848
1601660206562,764,1.4633789,-0.5215454,-0.16290283
1601660206563,765,-0.27514648,-1.9998169,0.637146
1601660206564,766,-2.0,-1.9998169,1.0639038
1601660206565,767,-1.3110352,-0.522522,-0.29644775
1601660209245,768,-1.4643555,0.9320679,-1.4802856
1601660209248,769,-1.4606934,0.3060913,-0.6555786
1601660209249,770,-2.0,-1.9998169,0.8053589
1601660209253,771,-0.7807617,-1.9998169,0.7626343
1601660209257,772,0.8881836,-0.5310669,0.15228271
1601660209261,773,1.5776367,-0.0647583,-0.23516846
1601660209266,774,0.55810547,-1.7402954,0.10272217
1601660209267,775,-1.9555664,-1.9998169,0.85028076
1601660209270,776,-1.5075684,-1.1260376,0.074645996
1601660209272,777,-1.5498047,1.0690308,-1.414856
1601660209275,778,-1.6196289,0.39178467,-0.7608032
1601660209279,779,-2.0,-1.9998169,0.26654053
1601660209280,780,-1.0576172,-1.9998169,0.5927124
1601660209282,781,0.73657227,-0.9138794,0.25335693
1601660209286,782,1.8747559,-0.05596924,-0.05596924
1601660209288,783,0.48266602,-1.6506958,0.25360107
1601660209292,784,-2.0,-1.9998169,0.9303589
1601660209296,785,-1.4091797,-1.1965942,-0.08355713
1601660209302,786,-1.236084,0.84198,-1.3469849
1601660209303,787,-1.5749512,0.43963623,-0.83477783
1601660209305,788,-2.0,-1.9998169,0.355896
1601660209308,789,-1.3486328,-1.9998169,0.65667725
1601660209312,790,0.3527832,-1.0999146,0.16400146
1601660209316,791,1.3305664,-0.58013916,-0.0115356445
1601660209317,792,0.7468262,-1.2669067,0.08709717
1601660209318,793,-1.7885742,-1.9998169,0.5595093
1601660209325,794,-1.9428711,-1.9998169,0.047058105
1601660209328,795,-1.3100586,0.6256714,-1.1624146
1601660209331,796,-1.5993652,1.0714722,-1.1450806
1601660209334,797,-2.0,-1.1489868,0.042175293
1601660209338,798,-2.0,-1.9998169,0.8890991
1601660209344,799,0.21484375,-1.5327759,0.4406128
1601660212027,800,1.6242676,-0.1404419,0.08026123
1601660212031,801,1.0405273,-0.70440674,-7.9345703E-4
1601660212037,802,-1.8493652,-1.9998169,1.0106812
1601660212040,803,-2.0,-1.9998169,0.4393921
1601660212043,804,-1.2810059,0.5795288,-1.0247192
1601660212047,805,-1.5717773,0.9369507,-1.4368286
1601660212051,806,-1.9338379,-0.93878174,0.035583496
1601660212052,807,-2.0,-1.9998169,0.8973999
1601660212087,808,0.2319336,-1.3987427,0.4381714
1601660212089,809,1.3430176,-0.09503174,-0.030334473
1601660212090,810,1.1394043,-0.49371338,-0.06890869
1601660212093,811,-0.99902344,-1.9998169,0.73480225
1601660212093,812,-2.0,-1.9998169,0.6137085
1601660212094,813,-1.1621094,0.049743652,-0.60772705
1601660212095,814,-1.597168,0.95526123,-1.3530884
1601660212097,815,-1.4328613,-0.10333252,-0.33770752
1601660212103,816,-2.0,-1.9998169,0.06976318
1601660212105,817,-0.12841797,-1.9998169,-0.27398682
1601660212109,818,1.1083984,-0.24005127,0.05267334
1601660212109,819,1.4750977,-0.28814697,-0.04937744
1601660212111,820,0.13256836,-1.9998169,-0.30133057
1601660212113,821,-1.9338379,-1.9998169,-0.300354
1601660212115,822,-1.2438965,-0.1951294,-0.5371704
1601660212118,823,-1.6877441,1.3168335,-1.232727
1601660212119,824,-1.815918,-0.35040283,-0.35772705
1601660212128,825,-1.8200684,-1.9998169,0.52142334
1601660212131,826,0.15942383,-1.9998169,0.35125732
1601660212132,827,1.0,-0.09307861,0.051940918
1601660212133,828,1.184082,-0.25958252,-0.07501221
1601660212134,829,0.36450195,-1.9998169,0.1593628
1601660212136,830,-1.411377,-1.9998169,0.15032959
1601660212137,831,-1.1877441,-0.53497314,-0.58428955
1601660214217,832,-1.9506836,1.0060425,-1.2979126
1601660214220,833,-1.7744141,-0.12261963,-0.39971924
1601660214221,834,-2.0,-1.9998169,0.56463623
1601660214228,835,-0.29541016,-1.9998169,0.47210693
1601660214231,836,1.0629883,-0.49713135,0.039245605
1601660214233,837,1.4645996,-0.082092285,-0.05279541
1601660214235,838,0.33520508,-1.7192993,0.14129639
1601660214241,839,-2.0,-1.9998169,0.11053467
1601660214245,840,-1.5493164,-0.59259033,-0.39605713
1601660214248,841,-1.3662109,1.4142456,-1.2869263
1601660214251,842,-1.6726074,0.5866089,-0.65411377
1601660214253,843,-2.0,-1.9998169,0.5072632
1601660214257,844,-0.6098633,-1.9998169,0.5133667
1601660214259,845,0.96533203,-0.76519775,0.15765381
1601660214263,846,1.4645996,-0.20733643,-0.0025024414
1601660214265,847,0.47851562,-1.6309204,0.07977295
1601660214269,848,-2.0,-1.9998169,0.38494873
1601660214271,849,-1.3564453,-0.9505005,-0.12554932
1601660214273,850,-1.2792969,1.0636597,-1.187561
1601660214277,851,-1.6369629,0.5597534,-0.8086548
1601660214279,852,-2.0,-1.9998169,0.26898193
1601660214281,853,-0.9562988,-1.9998169,0.52386475
1601660214284,854,0.95825195,-0.7114868,0.074401855
1601660214287,855,1.9997559,-0.109191895,0.21453857
1601660214289,856,0.09057617,-1.9998169,0.42547607
1601660214289,857,-2.0,-1.9998169,0.63323975
1601660214291,858,-1.357666,-0.85943604,-0.2703247
1601660214291,859,-1.1323242,0.99749756,-1.3821411
1601660214293,860,-1.484375,0.36712646,-0.8838501
1601660214294,861,-1.9604492,-1.9998169,0.22601318
1601660214295,862,-1.0256348,-1.9998169,0.60687256
1601660214296,863,0.7980957,-0.64923096,0.31414795
1601660216799,864,1.4914551,0.04534912,0.1395874
1601660216805,865,0.7902832,-1.2398071,0.16619873
1601660216810,866,-1.9763184,-1.9998169,0.4706421
1601660216811,867,-1.4807129,-1.2700806,-0.05621338
1601660216814,868,-1.144043,0.6520386,-1.0859985
1601660216818,869,-1.5148926,0.5548706,-0.92803955
1601660216820,870,-1.7768555,-1.4334106,0.19354248
1601660216823,871,-1.3666992,-1.9998169,0.8756714
1601660216825,872,0.6052246,-1.2380981,0.43597412
1601660216828,873,1.5339355,-0.14508057,0.27069092
1601660216831,874,0.84765625,-0.8933716,0.0927124
1601660216833,875,-1.6577148,-1.9998169,1.8305054
1601660216835,876,-1.7932129,-1.9636841,0.85198975
1601660216837,877,-1.1635742,0.3222046,-0.894104
1601660216840,878,-1.5966797,0.44891357,-1.1560669
1601660216841,879,-1.4169922,-1.1143188,-0.08135986
1601660216847,880,-1.2255859,-1.9998169,0.52752686
1601660216850,881,0.6035156,-1.4939575,0.20062256
1601660216853,882,1.6013184,0.059753418,0.017028809
1601660216857,883,1.251709,-0.4907837,-6.1035156E-5
1601660216860,884,-1.2731934,-1.9998169,0.71624756
1601660216863,885,-1.7780762,-1.9998169,0.2723999
1601660216865,886,-1.0048828,0.7091675,-0.96417236
1601660216867,887,-1.7094727,1.0565796,-1.3738403
1601660216870,888,-2.0,-1.567688,0.059509277
1601660216871,889,-1.8395996,-1.9998169,0.67523193
1601660216875,890,0.38623047,-1.2070923,0.20697021
1601660216877,891,1.453125,-0.15240479,-0.11212158
1601660216879,892,0.9748535,-0.8401489,0.0099487305
1601660216881,893,-0.9802246,-1.9998169,0.4821167
1601660216883,894,-1.6098633,-1.9998169,0.26068115
1601660216885,895,-0.9279785,0.70892334,-0.6572876
1601660219579,896,-1.3232422,0.89471436,-0.9060669
1601660219582,897,-2.0,-1.0894165,-0.12872314
1601660219585,898,-2.0,-1.9998169,0.5477905
1601660219587,899,0.2668457,-1.1026001,0.4088745
1601660219592,900,1.5224609,-0.042541504,-0.08331299
1601660219599,901,1.145752,-0.62506104,-0.07623291
1601660219604,902,-1.0766602,-1.9998169,0.67474365
1601660219606,903,-2.0,-1.9998169,0.32073975
1601660219608,904,-1.3374023,0.3192749,-0.92633057
1601660219612,905,-1.7773438,0.88446045,-1.3223267
1601660219613,906,-1.7023926,-0.59942627,-0.055236816
1601660219620,907,-2.0,-1.9998169,0.9472046
1601660219622,908,0.40112305,-1.5999146,0.35150146
1601660219625,909,1.7114258,-0.12408447,-0.13458252
1601660219625,910,1.1806641,-0.54107666,0.19622803
1601660219626,911,-1.0266113,-1.9998169,0.8998413
1601660219630,912,-1.9865723,-1.9998169,0.45916748
1601660219633,913,-1.1987305,0.46722412,-1.013977
1601660219635,914,-1.833252,0.9581909,-1.50177
1601660219638,915,-2.0,-0.51275635,-0.20489502
1601660219640,916,-2.0,-1.9998169,0.87127686
1601660219644,917,0.17529297,-1.7109985,0.3756714
1601660219645,918,1.5842285,-0.2559204,-0.3340454
1601660219646,919,1.5947266,-0.55010986,-0.08013916
1601660219648,920,-0.579834,-1.9998169,0.668396
1601660219650,921,-2.0,-1.9998169,0.6305542
1601660219653,922,-1.2629395,0.11444092,-0.90875244
1601660219654,923,-1.6652832,0.71868896,-1.5344849
1601660219657,924,-1.4609375,-0.042541504,-0.43023682
1601660219661,925,-2.0,-1.9998169,0.6637573
1601660219663,926,0.0546875,-1.9998169,0.5368042
1601660219664,927,1.3637695,-0.09576416,0.22235107
1601660221962,928,1.5090332,-0.54473877,0.14349365
1601660221965,929,-0.19165039,-1.9998169,0.8588257
1601660221967,930,-1.9047852,-1.9998169,0.8234253
1601660221976,931,-1.2531738,0.007507324,-0.69854736
1601660221980,932,-1.9135742,0.91522217,-1.46344
1601660221986,933,-1.8408203,-0.4151001,-0.25933838
1601660221991,934,-2.0,-1.9998169,0.7055054
1601660221998,935,-0.078125,-1.9998169,0.35980225
1601660222000,936,1.2600098,-0.5784302,0.26727295
1601660222022,937,1.3210449,-0.4890747,0.19744873
1601660222026,938,-0.21435547,-1.9998169,0.40570068
1601660222031,939,-2.0,-1.9998169,0.31829834
1601660222040,940,-0.98950195,-0.023498535,-0.5767212
1601660222042,941,-1.5610352,1.0758667,-1.4265747
1601660222048,942,-1.6520996,0.085632324,-0.46417236
1601660222050,943,-2.0,-1.9998169,0.26776123
1601660222052,944,-1.2751465,-1.9998169,0.2994995
1601660222053,945,0.64624023,-0.9151001,0.03363037
1601660222055,946,1.84375,-0.5071411,-0.21636963
1601660222057,947,0.33374023,-1.9998169,0.1473999
1601660222060,948,-2.0,-1.9998169,0.5026245
1601660222064,949,-1.644043,-0.5281372,-0.29766846
1601660222067,950,-1.5966797,1.13031,-1.267395
1601660222071,951,-1.4672852,0.607605,-0.5835571
1601660222079,952,-1.994873,-1.9998169,0.16082764
1601660222079,953,-1.3310547,-1.9998169,0.28607178
1601660222087,954,0.73583984,-0.8792114,0.2387085
1601660222089,955,1.5864258,-0.35113525,0.24920654
1601660222094,956,0.4802246,-1.8552856,0.4694214
1601660222099,957,-2.0,-1.9998169,0.8925171
1601660222109,958,-1.5004883,-0.87945557,-0.23175049
1601660222116,959,-1.6970215,1.2216187,-1.5593872
1601660224549,960,-1.9489746,0.44476318,-0.73223877
1601660224553,961,-2.0,-1.9998169,-0.17852783
1601660224554,962,-0.91503906,-1.9998169,-0.09844971
1601660224556,963,0.83984375,-0.72369385,0.13494873
1601660224559,964,1.8361816,-0.19659424,0.039489746
1601660224561,965,0.48583984,-1.6831665,-0.007873535
1601660224563,966,-2.0,-1.9998169,-0.20465088
1601660224565,967,-1.7038574,-0.9951782,-0.41680908
1601660224567,968,-1.2893066,1.2767944,-1.0877075
1601660224569,969,-1.4787598,0.76190186,-0.74053955
1601660224574,970,-2.0,-1.9998169,0.2296753
1601660224574,971,-1.1726074,-1.9998169,0.42352295
1601660224577,972,0.8005371,-0.8267212,0.19207764
1601660224578,973,1.6362305,-0.2756958,-0.019104004
1601660224581,974,0.4621582,-0.94122314,0.5805054
1601660224584,975,-2.0,-1.9998169,1.999939
1601660224585,976,-1.6843262,-1.1934204,0.5392456
1601660224588,977,-1.4208984,0.7926636,-1.6785278
1601660224591,978,-1.6391602,0.50531006,-1.1931763
1601660224593,979,-2.0,-1.9998169,0.45916748
1601660224596,980,-1.4182129,-1.9998169,0.96087646
1601660224600,981,0.6843262,-0.690979,0.40570068
1601660224601,982,1.833252,-0.2876587,0.21234131
1601660224605,983,0.47509766,-1.7329712,0.3534546
1601660224606,984,-2.0,-1.9998169,1.0018921
1601660224608,985,-1.8125,-1.0967407,-0.17828369
1601660224610,986,-1.4169922,1.2594604,-1.7988892
1601660224613,987,-1.6809082,0.46844482,-1.0020142
1601660224614,988,-2.0,-1.9998169,1.072937
1601660224617,989,-0.44555664,-1.9998169,0.93743896
1601660224617,990,0.9675293,-0.5039673,0.3012085
1601660224620,991,1.5559082,-0.057434082,0.105163574
1601660227136,992,0.3798828,-1.8630981,0.416687
1601660227138,993,-2.0,-1.9998169,0.42230225
1601660227141,994,-1.2426758,-0.17218018,-0.62164307
1601660227142,995,-1.0095215,1.3104858,-1.2715454
1601660227148,996,-1.4914551,-0.039855957,-0.50860596
1601660227162,997,-2.0,-1.9998169,0.36883545
1601660227167,998,-0.32177734,-1.9998169,0.3751831
1601660227178,999,1.090332,-0.32305908,0.20306396
1601660227180,1000,1.5786133,-0.16265869,0.09173584
1601660227182,1001,-0.04296875,-1.9998169,0.2909546
1601660227184,1002,-2.0,-1.9998169,0.3912964
1601660227185,1003,-1.4587402,-0.21734619,-0.35186768
1601660227187,1004,-1.3989258,1.3659058,-0.9495239
1601660227189,1005,-1.6801758,0.43133545,-0.4697876
1601660227192,1006,-2.0,-1.9998169,0.48968506
1601660227194,1007,-0.5473633,-1.9998169,0.45599365
1601660227196,1008,0.939209,-0.4685669,0.11517334
1601660227200,1009,1.4899902,-0.14093018,-0.008850098
1601660227201,1010,0.53393555,-1.7608032,0.36297607
1601660227202,1011,-2.0,-1.9998169,0.89642334
1601660227204,1012,-1.3425293,-0.36724854,-0.30670166
1601660227205,1013,-1.5107422,1.4430542,-1.3526001
1601660227206,1014,-1.5095215,0.21380615,-0.40875244
1601660227208,1015,-2.0,-1.9998169,0.7531128
1601660227211,1016,-0.66430664,-1.9998169,0.68499756
1601660227217,1017,0.8630371,-0.5076294,0.31341553
1601660227221,1018,1.2783203,-0.2600708,0.11248779
1601660227224,1019,0.072021484,-1.9417114,0.37786865
1601660227226,1020,-2.0,-1.9998169,0.80218506
1601660227228,1021,-1.8476562,-0.79400635,-0.3267212
1601660227229,1022,-1.6826172,1.5307007,-1.5476685
1601660227231,1023,-1.6938477,0.6268921,-0.65460205
1601660229720,1024,-2.0,-1.9998169,0.72943115
1601660229725,1025,-1.5270996,-1.9998169,0.7103882
1601660229728,1026,0.4868164,-0.84625244,0.24456787
1601660229730,1027,1.6677246,-0.20343018,0.109313965
1601660229733,1028,0.52368164,-1.3357544,0.3727417
1601660229737,1029,-2.0,-1.9998169,1.1264038
1601660229740,1030,-1.9516602,-1.2778931,0.1149292
1601660229741,1031,-1.3120117,0.9213257,-1.3821411
1601660229745,1032,-1.5727539,0.8119507,-1.0332642
1601660229748,1033,-2.0,-1.6624146,0.19476318
1601660229751,1034,-1.9343262,-1.9998169,0.8666382
1601660229753,1035,0.2878418,-1.21344,0.34051514
1601660229768,1036,1.6154785,-0.15533447,0.12200928
1601660229768,1037,0.79833984,-0.678772,0.18548584
1601660229769,1038,-1.704834,-1.9998169,0.91741943
1601660229770,1039,-2.0,-1.9998169,0.46185303
1601660229770,1040,-1.3791504,0.50579834,-0.71661377
1601660229771,1041,-1.4899902,1.057312,-1.1484985
1601660229772,1042,-1.3945312,-0.45269775,-0.15997314
1601660229773,1043,-2.0,-1.9998169,0.74334717
1601660229778,1044,0.0234375,-1.9702759,0.44036865
1601660229779,1045,0.85839844,-0.034729004,0.23529053
1601660229781,1046,1.0310059,0.21063232,0.17596436
1601660229782,1047,-0.5600586,-1.9998169,0.81463623
1601660229783,1048,-2.0,-1.9998169,0.63568115
1601660229784,1049,-0.9042969,0.369812,-0.55841064
1601660229785,1050,-1.189209,1.3080444,-1.0247192
1601660229786,1051,-1.7331543,-0.36212158,-0.19488525
1601660229788,1052,-2.0,-1.9998169,0.58807373
1601660229790,1053,-0.83447266,-1.796936,0.5651245
1601660229794,1054,0.59277344,-0.62579346,0.39569092
1601660229795,1055,1.4934082,-0.49395752,0.3180542
1601660232493,1056,-0.5292969,-1.9998169,0.41107178
1601660232495,1057,-2.0,-1.9998169,0.38568115
1601660232499,1058,-1.7133789,-0.3796997,-0.5178833
1601660232500,1059,-1.5136719,1.4025269,-1.2127075
1601660232505,1060,-1.3981934,0.50579834,-0.45928955
1601660232508,1061,-2.0,-1.9998169,0.5109253
1601660232511,1062,-0.080566406,-1.9998169,0.48797607
1601660232512,1063,0.9680176,-0.5899048,0.54193115
1601660232515,1064,0.907959,-0.21099854,0.49725342
1601660232517,1065,-1.4033203,-1.9998169,0.7614136
1601660232517,1066,-2.0,-1.9998169,0.37469482
1601660232521,1067,-1.5129395,0.10760498,-0.456604
1601660232523,1068,-1.4311523,1.2245483,-0.90802
1601660232526,1069,-1.2849121,0.04559326,-0.3694458
1601660232529,1070,-1.895752,-1.9998169,0.35638428
1601660232530,1071,-0.07055664,-1.9998169,0.25506592
1601660232533,1072,1.2849121,-0.536438,0.12347412
1601660232538,1073,1.3544922,-0.22515869,0.0021362305
1601660232539,1074,0.04248047,-1.9998169,0.21307373
1601660232540,1075,-2.0,-1.9998169,0.22137451
1601660232543,1076,-1.0375977,-0.031066895,-0.47930908
1601660232545,1077,-1.1501465,1.2453003,-0.73223877
1601660232548,1078,-1.6586914,-0.12164307,-0.14996338
1601660232551,1079,-2.0,-1.9998169,0.7938843
1601660232551,1080,-0.36328125,-1.9998169,0.43426514
1601660232556,1081,0.8466797,-0.45147705,0.23773193
1601660232557,1082,1.2141113,-0.21905518,0.307312
1601660232559,1083,-0.44091797,-1.9998169,0.5062866
1601660232560,1084,-2.0,-1.9998169,0.43060303
1601660232562,1085,-1.1621094,0.00579834,-0.46954346
1601660232564,1086,-1.376709,1.5455933,-0.95025635
1601660232573,1087,-1.9770508,-0.27545166,-0.14971924
1601660235078,1088,-2.0,-1.9998169,0.7704468
1601660235080,1089,-0.15942383,-1.819397,0.38079834
1601660235082,1090,1.1149902,-0.37017822,0.050964355
1601660235083,1091,1.1386719,-0.44024658,0.14056396
1601660235087,1092,-0.84472656,-1.9998169,0.6310425
1601660235089,1093,-2.0,-1.9998169,0.2802124
1601660235091,1094,-0.9082031,0.291687,-0.5171509
1601660235094,1095,-1.2075195,1.1386108,-0.8994751
1601660235096,1096,-1.8818359,-0.1506958,-0.31134033
1601660235099,1097,-2.0,-1.9998169,0.524353
1601660235102,1098,-0.17919922,-1.7937622,0.39422607
1601660235103,1099,0.98339844,-0.394104,0.1005249
1601660235105,1100,1.2209473,-0.3928833,0.08660889
1601660235105,1101,-1.1745605,-1.9998169,0.6820679
1601660235108,1102,-2.0,-1.9998169,0.44110107
1601660235112,1103,-1.2612305,0.36419678,-0.60723877
1601660235115,1104,-1.5537109,1.2018433,-1.1646118
1601660235120,1105,-1.9230957,-0.8518677,-0.13580322
1601660235121,1106,-2.0,-1.9998169,0.74993896
1601660235128,1107,0.07324219,-1.6404419,0.3283081
1601660235129,1108,1.4980469,-0.18243408,0.12957764
1601660235130,1109,1.0075684,-0.38897705,0.19134521
1601660235132,1110,-0.9013672,-1.9998169,0.8468628
1601660235135,1111,-2.0,-1.9998169,0.44403076
1601660235137,1112,-1.2509766,0.06439209,-0.6067505
1601660235139,1113,-1.6628418,1.1696167,-0.8740845
1601660235142,1114,-1.4689941,-0.2954712,0.03363037
1601660235144,1115,-2.0,-1.9998169,1.0263062
1601660235152,1116,0.3918457,-1.2732544,0.22698975
1601660235153,1117,1.6550293,-0.36993408,0.12591553
1601660235156,1118,0.8742676,-1.2219849,0.21478271
1601660235159,1119,-2.0,-1.9998169,0.34906006
1601660237665,1120,-1.9169922,-1.3796997,-0.36968994
1601660237667,1121,-1.2114258,1.1654663,-1.1968384
1601660237674,1122,-1.5500488,0.8744507,-0.6526489
1601660237676,1123,-2.0,-1.7229614,0.43011475
1601660237681,1124,-1.5908203,-1.9998169,0.71502686
1601660237683,1125,0.36621094,-0.986145,0.23968506
1601660237686,1126,1.5263672,-0.26202393,0.039001465
1601660237688,1127,0.7141113,-1.1712036,0.17279053
1601660237689,1128,-2.0,-1.9998169,1.0140991
1601660237690,1129,-2.0,-1.673645,0.18499756
1601660237691,1130,-1.7231445,0.9254761,-1.2278442
1601660237694,1131,-1.6057129,0.74090576,-1.0054321
1601660237696,1132,-2.0,-1.888977,0.21868896
1601660237698,1133,-1.5842285,-1.9998169,0.87835693
1601660237700,1134,0.5666504,-1.1548462,0.34783936
1601660237703,1135,1.895752,-0.11187744,-0.029846191
1601660237705,1136,0.89941406,-1.123352,0.06341553
1601660237708,1137,-2.0,-1.9998169,0.79241943
1601660237709,1138,-2.0,-1.4605103,0.07513428
1601660237712,1139,-1.3312988,1.1046753,-1.236145
1601660237713,1140,-1.644043,0.9130249,-0.9817505
1601660237714,1141,-2.0,-1.9133911,0.2699585
1601660237717,1142,-1.6708984,-1.9998169,0.77752686
1601660237719,1143,0.7314453,-1.0820923,0.21282959
1601660237720,1144,1.7231445,-0.32403564,-0.13482666
1601660237722,1145,0.71118164,-1.2703247,0.109558105
1601660237728,1146,-2.0,-1.9998169,0.81365967
1601660237732,1147,-2.0,-1.5725708,-0.04473877
1601660237735,1148,-1.8266602,1.4215698,-1.5042114
1601660237740,1149,-1.7807617,0.52337646,-0.9187622
1601660237744,1150,-2.0,-1.9998169,0.7614136
1601660237747,1151,-0.95874023,-1.9998169,0.8895874
