# Sensor position: Chest
# Sensor side: Left
# Activity type: Running
# Activity code: 11
# Subject id: s1655552
timestamp,seq,accel_x,accel_y,accel_z
1601919685135,0,0.052978516,0.78533936,0.04168701
1601919685139,1,0.1899414,0.8678589,0.06512451
1601919685139,2,0.23876953,1.1637573,0.16912842
1601919685140,3,0.13769531,1.2450562,-0.0569458
1601919685141,4,0.028564453,0.8695679,0.007507324
1601919685143,5,0.026855469,1.0807495,0.066833496
1601919685145,6,0.033691406,0.7333374,0.12176514
1601919685148,7,0.07446289,0.7357788,0.06732178
1601919685149,8,-0.0026855469,0.9730835,0.16864014
1601919685149,9,0.14038086,1.1586304,0.23577881
1601919685150,10,-0.11328125,1.2953491,-0.046447754
1601919685154,11,0.08276367,0.899353,0.029724121
1601919685156,12,-0.049804688,0.95965576,0.11907959
1601919685157,13,0.039794922,0.715271,0.055114746
1601919685158,14,0.08129883,0.7753296,0.090270996
1601919685160,15,0.24560547,1.0487671,0.117370605
1601919685165,16,0.2006836,1.2223511,0.19525146
1601919685166,17,-0.10668945,1.1886597,-0.06524658
1601919685166,18,-0.064453125,0.97528076,0.1630249
1601919685168,19,-0.04248047,0.83392334,0.08001709
1601919685170,20,0.024169922,0.63861084,0.15130615
1601919685171,21,0.07714844,0.7352905,0.22503662
1601919685172,22,-0.07861328,1.0526733,0.2543335
1601919685172,23,0.23657227,1.3317261,-0.11260986
1601919685173,24,-0.0078125,1.1207886,0.07098389
1601919685174,25,0.19433594,0.98968506,-0.026672363
1601919685178,26,0.08300781,0.7067261,0.01751709
1601919685180,27,0.07006836,0.74871826,0.047302246
1601919685182,28,0.18237305,0.97406006,0.10809326
1601919685184,29,0.22045898,1.4386597,0.055114746
1601919685185,30,0.005859375,0.9953003,-0.05670166
1601919685186,31,0.024902344,1.1127319,0.04827881
1601919687923,32,-0.010009766,0.74383545,0.046813965
1601919687924,33,0.0859375,0.69036865,0.08270264
1601919687926,34,0.111083984,0.83221436,0.11444092
1601919687929,35,0.02319336,1.1774292,0.21478271
1601919687931,36,0.12036133,1.2455444,-0.09136963
1601919687932,37,0.17651367,0.91326904,-0.14703369
1601919687934,38,0.15161133,1.0414429,-0.11627197
1601919687935,39,0.09472656,0.6203003,-0.097961426
1601919687939,40,-0.0390625,0.65301514,-0.10308838
1601919687944,41,0.026611328,1.053894,-0.047424316
1601919687948,42,0.24902344,1.1703491,0.034606934
1601919687948,43,-0.024169922,1.2333374,-0.18414307
1601919687950,44,-0.27001953,0.8578491,-0.30255127
1601919687951,45,-0.16430664,1.1359253,-0.2756958
1601919687954,46,-0.13378906,1.699646,0.08685303
1601919687955,47,-0.010986328,1.2721558,0.08856201
1601919687957,48,-0.068359375,0.4298706,-0.06085205
1601919687958,49,-0.048583984,-0.035705566,-0.30841064
1601919687960,50,-0.5229492,1.1183472,-0.31524658
1601919687962,51,0.036376953,1.8424683,-0.012512207
1601919687964,52,0.33935547,1.6102905,-7.9345703E-4
1601919687965,53,-0.30615234,0.5031128,-0.13287354
1601919687967,54,-0.27026367,-0.14849854,-0.26080322
1601919687968,55,-0.17700195,1.305603,-0.30474854
1601919687970,56,-0.2512207,1.8434448,-0.024719238
1601919687971,57,0.025634766,1.2597046,0.17449951
1601919687973,58,0.046142578,0.23431396,-0.14654541
1601919687976,59,-0.16259766,-0.08453369,-0.23101807
1601919687976,60,-0.4111328,1.4137573,-0.29888916
1601919687976,61,0.2709961,1.999939,0.22601318
1601919687977,62,0.26831055,1.2372437,-0.06011963
1601919687978,63,-0.59277344,0.015808105,-0.21026611
1601919690303,64,-0.033203125,-0.0068969727,-0.2859497
1601919690305,65,0.013671875,1.8800659,-0.06304932
1601919690306,66,-0.09790039,1.7150269,0.40423584
1601919690308,67,0.16430664,0.8366089,0.18231201
1601919690310,68,0.07055664,0.0067749023,-0.2852173
1601919690312,69,-0.25,0.24334717,-0.2029419
1601919690315,70,-0.19555664,1.999939,-0.06915283
1601919690319,71,0.53881836,1.8336792,0.15618896
1601919690324,72,-0.17822266,0.51483154,-0.11553955
1601919690328,73,-0.36547852,-0.20220947,-0.20440674
1601919690330,74,-0.08569336,0.9213257,-0.3171997
1601919690331,75,0.04272461,1.999939,-0.12774658
1601919690331,76,-0.04272461,1.4718628,0.06951904
1601919690339,77,0.052001953,0.051452637,-0.03692627
1601919690342,78,-0.23339844,-0.1819458,-0.24664307
1601919690343,79,-0.18969727,1.6390991,-0.35430908
1601919690343,80,0.38867188,1.999939,0.15325928
1601919690344,81,0.25561523,1.1395874,0.07293701
1601919690344,82,-0.41748047,0.1720581,-0.24810791
1601919690345,83,-0.19824219,-0.089904785,-0.21734619
1601919690346,84,-0.072509766,1.7941284,-0.2498169
1601919690348,85,0.19580078,1.7404175,0.19671631
1601919690350,86,0.034179688,1.2272339,0.16204834
1601919690351,87,-0.09375,0.24041748,-0.09136963
1601919690354,88,-0.037353516,-0.23980713,-0.23638916
1601919690355,89,-0.4921875,1.4933472,-0.40655518
1601919690358,90,0.3552246,1.9081421,0.10809326
1601919690362,91,0.26586914,1.6769409,0.007507324
1601919690365,92,-0.1394043,0.48187256,-0.1843872
1601919690367,93,-0.27978516,-0.21832275,-0.14874268
1601919690368,94,-0.06542969,0.8981323,-0.124816895
1601919690369,95,0.12988281,1.8866577,0.042663574
1601919692888,96,0.14916992,1.713562,0.27313232
1601919692889,97,0.0017089844,0.3925171,0.1083374
1601919692891,98,-0.16333008,-0.29742432,-0.38336182
1601919692892,99,-0.17260742,0.52337646,-0.36920166
1601919692895,100,0.20581055,1.999939,0.09100342
1601919692899,101,0.52856445,1.9213257,0.07537842
1601919692901,102,-0.114746094,0.46697998,-0.042785645
1601919692903,103,-0.25463867,-0.26861572,-0.13555908
1601919692907,104,-0.045166016,0.48944092,-0.17144775
1601919692908,105,0.061035156,1.999939,-0.33306885
1601919692910,106,0.13305664,1.5975952,0.105895996
1601919692911,107,0.040039062,0.26727295,-0.09259033
1601919692912,108,-0.06567383,-0.23687744,-0.1975708
1601919692914,109,-0.32495117,1.0744019,-0.52130127
1601919692917,110,0.4494629,1.999939,0.038757324
1601919692918,111,0.34936523,1.2831421,-0.14068604
1601919692922,112,-0.43041992,0.34368896,-0.08502197
1601919692922,113,-0.114990234,-0.23468018,-0.26568604
1601919692923,114,-0.19238281,1.289978,-0.21832275
1601919692924,115,0.26000977,1.9811401,0.062927246
1601919692925,116,0.06347656,1.5021362,0.117370605
1601919692926,117,-0.047607422,0.047058105,-0.14703369
1601919692928,118,-0.2084961,-0.11895752,-0.20855713
1601919692930,119,-0.42529297,1.767273,-0.38482666
1601919692932,120,0.4338379,1.999939,0.15496826
1601919692933,121,0.022949219,1.0739136,-0.105773926
1601919692934,122,-0.43579102,0.011169434,-0.22613525
1601919692943,123,-0.100097656,0.1630249,-0.31671143
1601919692944,124,-0.22436523,1.7909546,-0.06842041
1601919692946,125,-0.11694336,1.8612671,0.17230225
1601919692951,126,0.11669922,0.51068115,0.051452637
1601919692951,127,-0.07421875,-0.17315674,-0.32696533
1601919695471,128,-0.5559082,0.38909912,-0.38043213
1601919695472,129,0.18823242,1.999939,0.08050537
1601919695474,130,0.74902344,1.7003784,0.17840576
1601919695476,131,-0.58081055,0.4562378,-0.15240479
1601919695478,132,-0.26733398,-0.16241455,-0.25372314
1601919695478,133,-0.056640625,0.920105,-0.37384033
1601919695478,134,0.30615234,1.999939,0.10760498
1601919695480,135,0.21069336,1.2228394,0.26898193
1601919695482,136,-0.114990234,-0.051574707,-0.15411377
1601919695484,137,-0.36328125,0.035583496,-0.27886963
1601919695485,138,0.1928711,1.999939,-0.1416626
1601919695487,139,0.6713867,1.999939,0.23919678
1601919695488,140,-0.36938477,0.45526123,-0.23931885
1601919695490,141,-0.49658203,-0.11114502,-0.18560791
1601919695491,142,0.01586914,0.60272217,-0.32281494
1601919695492,143,0.09765625,1.999939,0.15008545
1601919695492,144,0.103271484,1.5216675,0.10418701
1601919695495,145,-0.07348633,0.001159668,-0.19073486
1601919695497,146,-0.083740234,-0.1260376,-0.24639893
1601919695499,147,-0.3491211,1.6332397,-0.36798096
1601919695502,148,0.5419922,1.999939,0.10809326
1601919695504,149,0.19897461,0.9215698,-0.09088135
1601919695505,150,-0.7363281,-0.16558838,-0.30743408
1601919695507,151,0.12475586,0.1281128,-0.21783447
1601919695508,152,0.01171875,1.999939,-0.2276001
1601919695510,153,0.064208984,1.7960815,0.07757568
1601919695511,154,0.07324219,0.33929443,-0.05206299
1601919695513,155,-0.12866211,-0.25836182,-0.2654419
1601919695519,156,-0.52490234,1.0863647,-0.44854736
1601919695521,157,0.5444336,1.999939,0.20379639
1601919695526,158,0.2956543,1.0905151,-0.03717041
1601919695528,159,-0.66796875,0.042175293,-0.31451416
1601919698052,160,-0.061279297,-0.13726807,-0.23199463
1601919698054,161,-0.08520508,1.999939,-0.19854736
1601919698054,162,0.15014648,1.7426147,0.35980225
1601919698056,163,0.05102539,0.88568115,0.14422607
1601919698057,164,-0.023925781,-0.36846924,-0.38775635
1601919698057,165,-0.12670898,0.28729248,-0.27252197
1601919698057,166,-0.0146484375,1.999939,-0.144104
1601919698059,167,0.7939453,1.836853,0.21624756
1601919698061,168,-0.36889648,0.35687256,-0.38043213
1601919698064,169,-0.2241211,-0.24542236,-0.09625244
1601919698066,170,-0.057373047,0.60565186,-0.255188
1601919698066,171,0.0871582,1.999939,-0.29693604
1601919698069,172,0.18261719,1.586853,0.0014038086
1601919698072,173,0.006591797,-0.12286377,-0.2185669
1601919698072,174,-0.13256836,-0.105529785,-0.19415283
1601919698073,175,-0.25854492,1.8844604,-0.41461182
1601919698074,176,0.6254883,1.999939,0.101501465
1601919698076,177,0.001953125,0.8961792,-0.1272583
1601919698077,178,-0.63134766,-0.25787354,-0.3303833
1601919698080,179,0.2631836,0.21844482,-0.17974854
1601919698081,180,-0.11767578,1.999939,-0.050842285
1601919698082,181,0.028564453,1.5963745,0.20501709
1601919698084,182,0.08520508,0.10467529,-0.17828369
1601919698086,183,-0.19384766,-0.10235596,-0.14996338
1601919698089,184,-0.58984375,1.6098022,-0.36212158
1601919698091,185,0.59594727,1.999939,0.20770264
1601919698092,186,0.27392578,0.95477295,-0.029846191
1601919698093,187,-0.6501465,-0.17218018,-0.3369751
1601919698094,188,0.19360352,0.09124756,-0.20050049
1601919698095,189,-0.10205078,1.999939,-0.29034424
1601919698096,190,0.09106445,1.7098999,0.09906006
1601919698098,191,0.06713867,0.16668701,-0.18414307
1601919700637,192,-0.26391602,-0.13360596,-0.1843872
1601919700642,193,-0.58813477,1.2982788,-0.60040283
1601919700646,194,0.6479492,1.999939,0.20135498
1601919700647,195,0.3449707,1.1325073,-0.05987549
1601919700650,196,-0.65600586,-0.11553955,-0.458313
1601919700653,197,0.27954102,-0.049865723,-0.086242676
1601919700657,198,-0.088378906,1.999939,-0.32940674
1601919700658,199,0.03100586,1.8483276,0.32489014
1601919700659,200,-0.03100586,0.6547241,0.046569824
1601919700661,201,-0.028564453,-0.22808838,-0.4348755
1601919700664,202,-0.3190918,0.65448,-0.2420044
1601919700667,203,0.095947266,1.999939,0.078552246
1601919700667,204,0.73535156,1.4164429,0.22381592
1601919700668,205,-0.6101074,0.16668701,-0.4212036
1601919700669,206,-0.1586914,-0.09576416,-0.2876587
1601919700672,207,-0.06665039,1.7531128,-0.425354
1601919700673,208,0.030517578,1.9630737,0.10443115
1601919700678,209,0.08911133,0.8209839,0.008239746
1601919700678,210,0.040771484,-0.2888794,-0.35430908
1601919700680,211,-0.50146484,0.46307373,-0.42877197
1601919700680,212,0.1784668,1.999939,-0.11920166
1601919700681,213,0.54003906,1.6203003,0.034118652
1601919700683,214,-0.44873047,0.16766357,-0.28375244
1601919700684,215,-0.23168945,-0.1494751,-0.2942505
1601919700685,216,0.006591797,1.7489624,-0.55792236
1601919700686,217,-0.009277344,1.9440308,0.16595459
1601919700686,218,0.106933594,0.94696045,0.0036010742
1601919700687,219,0.01586914,-0.30792236,-0.3399048
1601919700688,220,-0.38745117,0.2753296,-0.27471924
1601919700689,221,-0.012939453,1.999939,-0.506897
1601919700693,222,0.6755371,1.8026733,-0.004211426
1601919700693,223,-0.36938477,0.3986206,-0.45318604
1601919703234,224,-0.3149414,-0.1951294,-0.12701416
1601919703236,225,0.20947266,0.9393921,-0.49102783
1601919703238,226,-0.16748047,1.999939,-0.21783447
1601919703242,227,0.09472656,1.2472534,0.01361084
1601919703246,228,0.10083008,-0.2498169,-0.27349854
1601919703248,229,-0.15795898,0.04852295,-0.13800049
1601919703250,230,-0.32226562,1.999939,-0.47418213
1601919703251,231,0.82006836,1.999939,0.21331787
1601919703254,232,-0.15698242,0.56903076,-0.24761963
1601919703254,233,-0.5578613,-0.09234619,-0.29449463
1601919703262,234,0.1743164,0.39056396,-0.42510986
1601919703266,235,-0.20703125,1.999939,-0.29156494
1601919703269,236,0.095214844,1.5219116,-0.019348145
1601919703270,237,0.05883789,-0.015930176,-0.1873169
1601919703272,238,-0.064208984,-0.15435791,-0.2156372
1601919703273,239,-0.55615234,1.9362183,-0.5376587
1601919703285,240,0.8210449,1.999939,-0.028381348
1601919703286,241,-0.11010742,0.6039429,-0.18707275
1601919703291,242,-0.64160156,-0.23834229,-0.41583252
1601919703292,243,0.2265625,0.42034912,-0.30377197
1601919703294,244,-0.05126953,1.999939,-0.41680908
1601919703299,245,0.07080078,1.5228882,-0.042053223
1601919703300,246,0.12084961,-0.09503174,-0.18341064
1601919703303,247,-0.15600586,-0.105773926,-0.15167236
1601919703304,248,-0.5280762,1.4308472,-0.54473877
1601919703306,249,0.5932617,1.999939,0.21844482
1601919703308,250,0.19140625,0.9994507,-0.10308838
1601919703310,251,-0.5654297,-0.13702393,-0.39898682
1601919703313,252,0.10961914,0.042663574,-0.18267822
1601919703314,253,-0.021240234,1.999939,-0.128479
1601919703315,254,0.036621094,1.708435,0.4874878
1601919703317,255,0.1550293,0.5753784,0.04949951
1601919705808,256,0.048583984,-0.27838135,-0.46710205
1601919705811,257,-0.38916016,0.93573,-0.24957275
1601919705812,258,0.25732422,1.999939,0.27508545
1601919705815,259,0.55908203,1.3204956,0.124694824
1601919705821,260,-0.73828125,0.046081543,-0.40704346
1601919705822,261,0.02734375,-0.03741455,-0.13165283
1601919705823,262,-0.25219727,1.6620483,-0.42022705
1601919705828,263,0.14819336,1.999939,0.16082764
1601919705829,264,0.14624023,0.78411865,0.0211792
1601919705834,265,-0.03149414,-0.21807861,-0.3123169
1601919705837,266,-0.43432617,0.42767334,-0.31695557
1601919705839,267,0.27172852,1.999939,-0.13946533
1601919705840,268,0.7441406,1.5878296,0.050231934
1601919705842,269,-0.5900879,0.27947998,-0.24420166
1601919705843,270,-0.19628906,-0.15118408,-0.19488525
1601919705845,271,-0.06298828,1.0841675,-0.49102783
1601919705849,272,0.048339844,1.999939,-0.089904785
1601919705851,273,0.13110352,1.2472534,0.08758545
1601919705854,274,-0.010986328,-0.35894775,-0.29864502
1601919705856,275,-0.34814453,0.23260498,-0.2654419
1601919705857,276,-0.035888672,1.999939,-0.45513916
1601919705862,277,0.80566406,1.9904175,0.15423584
1601919705862,278,-0.33154297,0.25286865,-0.32281494
1601919705863,279,-0.43603516,-0.0178833,-0.28741455
1601919705866,280,0.10839844,0.37493896,-0.17779541
1601919705867,281,0.01928711,1.999939,-0.45928955
1601919705868,282,0.07788086,1.7243042,0.074401855
1601919705868,283,0.059570312,-0.121398926,-0.20562744
1601919705870,284,-0.20483398,-0.086242676,-0.19708252
1601919705872,285,-0.6040039,1.3031616,-0.52008057
1601919705872,286,0.9333496,1.999939,0.07562256
1601919705874,287,0.24267578,0.84124756,-0.18878174
1601919708388,288,-0.8852539,-0.17193604,-0.47369385
1601919708389,289,0.30908203,0.1083374,-0.25128174
1601919708390,290,-0.07470703,1.999939,-0.21514893
1601919708391,291,0.056396484,1.8478394,0.2675171
1601919708395,292,0.030029297,0.36029053,-0.020812988
1601919708406,293,-0.014160156,-0.17462158,-0.3994751
1601919708407,294,-0.45385742,0.87786865,-0.43414307
1601919708412,295,0.44262695,1.999939,0.116882324
1601919708415,296,0.48535156,1.2626343,-0.10040283
1601919708419,297,-0.701416,0.016296387,-0.33184814
1601919708420,298,0.24511719,-0.16217041,-0.21002197
1601919708421,299,-0.28466797,1.8390503,-0.5772095
1601919708422,300,0.20385742,1.999939,0.046813965
1601919708423,301,0.078125,0.8756714,0.026062012
1601919708423,302,-0.049072266,-0.38043213,-0.40948486
1601919708423,303,-0.48120117,0.4960327,-0.40777588
1601919708423,304,0.115478516,1.999939,-0.29986572
1601919708424,305,0.67456055,1.5922241,-0.02935791
1601919708425,306,-0.46044922,0.168396,-0.29400635
1601919708427,307,-0.33666992,-0.2210083,-0.41534424
1601919708427,308,0.052978516,1.5387573,-0.40338135
1601919708428,309,0.30493164,1.9794312,0.16937256
1601919708431,310,0.017578125,1.1425171,0.059265137
1601919708431,311,0.030761719,-0.33868408,-0.39385986
1601919708433,312,-0.33007812,0.3583374,-0.29888916
1601919708443,313,0.06713867,1.999939,-0.20806885
1601919708443,314,0.6796875,1.6757202,0.17132568
1601919708443,315,-0.47387695,0.4159546,-0.21246338
1601919708443,316,-0.40356445,-0.22711182,-0.24957275
1601919708443,317,0.057373047,0.93792725,-0.4866333
1601919708444,318,0.014160156,1.999939,-0.18634033
1601919708446,319,0.17651367,1.3358765,0.09197998
1601919710971,320,0.021484375,-0.27374268,-0.32330322
1601919710973,321,-0.3618164,0.12347412,-0.19781494
1601919710975,322,-0.15698242,1.999939,-0.5869751
1601919710978,323,0.57958984,1.8981323,0.06707764
1601919710982,324,-0.3232422,0.5512085,-0.2727661
1601919710987,325,-0.3881836,-0.19024658,-0.38458252
1601919710992,326,0.0715332,1.0346069,-0.48394775
1601919710994,327,-0.14990234,1.999939,0.05267334
1601919710995,328,0.028320312,1.2592163,-0.031066895
1601919710997,329,0.10107422,-0.12701416,-0.22442627
1601919711000,330,-0.20898438,-0.05670166,-0.09649658
1601919711001,331,-0.62353516,1.7472534,-0.72247314
1601919711004,332,0.99975586,1.999939,0.21478271
1601919711005,333,-0.07006836,1.0236206,-0.33477783
1601919711006,334,-0.62719727,-0.27960205,-0.33477783
1601919711009,335,0.16577148,0.22991943,-0.121398926
1601919711010,336,-0.25952148,1.999939,-0.44732666
1601919711010,337,0.09887695,1.6327515,0.09490967
1601919711011,338,0.037353516,0.07366943,-0.23248291
1601919711012,339,-0.12792969,-0.13946533,-0.13946533
1601919711015,340,-0.4873047,1.6473999,-0.57476807
1601919711016,341,0.7434082,1.999939,0.17840576
1601919711016,342,0.103515625,0.92352295,-0.16290283
1601919711018,343,-0.81152344,-0.23931885,-0.4151001
1601919711021,344,0.37719727,0.08123779,-0.15899658
1601919711022,345,-0.22387695,1.999939,-0.35235596
1601919711023,346,0.07006836,1.736023,0.12762451
1601919711030,347,0.0703125,0.35858154,-0.12945557
1601919711031,348,-0.06201172,-0.34136963,-0.24395752
1601919711032,349,-0.6801758,1.3673706,-0.6694946
1601919711032,350,0.79663086,1.999939,-0.13702393
1601919711040,351,0.095947266,1.1581421,-0.0569458
1601919713558,352,-0.6508789,-0.028381348,-0.30841064
1601919713561,353,0.061767578,-0.10015869,-0.23809814
1601919713565,354,-0.27612305,1.999939,-0.5574341
1601919713570,355,0.11987305,1.8060913,0.08660889
1601919713575,356,0.03100586,0.61224365,-0.09259033
1601919713579,357,-0.04638672,-0.3291626,-0.34039307
1601919713584,358,-0.64990234,1.0875854,-0.52667236
1601919713585,359,0.54663086,1.999939,-0.21368408
1601919713586,360,0.45825195,1.3258667,-0.13995361
1601919713591,361,-0.69189453,-0.0064086914,-0.40777588
1601919713592,362,0.09790039,-0.10479736,-0.24664307
1601919713597,363,-0.22875977,1.9110718,-0.3916626
1601919713599,364,0.24780273,1.8688354,0.22039795
1601919713601,365,0.015625,0.6696167,0.019714355
1601919713604,366,0.038085938,-0.29571533,-0.40997314
1601919713607,367,-0.23242188,0.65667725,-0.1897583
1601919713610,368,0.1159668,1.999939,-0.09185791
1601919713611,369,0.7102051,1.4996948,0.15692139
1601919713614,370,-0.8078613,0.14813232,-0.27008057
1601919713617,371,0.068847656,-0.17193604,-0.31378174
1601919713619,372,-0.27563477,1.4057007,-0.60113525
1601919713621,373,0.29638672,1.999939,-0.06036377
1601919713623,374,-0.014160156,1.0390015,0.074645996
1601919713626,375,0.024902344,-0.20147705,-0.32281494
1601919713626,376,-0.39135742,0.28094482,-0.23468018
1601919713628,377,0.01171875,1.999939,-0.49053955
1601919713629,378,0.7001953,1.7411499,0.005065918
1601919713629,379,-0.30639648,0.34954834,-0.29449463
1601919713631,380,-0.3671875,-0.20733643,-0.24664307
1601919713633,381,-0.01977539,0.75653076,-0.4439087
1601919713636,382,0.06274414,1.999939,-0.25445557
1601919713638,383,-0.056640625,1.4159546,-0.09552002
1601919716144,384,0.09716797,-0.12554932,-0.11407471
1601919716145,385,-0.07861328,0.07366943,-0.33843994
1601919716150,386,-0.18066406,1.999939,-0.62335205
1601919716151,387,0.5390625,1.732605,0.015808105
1601919716152,388,-0.053466797,0.5446167,-0.18585205
1601919716161,389,-0.8066406,-0.14654541,-0.4036255
1601919716163,390,0.4885254,0.6210327,-0.33648682
1601919716164,391,-0.27197266,1.999939,-0.0012817383
1601919716166,392,0.08886719,1.4769897,0.14544678
1601919716166,393,0.17602539,-0.06964111,-0.20904541
1601919716167,394,-0.2355957,0.029724121,-0.30596924
1601919716169,395,-0.123046875,1.999939,-0.3735962
1601919716174,396,0.546875,1.999939,0.20574951
1601919716175,397,-0.06689453,0.45355225,-0.21002197
1601919716179,398,-0.7631836,-0.07232666,-0.2774048
1601919716183,399,0.16455078,0.25701904,-0.22125244
1601919716184,400,-0.10839844,1.999939,-0.33233643
1601919716189,401,0.10205078,1.6051636,0.20257568
1601919716190,402,0.056640625,0.2164917,-0.16851807
1601919716192,403,-0.15917969,-0.22076416,-0.23931885
1601919716198,404,-0.5102539,1.7965698,-0.52301025
1601919716203,405,0.5710449,1.999939,0.004333496
1601919716207,406,0.013183594,0.8666382,-0.10675049
1601919716210,407,-0.6813965,-0.17071533,-0.378479
1601919716211,408,0.25708008,0.15447998,-0.2144165
1601919716216,409,-0.19555664,1.999939,-0.5581665
1601919716217,410,-0.0024414062,1.8414917,-0.015197754
1601919716221,411,0.13085938,0.059265137,-0.23712158
1601919716223,412,-0.14331055,-0.17584229,-0.13946533
1601919716225,413,-0.7583008,1.4237671,-0.6865845
1601919716227,414,0.7351074,1.999939,0.024841309
1601919716232,415,0.21044922,0.9694214,-0.31622314
1601919718979,416,-0.77246094,-0.1375122,-0.4192505
1601919719005,417,0.2861328,0.08050537,-0.109436035
1601919719023,418,-0.115478516,1.999939,-0.32843018
1601919719027,419,-0.16259766,1.850769,0.14422607
1601919719035,420,0.099853516,0.2543335,-0.10211182
1601919719038,421,-0.023925781,-0.19390869,-0.37628174
1601919719039,422,-0.43579102,1.1195679,-0.42999268
1601919719040,423,0.5280762,1.999939,0.10345459
1601919719044,424,0.40966797,1.1288452,-0.17877197
1601919719049,425,-0.90185547,-0.08526611,-0.30596924
1601919719055,426,0.17797852,-0.10479736,-0.16851807
1601919719059,427,0.0031738281,1.999939,-0.5274048
1601919719062,428,0.0390625,1.902771,0.11126709
1601919719068,429,0.13964844,0.43084717,-0.02130127
1601919719069,430,-0.13183594,-0.2288208,-0.34796143
1601919719073,431,-0.5048828,0.6408081,-0.5095825
1601919719077,432,0.41625977,1.999939,-0.07183838
1601919719078,433,0.7541504,1.6312866,-0.0010375977
1601919719091,434,-0.6862793,-0.124572754,-0.42852783
1601919719093,435,-0.123046875,-0.085754395,-0.20269775
1601919719093,436,-0.16796875,1.6652222,-0.550354
1601919719098,437,0.29370117,1.999939,0.09100342
1601919719099,438,0.06982422,0.8876343,0.04901123
1601919719100,439,-0.11767578,-0.3303833,-0.3616333
1601919719100,440,-0.27294922,0.19207764,-0.30377197
1601919719102,441,-0.19970703,1.999939,-0.41436768
1601919719103,442,0.7038574,1.7970581,0.10760498
1601919719103,443,-0.36499023,0.32122803,-0.2883911
1601919719106,444,-0.39379883,-0.16583252,-0.26397705
1601919719107,445,0.099853516,0.87323,-0.4668579
1601919719107,446,0.009033203,1.999939,-0.03375244
1601919719109,447,0.020263672,1.4733276,0.1852417
1601919721513,448,0.07739258,-0.27423096,-0.33892822
1601919721521,449,-0.32495117,-0.024963379,-0.120666504
1601919721527,450,-0.28881836,1.999939,-0.3867798
1601919721529,451,0.71875,1.999939,0.29534912
1601919721531,452,-0.23095703,0.57977295,-0.21905518
1601919721534,453,-0.4790039,-0.12164307,-0.3069458
1601919721537,454,0.0073242188,0.45819092,-0.40679932
1601919721538,455,0.099853516,1.999939,-0.22491455
1601919721542,456,0.04272461,1.520935,0.05633545
1601919721545,457,-0.0053710938,-0.10675049,-0.2468872
1601919721548,458,-0.22680664,-0.07598877,-0.17901611
1601919721549,459,-0.328125,1.8607788,-0.5774536
1601919721550,460,0.55859375,1.999939,0.13128662
1601919721555,461,0.05834961,0.75408936,-0.21734619
1601919721557,462,-0.75268555,-0.2600708,-0.48199463
1601919721559,463,0.39794922,0.27752686,-0.40142822
1601919721560,464,-0.16210938,1.999939,-0.20855713
1601919721563,465,-0.032714844,1.5543823,-0.0154418945
1601919721566,466,0.1003418,-0.054992676,-0.2625122
1601919721567,467,-0.40454102,-0.051330566,-0.362854
1601919721571,468,0.0107421875,1.8988647,-0.38531494
1601919721574,469,0.64453125,1.999939,0.21697998
1601919721577,470,-0.021240234,0.5470581,-0.348938
1601919721578,471,-0.8198242,-0.19244385,-0.4356079
1601919721581,472,0.23535156,0.32659912,-0.41070557
1601919721584,473,-0.0715332,1.999939,-0.16973877
1601919721587,474,0.31030273,1.2797241,-0.043762207
1601919721595,475,-0.13769531,-0.07598877,-0.18267822
1601919721596,476,-0.20043945,-0.04083252,-0.09942627
1601919721597,477,0.22705078,1.999939,-0.48077393
1601919721601,478,0.27905273,1.999939,0.11932373
1601919721604,479,-0.087402344,0.57977295,-0.22174072
1601919724093,480,-0.6906738,-0.0791626,-0.24639893
1601919724094,481,0.36572266,0.576355,-0.4126587
1601919724098,482,-0.26513672,1.999939,-0.32647705
1601919724103,483,-0.009033203,1.4100952,-0.07696533
1601919724106,484,0.005126953,-0.12896729,-0.23321533
1601919724113,485,-0.13500977,-0.08502197,-0.22589111
1601919724118,486,-0.4375,1.796814,-0.5811157
1601919724125,487,0.49121094,1.999939,-0.09307861
1601919724128,488,0.123535156,0.7653198,-0.21783447
1601919724129,489,-0.91967773,-0.27008057,-0.49371338
1601919724131,490,0.4736328,0.21600342,-0.19854736
1601919724134,491,-0.34033203,1.999939,-0.38311768
1601919724137,492,0.01953125,1.5643921,-0.0491333
1601919724139,493,-0.0041503906,-0.040100098,-0.24127197
1601919724143,494,-0.15405273,-0.16217041,-0.26885986
1601919724145,495,-0.548584,1.8605347,-0.55792236
1601919724148,496,0.6298828,1.999939,0.055603027
1601919724151,497,0.05102539,0.7506714,-0.21954346
1601919724153,498,-0.8840332,-0.20367432,-0.42193604
1601919724156,499,0.4567871,0.27459717,-0.13140869
1601919724161,500,-0.21166992,1.999939,-0.15826416
1601919724162,501,-0.04296875,1.5255737,0.15252686
1601919724165,502,0.13671875,-0.014221191,-0.2637329
1601919724167,503,-0.119628906,-0.08087158,-0.12872314
1601919724169,504,-0.5283203,1.8234253,-0.3670044
1601919724172,505,0.61743164,1.999939,0.19915771
1601919724175,506,0.12573242,0.826355,-0.15289307
1601919724179,507,-0.7553711,-0.13067627,-0.36431885
1601919724179,508,0.3161621,0.24285889,-0.34454346
1601919724182,509,-0.21289062,1.999939,-0.27545166
1601919724185,510,-0.03564453,1.5983276,0.1329956
1601919724187,511,0.016845703,-0.045959473,-0.18536377
1601919726683,512,-0.053466797,-0.1026001,-0.13458252
1601919726686,513,-0.5986328,1.3900757,-0.7005005
1601919726690,514,0.8691406,1.999939,0.16619873
1601919726694,515,0.06738281,0.88397217,-0.2617798
1601919726696,516,-0.8261719,-0.2954712,-0.3796997
1601919726701,517,0.43676758,0.15203857,-0.23565674
1601919726704,518,-0.22631836,1.999939,-0.50323486
1601919726707,519,0.032714844,1.7572632,-0.06427002
1601919726709,520,0.0715332,0.09979248,-0.24908447
1601919726712,521,-0.22216797,-0.17755127,-0.144104
1601919726714,522,-0.66259766,1.4862671,-0.64385986
1601919726717,523,0.92626953,1.999939,-0.078430176
1601919726723,524,0.14501953,0.88079834,-0.26861572
1601919726724,525,-0.93359375,-0.22296143,-0.4348755
1601919726729,526,0.5571289,0.10345459,-0.25665283
1601919726736,527,-0.21606445,1.999939,-0.21929932
1601919726737,528,0.08984375,1.5690308,-0.09942627
1601919726739,529,0.14770508,0.035827637,-0.17266846
1601919726745,530,-0.20019531,-0.15753174,-0.19268799
1601919726746,531,-0.51904297,1.5346069,-0.51104736
1601919726748,532,0.9387207,1.999939,0.27142334
1601919726749,533,0.080078125,0.84246826,-0.22442627
1601919726750,534,-0.84375,-0.24493408,-0.46051025
1601919726752,535,0.36132812,0.17694092,-0.1741333
1601919726755,536,-0.21582031,1.999939,-0.25860596
1601919726756,537,0.18115234,1.482605,0.005065918
1601919726758,538,-0.06933594,-0.070129395,-0.20831299
1601919726761,539,-0.15283203,-0.062561035,-0.1963501
1601919726762,540,-0.14257812,1.9430542,-0.5095825
1601919726764,541,0.7126465,1.999939,0.05657959
1601919726766,542,-0.09692383,0.51312256,-0.21734619
1601919726772,543,-0.77124023,-0.15557861,-0.3665161
1601919729263,544,0.4025879,0.53582764,-0.38409424
1601919729270,545,-0.12109375,1.999939,-0.4475708
1601919729270,546,0.03857422,1.3102417,-0.1482544
1601919729277,547,0.038330078,-0.18243408,-0.22418213
1601919729280,548,-0.2290039,-0.11968994,-0.17315674
1601919729283,549,-0.64282227,1.999939,-0.76885986
1601919729287,550,0.8186035,1.9186401,0.008239746
1601919729289,551,0.049560547,0.80633545,-0.21734619
1601919729291,552,-0.7597656,-0.33306885,-0.5108032
1601919729294,553,0.26879883,0.14715576,-0.24810791
1601919729295,554,-0.15551758,1.999939,-0.6226196
1601919729299,555,0.045410156,1.7931519,0.11248779
1601919729302,556,-0.05029297,-0.010559082,-0.16314697
1601919729303,557,-0.1328125,-0.17218018,-0.38824463
1601919729306,558,-0.6015625,1.9730835,-0.6868286
1601919729308,559,0.84716797,1.999939,0.0446167
1601919729311,560,0.087890625,0.82366943,-0.1795044
1601919729314,561,-0.92089844,-0.19683838,-0.3574829
1601919729317,562,0.3869629,0.04144287,-0.23883057
1601919729318,563,-0.20166016,1.999939,-0.38824463
1601919729322,564,-0.0073242188,1.7238159,0.05731201
1601919729326,565,0.12207031,0.20355225,-0.062316895
1601919729328,566,-0.1472168,-0.18902588,-0.40142822
1601919729328,567,-0.3190918,1.4984741,-0.33673096
1601919729332,568,0.3474121,1.999939,0.0680542
1601919729332,569,0.40844727,1.1376343,-0.15948486
1601919729336,570,-0.79663086,-0.14459229,-0.29644775
1601919729336,571,0.31958008,0.050964355,-0.120910645
1601919729337,572,-0.45141602,1.999939,-0.4541626
1601919729338,573,0.20825195,1.7579956,-0.013244629
1601919729339,574,0.0234375,0.43865967,-0.1038208
1601919729339,575,-0.0063476562,-0.3086548,-0.23028564
1601919731844,576,-0.7512207,1.0687866,-0.6658325
1601919731847,577,0.51660156,1.999939,-0.10723877
1601919731850,578,0.3791504,1.2462769,-0.047668457
1601919731853,579,-0.7375488,-0.22125244,-0.50982666
1601919731855,580,0.15112305,-0.077941895,-0.30059814
1601919731856,581,-0.2602539,1.999939,-0.5354614
1601919731860,582,0.15283203,1.9108276,-0.029846191
1601919731866,583,0.12475586,0.35491943,-0.14752197
1601919731870,584,-0.2578125,-0.331604,-0.29351807
1601919731872,585,-0.6230469,1.0892944,-0.5654907
1601919731873,586,0.38476562,1.999939,-0.030578613
1601919731876,587,0.43847656,1.2518921,-0.17852783
1601919731878,588,-0.72509766,-0.15704346,-0.5081177
1601919731882,589,0.1418457,0.03753662,-0.13189697
1601919731885,590,-0.26782227,1.999939,-0.26641846
1601919731891,591,-0.0017089844,1.6879272,0.15179443
1601919731893,592,0.06665039,0.3776245,-0.144104
1601919731897,593,0.06640625,-0.22467041,-0.2727661
1601919731900,594,-0.35498047,0.68377686,-0.3965454
1601919731900,595,0.27783203,1.999939,0.11590576
1601919731905,596,0.46728516,1.2348022,-0.042785645
1601919731906,597,-0.8234863,-0.10772705,-0.37506104
1601919731908,598,0.234375,-0.04840088,-0.21905518
1601919731910,599,-0.27319336,1.9811401,-0.5237427
1601919731913,600,0.052246094,1.8666382,0.009460449
1601919731916,601,-0.030517578,0.59588623,-0.0569458
1601919731917,602,0.036621094,-0.22515869,-0.28326416
1601919731917,603,-0.5053711,0.7470093,-0.51885986
1601919731918,604,0.41503906,1.999939,-0.14337158
1601919731919,605,0.60546875,1.5228882,-0.09967041
1601919731920,606,-0.6347656,-0.12774658,-0.43389893
1601919731920,607,-0.05444336,-0.03643799,-0.0713501
1601919734433,608,-0.24365234,1.3859253,-0.70880127
1601919734436,609,0.26635742,1.999939,-0.13018799
1601919734441,610,-0.014892578,0.90252686,-0.035705566
1601919734442,611,-0.010009766,-0.35455322,-0.3447876
1601919734445,612,-0.53881836,0.3637085,-0.54815674
1601919734446,613,0.06225586,1.999939,-0.38897705
1601919734451,614,0.7709961,1.899353,-0.12530518
1601919734452,615,-0.52612305,-0.082336426,-0.5396118
1601919734455,616,-0.13232422,-0.055236816,-0.090148926
1601919734456,617,-0.21948242,1.7157593,-0.66412354
1601919734462,618,0.041748047,1.8373413,0.04486084
1601919734464,619,-0.0847168,0.9052124,-0.08673096
1601919734465,620,-9.765625E-4,-0.40167236,-0.3550415
1601919734466,621,-0.48242188,0.8004761,-0.42510986
1601919734467,622,0.26098633,1.999939,-0.23443604
1601919734468,623,0.61376953,1.4518433,-0.024475098
1601919734469,624,-0.83203125,-0.13165283,-0.53375244
1601919734470,625,0.10107422,-0.00982666,-0.20513916
1601919734471,626,-0.24511719,1.9660034,-0.47125244
1601919734472,627,-0.0034179688,1.8539429,0.19525146
1601919734473,628,0.18725586,0.47991943,0.04510498
1601919734474,629,-0.1003418,-0.31256104,-0.47027588
1601919734475,630,-0.2409668,0.60491943,-0.39068604
1601919734480,631,0.24194336,1.999939,0.020202637
1601919734481,632,0.52319336,1.5731812,0.16741943
1601919734486,633,-0.657959,-0.055480957,-0.43048096
1601919734487,634,-0.1550293,-0.015686035,-0.15411377
1601919734487,635,-0.15185547,1.5595093,-0.6387329
1601919734490,636,0.08154297,1.999939,0.02557373
1601919734493,637,0.06665039,0.7868042,0.020202637
1601919734497,638,0.029052734,-0.32452393,-0.39263916
1601919734498,639,-0.31713867,0.19012451,-0.284729
1601919737018,640,-0.15576172,1.999939,-0.53692627
1601919737025,641,0.49145508,1.9225464,0.06707764
1601919737028,642,-0.16088867,0.19671631,-0.34259033
1601919737032,643,-0.4074707,-0.20098877,-0.2666626
1601919737033,644,0.10864258,1.0363159,-0.7293091
1601919737037,645,-0.15844727,1.999939,-0.25445557
1601919737041,646,-0.017333984,1.0973511,-0.1819458
1601919737045,647,-0.08886719,-0.31256104,-0.29693604
1601919737047,648,-0.056884766,0.14910889,-0.20440674
1601919737050,649,-0.5515137,1.999939,-0.6445923
1601919737051,650,0.7421875,1.9049683,0.10858154
1601919737053,651,-0.36889648,0.3690796,-0.44439697
1601919737054,652,-0.45776367,-0.24298096,-0.24371338
1601919737057,653,0.14208984,0.6654663,-0.5928345
1601919737061,654,-0.1328125,1.999939,-0.33746338
1601919737063,655,-0.13354492,1.3585815,-0.08282471
1601919737063,656,0.10913086,-0.2522583,-0.2695923
1601919737065,657,-0.27514648,0.04119873,-0.20220947
1601919737067,658,-0.35791016,1.999939,-0.46929932
1601919737069,659,0.8713379,1.9657593,0.16815186
1601919737072,660,-0.3684082,0.4105835,-0.41973877
1601919737076,661,-0.5324707,-0.22979736,-0.25738525
1601919737080,662,0.27197266,0.89227295,-0.28277588
1601919737083,663,-0.21850586,1.999939,-0.15948486
1601919737085,664,0.09057617,1.0785522,0.049743652
1601919737086,665,0.040527344,-0.40582275,-0.37872314
1601919737087,666,-0.12011719,0.11126709,-0.17999268
1601919737088,667,-0.23779297,1.999939,-0.38336182
1601919737092,668,0.7011719,1.8358765,0.121276855
1601919737097,669,-0.53344727,0.20233154,-0.3945923
1601919737099,670,-0.10522461,-0.14678955,-0.2131958
1601919737100,671,-0.18701172,1.7538452,-0.6201782
1601919739598,672,0.11669922,1.999939,0.053649902
1601919739601,673,0.06982422,0.65496826,-0.05596924
1601919739605,674,-0.09790039,-0.2937622,-0.28619385
1601919739610,675,-0.2919922,0.60321045,-0.3887329
1601919739612,676,0.25952148,1.999939,-0.10821533
1601919739615,677,0.45483398,1.4891968,-0.0947876
1601919739618,678,-0.7807617,-0.16046143,-0.41534424
1601919739621,679,0.14404297,-0.109436035,-0.117492676
1601919739622,680,-0.31811523,1.8300171,-0.5471802
1601919739626,681,0.23754883,1.999939,-0.026672363
1601919739627,682,-0.06567383,0.5866089,-0.062072754
1601919739629,683,0.02734375,-0.3069458,-0.33428955
1601919739632,684,-0.5510254,0.42816162,-0.50494385
1601919739634,685,0.22387695,1.999939,-0.22198486
1601919739641,686,0.8178711,1.430603,-0.07086182
1601919739643,687,-0.6101074,0.02508545,-0.45025635
1601919739645,688,-0.14013672,-0.22662354,-0.14337158
1601919739647,689,-0.22729492,1.7162476,-0.6123657
1601919739648,690,0.17797852,1.999939,-0.010070801
1601919739649,691,-0.087890625,0.84246826,-0.04815674
1601919739653,692,-0.087890625,-0.39923096,-0.35430908
1601919739656,693,-0.3564453,0.66326904,-0.44561768
1601919739659,694,0.15258789,1.999939,-0.054016113
1601919739661,695,0.66748047,1.5841675,0.07489014
1601919739663,696,-0.86083984,-0.11065674,-0.6621704
1601919739665,697,0.047607422,0.039001465,-0.21417236
1601919739667,698,-0.19799805,1.999939,-0.2119751
1601919739669,699,0.15698242,1.7533569,0.29144287
1601919739673,700,-0.05053711,0.45941162,-0.04547119
1601919739677,701,0.0024414062,-0.2522583,-0.3892212
1601919739679,702,-0.35620117,1.0836792,-0.38043213
1601919739680,703,0.5834961,1.999939,0.14178467
1601919742177,704,0.48339844,1.0133667,-0.14630127
1601919742179,705,-0.94140625,-0.028869629,-0.50616455
1601919742183,706,0.2397461,0.061706543,-0.16046143
1601919742185,707,-0.20605469,1.999939,-0.33917236
1601919742187,708,0.041259766,1.7474976,0.16912842
1601919742189,709,0.072265625,0.019470215,-0.094055176
1601919742191,710,-0.07910156,-0.074279785,-0.33087158
1601919742193,711,-0.3955078,0.97283936,-0.5557251
1601919742195,712,0.47998047,1.999939,-0.014709473
1601919742197,713,0.5732422,1.2460327,-0.11895752
1601919742199,714,-0.7780762,-0.23516846,-0.37750244
1601919742202,715,0.17822266,0.11419678,-0.27886963
1601919742205,716,-0.23486328,1.999939,-0.36260986
1601919742207,717,0.12988281,1.7526245,0.0079956055
1601919742209,718,0.15258789,0.32366943,-0.06427002
1601919742211,719,-0.22973633,-0.2793579,-0.3591919
1601919742213,720,-0.68481445,0.93426514,-0.63116455
1601919742214,721,0.73999023,1.999939,0.043640137
1601919742217,722,0.45336914,1.3036499,-0.13604736
1601919742219,723,-0.7470703,-0.15020752,-0.5786743
1601919742221,724,0.33544922,0.034851074,-0.1741333
1601919742221,725,-0.50805664,1.999939,-0.14141846
1601919742223,726,-0.010253906,1.8222046,0.12225342
1601919742225,727,0.13989258,0.24163818,-0.15997314
1601919742227,728,0.03955078,-0.28204346,-0.37628174
1601919742228,729,-0.5058594,1.3285522,-0.5459595
1601919742231,730,0.6140137,1.999939,0.14154053
1601919742233,731,0.21142578,0.96136475,-0.121398926
1601919742236,732,-0.7922363,0.0119018555,-0.38336182
1601919742239,733,0.1706543,0.08538818,-0.09136963
1601919742239,734,-0.22705078,1.999939,-0.47418213
1601919742242,735,0.16552734,1.7894897,0.02166748
1601919744764,736,-0.1159668,0.2987671,-0.07476807
1601919744768,737,0.15795898,-0.18536377,-0.31158447
1601919744773,738,-0.43237305,0.7081909,-0.472229
1601919744777,739,0.38378906,1.999939,-0.09991455
1601919744787,740,0.3605957,1.2636108,-0.08892822
1601919744796,741,-0.560791,-0.03375244,-0.35284424
1601919744797,742,0.033691406,-0.08282471,-0.22393799
1601919744798,743,-0.07299805,1.999939,-0.5923462
1601919744800,744,0.028808594,1.7614136,-0.008361816
1601919744808,745,0.075927734,0.46209717,-0.124572754
1601919744809,746,-0.05493164,-0.32086182,-0.31427002
1601919744810,747,-0.4975586,1.0028687,-0.45758057
1601919744811,748,0.41870117,1.999939,-0.120666504
1601919744814,749,0.4897461,1.2233276,-0.065979004
1601919744815,750,-0.84399414,-0.06304932,-0.45074463
1601919744817,751,0.096191406,0.02557373,-0.16607666
1601919744821,752,-0.21264648,1.999939,-0.42608643
1601919744824,753,0.067871094,1.6229858,0.117126465
1601919744825,754,0.05859375,0.52923584,0.105407715
1601919744831,755,0.019042969,-0.3262329,-0.42315674
1601919744832,756,-0.54663086,0.9135132,-0.49102783
1601919744835,757,0.47143555,1.999939,0.04510498
1601919744839,758,0.44482422,1.3302612,-0.14556885
1601919744841,759,-0.6845703,-0.17779541,-0.33502197
1601919744844,760,0.12036133,0.019470215,-0.18878174
1601919744846,761,-0.40576172,1.999939,-0.44488525
1601919744848,762,0.19384766,1.8883667,0.105407715
1601919744852,763,-0.022460938,0.39788818,-0.034973145
1601919744853,764,0.0024414062,-0.24591064,-0.3965454
1601919744856,765,-0.3557129,0.6893921,-0.44366455
1601919744857,766,0.38916016,1.999939,0.09564209
1601919744861,767,0.61157227,1.1259155,-0.14263916
1601919747350,768,-1.1022949,-0.07672119,-0.45196533
1601919747354,769,0.40234375,0.16864014,-0.16802979
1601919747360,770,-0.20751953,1.999939,-0.12335205
1601919747362,771,0.03491211,1.7365112,0.1906128
1601919747367,772,0.19091797,0.061706543,-0.058166504
1601919747368,773,-0.15209961,-0.06549072,-0.39215088
1601919747373,774,-0.47583008,1.0043335,-0.4866333
1601919747377,775,0.64208984,1.999939,0.15179443
1601919747378,776,0.39916992,0.99798584,-0.07330322
1601919747379,777,-0.86376953,-0.15460205,-0.38238525
1601919747383,778,0.15820312,-0.08258057,-0.21246338
1601919747385,779,-0.13549805,1.999939,-0.4680786
1601919747389,780,0.15356445,1.9254761,0.20721436
1601919747390,781,-0.011230469,0.37615967,-0.105041504
1601919747391,782,-0.07324219,-0.25738525,-0.36676025
1601919747396,783,-0.54785156,0.5907593,-0.59991455
1601919747398,784,0.38256836,1.999939,-0.1350708
1601919747398,785,0.5957031,1.5245972,0.028259277
1601919747402,786,-0.65771484,-0.0064086914,-0.43023682
1601919747406,787,0.0847168,-0.19610596,-0.21026611
1601919747407,788,-0.059814453,1.4515991,-0.27252197
1601919747408,789,0.26611328,1.999939,0.137146
1601919747412,790,0.119628906,0.9508667,0.10760498
1601919747415,791,0.048339844,-0.19561768,-0.4673462
1601919747418,792,-0.39453125,0.016540527,-0.11651611
1601919747421,793,0.119384766,1.999939,-0.37335205
1601919747423,794,0.8354492,1.999939,0.24407959
1601919747424,795,-0.24560547,0.34613037,-0.29083252
1601919747427,796,-0.47021484,-0.16046143,-0.28692627
1601919747429,797,0.008300781,1.0094604,-0.45147705
1601919747430,798,0.18457031,1.999939,-0.20245361
1601919747433,799,-0.031982422,1.1273804,0.024353027
1601919750128,800,0.0146484375,-0.3274536,-0.29400635
1601919750130,801,-0.28833008,0.05218506,-0.20709229
1601919750132,802,-0.19873047,1.999939,-0.6626587
1601919750134,803,0.7180176,1.9291382,0.17474365
1601919750137,804,-0.18701172,0.43084717,-0.347229
1601919750140,805,-0.5473633,-0.21466064,-0.35479736
1601919750142,806,0.31884766,0.66156006,-0.34527588
1601919750145,807,0.06591797,1.999939,-0.07696533
1601919750147,808,0.040283203,1.135437,-0.0049438477
1601919750148,809,-0.064208984,-0.32281494,-0.38311768
1601919750150,810,-0.25878906,0.16668701,-0.06011963
1601919750150,811,-0.013183594,1.999939,-0.4673462
1601919750155,812,0.78564453,1.8078003,0.3703003
1601919750156,813,-0.34838867,0.2711792,-0.29693604
1601919750159,814,-0.53149414,-0.17706299,-0.32232666
1601919750161,815,0.05029297,0.76434326,-0.50567627
1601919750163,816,0.10986328,1.999939,-0.2901001
1601919750166,817,0.1003418,1.0629272,0.07293701
1601919750167,818,-0.12939453,-0.3970337,-0.4055786
1601919750170,819,-0.21362305,0.2567749,-0.2810669
1601919750173,820,-0.040527344,1.999939,-0.56622314
1601919750175,821,0.5917969,1.434021,0.059020996
1601919750178,822,-0.4724121,0.29608154,-0.40509033
1601919750178,823,-0.14990234,-0.22320557,-0.20928955
1601919750182,824,-0.05517578,1.7667847,-0.7180786
1601919750183,825,0.12841797,1.999939,0.08392334
1601919750186,826,0.11987305,0.6727905,-7.9345703E-4
1601919750189,827,-0.12133789,-0.28912354,-0.44781494
1601919750192,828,-0.29003906,0.4147339,-0.109436035
1601919750194,829,0.16870117,1.999939,-0.12359619
1601919750197,830,0.81689453,1.4328003,0.28118896
1601919750198,831,-0.70092773,0.14154053,-0.58843994
1601919752512,832,-0.013427734,-0.14459229,-0.082336426
1601919752516,833,-0.18408203,1.489685,-0.6848755
1601919752519,834,0.13696289,1.999939,-0.02130127
1601919752522,835,0.10498047,0.8139038,-0.11651611
1601919752525,836,-0.07006836,-0.40411377,-0.4212036
1601919752528,837,-0.31762695,0.13690186,-0.23809814
1601919752533,838,0.028564453,1.999939,-0.58721924
1601919752536,839,0.90722656,1.5419312,0.23382568
1601919752539,840,-0.6467285,0.10076904,-0.73516846
1601919752542,841,-0.14746094,-0.12750244,-0.10333252
1601919752544,842,-0.14550781,1.5145874,-0.5515747
1601919752547,843,0.23632812,1.999939,-0.022033691
1601919752551,844,0.032226562,0.84051514,0.097839355
1601919752552,845,-0.037109375,-0.4006958,-0.46173096
1601919752555,846,-0.21777344,0.10736084,-0.03692627
1601919752556,847,-0.15820312,1.999939,-0.6165161
1601919752559,848,0.68896484,1.8378296,0.10272217
1601919752562,849,-0.40795898,0.09124756,-0.3887329
1601919752563,850,-0.29760742,-0.15826416,-0.15289307
1601919752564,851,-0.0012207031,1.0187378,-0.58966064
1601919752565,852,0.07397461,1.999939,-0.25958252
1601919752569,853,-0.07421875,0.9723511,-0.11602783
1601919752570,854,-0.033935547,-0.4595337,-0.4036255
1601919752571,855,-0.3239746,0.29364014,-0.30010986
1601919752572,856,0.012939453,1.999939,-0.6592407
1601919752574,857,0.73876953,1.7362671,-0.035705566
1601919752577,858,-0.5944824,-0.04156494,-0.57525635
1601919752579,859,-0.30444336,-0.09234619,-0.10479736
1601919752582,860,-0.012939453,1.0958862,-0.58184814
1601919752583,861,0.07519531,1.999939,-0.2432251
1601919752586,862,0.0546875,0.84198,0.008483887
1601919752591,863,-0.0715332,-0.34332275,-0.3809204
1601919755100,864,-0.25,0.047058105,-0.20220947
1601919755104,865,0.00390625,1.999939,-0.61724854
1601919755108,866,0.6713867,1.8585815,0.1564331
1601919755112,867,-0.4350586,0.07562256,-0.4517212
1601919755115,868,-0.34692383,-0.15045166,-0.206604
1601919755118,869,0.055908203,0.60076904,-0.41583252
1601919755121,870,0.053710938,1.999939,-0.33892822
1601919755123,871,-0.10864258,1.2225952,-0.062072754
1601919755123,872,0.07519531,-0.26983643,-0.31402588
1601919755125,873,-0.25048828,-0.025939941,-0.21343994
1601919755131,874,-0.19946289,1.999939,-0.42510986
1601919755135,875,0.97314453,1.999939,0.34246826
1601919755139,876,-0.32885742,0.19232178,-0.52423096
1601919755140,877,-0.61035156,-0.12432861,-0.3040161
1601919755145,878,0.11987305,0.39788818,-0.28155518
1601919755146,879,0.0017089844,1.999939,-0.25299072
1601919755150,880,0.060302734,1.5101929,0.14276123
1601919755151,881,-0.009277344,-0.25665283,-0.29571533
1601919755155,882,-0.1694336,-0.12701416,-0.21954346
1601919755159,883,-0.35351562,1.999939,-0.6187134
1601919755159,884,0.9343262,1.999939,0.06878662
1601919755162,885,-0.024902344,0.3944702,-0.35333252
1601919755164,886,-0.73583984,-0.13873291,-0.27520752
1601919755167,887,0.10913086,0.23162842,-0.26226807
1601919755168,888,-0.119384766,1.999939,-0.61798096
1601919755170,889,0.24780273,1.65448,-0.14630127
1601919755171,890,0.044921875,-0.16729736,-0.34869385
1601919755172,891,-0.32739258,0.034606934,-0.1104126
1601919755175,892,-0.57958984,1.7382202,-0.70391846
1601919755177,893,1.005127,1.999939,0.1329956
1601919755178,894,0.15161133,0.6930542,-0.3086548
1601919755182,895,-0.9177246,-0.29644775,-0.4763794
1601919757693,896,0.3881836,0.26385498,-0.1494751
1601919757695,897,-0.1262207,1.999939,-0.46710205
1601919757697,898,-0.10644531,1.6019897,0.18035889
1601919757701,899,-0.03491211,-0.15411377,-0.2630005
1601919757703,900,-0.14916992,-0.010803223,-0.23028564
1601919757708,901,-0.38378906,1.7890015,-0.49420166
1601919757709,902,0.6008301,1.999939,0.022399902
1601919757715,903,0.21044922,0.7826538,-0.11920166
1601919757717,904,-0.7519531,-0.2420044,-0.56036377
1601919757723,905,0.375,0.03387451,-0.21148682
1601919757725,906,-0.15844727,1.999939,-0.30670166
1601919757729,907,-0.060791016,1.633728,-0.020812988
1601919757731,908,0.063964844,-0.17071533,-0.33477783
1601919757731,909,-0.13549805,-0.09210205,-0.17437744
1601919757733,910,-0.4663086,1.6264038,-0.72442627
1601919757735,911,0.8244629,1.999939,0.4804077
1601919757738,912,0.20947266,0.8915405,-0.4187622
1601919757739,913,-0.99560547,-0.24542236,-0.39141846
1601919757740,914,0.47973633,0.23944092,-0.1687622
1601919757741,915,-0.13427734,1.999939,-0.23052979
1601919757744,916,0.24243164,1.4594116,0.07904053
1601919757745,917,-0.1862793,-0.09112549,-0.31329346
1601919757749,918,-0.12133789,-0.027893066,-0.13238525
1601919757751,919,-0.41064453,1.999939,-0.74420166
1601919757753,920,0.76464844,1.9303589,0.011169434
1601919757756,921,-0.041259766,0.6012573,-0.15509033
1601919757759,922,-0.7956543,-0.28424072,-0.45513916
1601919757762,923,0.42114258,0.34857178,-0.28985596
1601919757764,924,-0.05493164,1.999939,-0.5857544
1601919757766,925,-0.03540039,1.4005737,-0.0134887695
1601919757768,926,-0.036621094,-0.2769165,-0.27130127
1601919757769,927,-0.17895508,0.08001709,-0.14117432
1601919760269,928,-0.3059082,1.999939,-0.56256104
1601919760271,929,0.8286133,1.9743042,0.2579956
1601919760274,930,-0.27124023,0.34075928,-0.27911377
1601919760276,931,-0.67700195,-0.13140869,-0.39508057
1601919760283,932,0.24414062,0.7699585,-0.38116455
1601919760288,933,-0.22680664,1.999939,-0.08306885
1601919760291,934,0.0637207,1.0602417,0.074645996
1601919760293,935,-0.043701172,-0.35040283,-0.41778564
1601919760297,936,-0.26489258,0.1281128,-0.15704346
1601919760301,937,-0.045898438,1.999939,-0.6448364
1601919760303,938,0.62719727,1.8580933,0.10736084
1601919760304,939,-0.26416016,0.34222412,-0.28619385
1601919760305,940,-0.46923828,-0.25152588,-0.3027954
1601919760306,941,0.21069336,0.883728,-0.74664307
1601919760309,942,0.046142578,1.999939,-0.23345947
1601919760310,943,-0.018310547,1.262146,-0.025939941
1601919760312,944,-0.076416016,-0.33184814,-0.3809204
1601919760314,945,-0.32763672,0.21868896,-0.32086182
1601919760316,946,-0.009521484,1.999939,-0.47369385
1601919760318,947,0.81030273,1.6600952,0.2296753
1601919760319,948,-0.44970703,0.30755615,-0.54473877
1601919760323,949,-0.36376953,-0.1807251,-0.14459229
1601919760326,950,-0.020263672,0.93573,-0.47174072
1601919760328,951,0.0637207,1.999939,-0.08306885
1601919760330,952,-0.024169922,1.0604858,0.11859131
1601919760332,953,0.07861328,-0.3027954,-0.4553833
1601919760335,954,-0.25024414,0.23675537,-0.3184204
1601919760339,955,0.20898438,1.999939,-0.21539307
1601919760344,956,0.625,1.6681519,0.18109131
1601919760354,957,-0.5732422,0.11273193,-0.38165283
1601919760356,958,-0.18188477,-0.07501221,-0.21221924
1601919760362,959,-0.26123047,1.6078491,-0.678772
1601919762852,960,0.14550781,1.9691772,0.101257324
1601919762856,961,-0.12890625,0.9767456,-0.03717041
1601919762861,962,0.1171875,-0.3887329,-0.34820557
1601919762862,963,-0.22680664,0.15447998,-0.18243408
1601919762867,964,-0.59716797,1.999939,-0.7293091
1601919762868,965,0.9333496,1.6261597,0.13885498
1601919762872,966,-0.24829102,0.30169678,-0.4356079
1601919762876,967,-0.33764648,-0.13360596,-0.15338135
1601919762878,968,0.029052734,0.99871826,-0.37408447
1601919762880,969,0.044433594,1.999939,-0.17388916
1601919762883,970,0.001953125,1.0336304,0.06756592
1601919762885,971,-0.010498047,-0.27667236,-0.38360596
1601919762887,972,-0.23364258,0.18426514,-0.21929932
1601919762893,973,0.110839844,1.999939,-0.1338501
1601919762895,974,0.6425781,1.5739136,0.28729248
1601919762898,975,-0.5917969,0.12591553,-0.50494385
1601919762905,976,-0.13769531,-0.058410645,-0.06964111
1601919762906,977,-0.3955078,1.8283081,-0.76885986
1601919762906,978,0.17529297,1.999939,-0.008850098
1601919762907,979,-0.032958984,0.5409546,-0.08868408
1601919762914,980,-0.06689453,-0.28253174,-0.37164307
1601919762915,981,-0.15698242,0.402771,-0.2041626
1601919762921,982,-0.2541504,1.999939,-0.5679321
1601919762921,983,0.5649414,1.6124878,0.054138184
1601919762923,984,-0.53881836,-0.08892822,-0.53375244
1601919762926,985,-0.0026855469,-0.1729126,-0.026672363
1601919762929,986,-0.30249023,1.4118042,-0.96173096
1601919762932,987,0.095703125,1.999939,-0.15582275
1601919762937,988,-0.09643555,0.6310425,-0.10333252
1601919762939,989,-0.05859375,-0.30914307,-0.37017822
1601919762940,990,-0.39282227,0.51971436,-0.3093872
1601919762947,991,0.34204102,1.999939,-0.36236572
1601919765437,992,0.5871582,1.6068726,0.14691162
1601919765440,993,-0.6726074,0.00579834,-0.51519775
1601919765442,994,-0.049072266,-0.05670166,-0.06719971
1601919765445,995,-0.15209961,1.3651733,-0.75982666
1601919765448,996,0.23901367,1.999939,-0.15899658
1601919765452,997,0.0087890625,0.6925659,0.0033569336
1601919765457,998,-0.024902344,-0.30108643,-0.38702393
1601919765458,999,-0.37353516,0.40496826,-0.4336548
1601919765463,1000,0.21655273,1.999939,-0.39727783
1601919765465,1001,0.54052734,1.626648,-0.17486572
1601919765467,1002,-0.52734375,0.02166748,-0.3982544
1601919765471,1003,-0.053955078,-0.10821533,-0.08062744
1601919765473,1004,-0.2626953,1.4003296,-0.81256104
1601919765477,1005,0.15307617,1.999939,-0.21759033
1601919765478,1006,0.06567383,0.77679443,-0.07159424
1601919765479,1007,-0.07299805,-0.36773682,-0.34259033
1601919765480,1008,-0.2109375,0.30584717,-0.25543213
1601919765483,1009,-0.27319336,1.999939,-0.60406494
1601919765485,1010,0.8718262,1.7133179,0.13323975
1601919765487,1011,-0.4716797,-0.04449463,-0.5725708
1601919765490,1012,-0.35913086,0.07244873,-0.06451416
1601919765491,1013,-0.10620117,1.0040894,-0.47418213
1601919765493,1014,0.1303711,1.999939,0.023864746
1601919765495,1015,0.18066406,0.9491577,0.081970215
1601919765498,1016,-0.04248047,-0.33599854,-0.43341064
1601919765502,1017,-0.27807617,0.19134521,-0.08770752
1601919765504,1018,-0.19824219,1.999939,-0.4204712
1601919765506,1019,0.8288574,1.9442749,0.17279053
1601919765512,1020,-0.20874023,0.23016357,-0.300354
1601919765513,1021,-0.64086914,0.01727295,-0.3369751
1601919765515,1022,0.1315918,0.5507202,-0.3027954
1601919765517,1023,-0.07104492,1.999939,-0.4434204
1601919768024,1024,0.10473633,1.2807007,0.055358887
1601919768035,1025,0.03149414,-0.27545166,-0.28790283
1601919768039,1026,-0.10839844,0.015319824,-0.20147705
1601919768043,1027,-0.16015625,1.999939,-0.55426025
1601919768046,1028,0.6772461,1.999939,0.12567139
1601919768046,1029,-0.11010742,0.25335693,-0.27764893
1601919768050,1030,-0.6430664,-0.059631348,-0.32281494
1601919768053,1031,0.23510742,0.4869995,-0.5076294
1601919768056,1032,-0.10131836,1.999939,-0.4824829
1601919768059,1033,-0.1081543,1.3375854,-0.05230713
1601919768064,1034,0.053466797,-0.34405518,-0.24005127
1601919768064,1035,-0.28588867,0.02166748,-0.29962158
1601919768068,1036,-0.34033203,1.999939,-0.60821533
1601919768070,1037,0.93896484,1.9872437,0.26654053
1601919768072,1038,-0.28076172,0.309021,-0.3447876
1601919768074,1039,-0.5656738,-0.08355713,-0.38702393
1601919768076,1040,0.31054688,0.38201904,-0.2642212
1601919768079,1041,-0.3334961,1.999939,-0.004699707
1601919768080,1042,0.18359375,1.2902222,0.015319824
1601919768085,1043,0.06665039,-0.2341919,-0.29644775
1601919768087,1044,-0.24316406,0.013122559,-0.0947876
1601919768090,1045,-0.099609375,1.999939,-0.43389893
1601919768092,1046,0.8059082,1.999939,0.2633667
1601919768094,1047,-0.20214844,0.25775146,-0.33013916
1601919768096,1048,-0.5180664,6.713867E-4,-0.2769165
1601919768099,1049,0.13110352,0.38006592,-0.25933838
1601919768100,1050,-0.0949707,1.999939,-0.34014893
1601919768103,1051,0.04638672,1.4223022,0.025817871
1601919768105,1052,0.042236328,-0.24810791,-0.26763916
1601919768107,1053,-0.31835938,0.062194824,-0.09503174
1601919768109,1054,-0.42749023,1.897644,-0.76812744
1601919768111,1055,0.94873047,1.999939,0.07684326
1601919770603,1056,0.009277344,0.6207886,-0.20440674
1601919770608,1057,-0.8005371,-0.190979,-0.6223755
1601919770611,1058,0.4423828,0.061462402,-0.19342041
1601919770615,1059,-0.4099121,1.999939,-0.569397
1601919770619,1060,0.07543945,1.8561401,0.039245605
1601919770621,1061,0.17895508,-0.22076416,-0.34942627
1601919770623,1062,-0.29541016,0.013122559,-0.18707275
1601919770625,1063,-0.44384766,1.1141968,-0.5029907
1601919770627,1064,0.80566406,1.999939,0.18231201
1601919770631,1065,0.5957031,1.0800171,-0.14068604
1601919770632,1066,-0.94140625,-0.013000488,-0.55303955
1601919770634,1067,0.32006836,-0.18829346,-0.03326416
1601919770635,1068,-0.43896484,1.7411499,-0.6511841
1601919770638,1069,0.22070312,1.999939,0.04437256
1601919770640,1070,0.10229492,0.8012085,0.045837402
1601919770644,1071,-0.08178711,-0.31207275,-0.3789673
1601919770644,1072,-0.2163086,0.26190186,-0.3237915
1601919770646,1073,-0.07495117,1.999939,-0.57403564
1601919770647,1074,0.6135254,1.6625366,0.15374756
1601919770650,1075,-0.3540039,0.15740967,-0.36309814
1601919770652,1076,-0.34765625,-0.11431885,-0.27960205
1601919770654,1077,0.043945312,0.42718506,-0.09307861
1601919770656,1078,-0.019042969,1.999939,-0.58551025
1601919770660,1079,0.15185547,1.3849487,0.1395874
1601919770662,1080,0.14160156,-0.30181885,-0.34210205
1601919770667,1081,-0.16040039,0.019226074,-0.10357666
1601919770668,1082,-0.2578125,1.9901733,-0.4192505
1601919770669,1083,0.6660156,1.999939,0.32244873
1601919770671,1084,0.1652832,0.63079834,-0.24542236
1601919770672,1085,-0.81884766,0.042175293,-0.39215088
1601919770676,1086,0.33520508,0.10272217,-0.15777588
1601919770677,1087,-0.15527344,1.999939,-0.505188
1601919773186,1088,0.032714844,1.6107788,0.06121826
1601919773190,1089,0.11303711,0.07635498,-0.16998291
1601919773193,1090,-0.22045898,-0.15997314,-0.21026611
1601919773195,1091,-0.32983398,1.2684937,-0.6914673
1601919773198,1092,0.43920898,1.999939,-0.020080566
1601919773202,1093,0.46313477,1.4227905,-0.008850098
1601919773203,1094,-0.5878906,-0.010314941,-0.49053955
1601919773206,1095,0.032226562,-0.14971924,-0.08453369
1601919773209,1096,-0.22338867,1.8971558,-0.5947876
1601919773210,1097,0.19580078,1.9784546,0.29681396
1601919773216,1098,0.17236328,0.8756714,0.04046631
1601919773218,1099,0.018066406,-0.21588135,-0.32843018
1601919773222,1100,-0.30004883,0.20526123,-0.34014893
1601919773224,1101,0.15844727,1.999939,-0.2131958
1601919773226,1102,0.54345703,1.999939,0.32611084
1601919773228,1103,0.07495117,0.29315186,-0.30059814
1601919773230,1104,-0.736084,0.023864746,-0.3250122
1601919773232,1105,0.29467773,0.21942139,-0.29986572
1601919773235,1106,-0.1484375,1.999939,-0.32305908
1601919773239,1107,-0.025878906,1.999939,0.15008545
1601919773242,1108,0.2006836,0.5753784,0.08123779
1601919773244,1109,-0.1977539,-0.24517822,-0.38165283
1601919773247,1110,-0.1875,-0.093322754,-0.3760376
1601919773249,1111,0.07788086,1.999939,-0.5298462
1601919773251,1112,0.5957031,1.7584839,0.05706787
1601919773252,1113,0.088134766,1.0192261,-0.26397705
1601919773255,1114,-0.68237305,-0.11480713,-0.3045044
1601919773259,1115,0.43432617,0.71698,-0.41363525
1601919773261,1116,-0.19970703,1.999939,-0.15509033
1601919773264,1117,0.11621094,1.5065308,0.10003662
1601919773267,1118,0.026611328,0.006286621,-0.15582275
1601919773269,1119,-0.11816406,-0.10699463,-0.31549072
1601919775764,1120,-0.056396484,1.739685,-0.69195557
1601919775767,1121,0.45458984,1.999939,-0.028869629
1601919775769,1122,0.08105469,0.8546753,-0.1428833
1601919775771,1123,-0.7661133,-0.35894775,-0.44415283
1601919775772,1124,0.5217285,0.23577881,-0.20147705
1601919775773,1125,-0.27514648,1.999939,-0.8123169
1601919775775,1126,0.0043945312,1.7904663,-0.10845947
1601919775776,1127,-2.4414062E-4,0.005065918,-0.3357544
1601919775779,1128,-0.14526367,0.010437012,-0.05621338
1601919775781,1129,-0.36450195,1.2196655,-0.5874634
1601919775785,1130,0.9448242,1.999939,0.19744873
1601919775787,1131,0.12963867,0.9767456,-0.29058838
1601919775788,1132,-0.9707031,-0.378479,-0.52838135
1601919775794,1133,0.4116211,0.25408936,-0.1687622
1601919775795,1134,-0.21289062,1.999939,-0.347229
1601919775799,1135,0.0703125,1.6764526,0.13494873
1601919775799,1136,0.034179688,0.08709717,-0.1038208
1601919775800,1137,-0.3112793,-0.105529785,-0.2263794
1601919775801,1138,-0.40771484,1.2348022,-0.57403564
1601919775801,1139,0.7067871,1.999939,0.199646
1601919775803,1140,0.41064453,0.9869995,-0.25616455
1601919775805,1141,-0.8154297,-0.23321533,-0.4277954
1601919775806,1142,0.2902832,0.20233154,-0.1585083
1601919775810,1143,-0.2631836,1.999939,-0.52227783
1601919775811,1144,0.032226562,1.8471069,0.14471436
1601919775814,1145,0.01977539,0.00579834,-0.2810669
1601919775815,1146,-0.11035156,-0.09259033,-0.15264893
1601919775819,1147,-0.61938477,1.38031,-0.59576416
1601919775821,1148,0.767334,1.999939,0.25701904
1601919775821,1149,0.27148438,0.81073,-0.23077393
1601919775824,1150,-1.0827637,-0.24224854,-0.51275635
1601919775827,1151,0.50097656,0.16253662,-0.17218018
1601919778349,1152,-0.1586914,1.999939,-0.4631958
1601919778351,1153,7.324219E-4,1.668396,0.14544678
1601919778352,1154,-0.04345703,-0.09185791,-0.19537354
1601919778355,1155,-0.27270508,0.022155762,-0.17974854
1601919778359,1156,-0.5126953,1.5385132,-0.5195923
1601919778361,1157,0.83813477,1.999939,-0.006652832
1601919778365,1158,0.22314453,0.98114014,-0.0725708
1601919778369,1159,-0.88671875,-0.25909424,-0.60894775
1601919778370,1160,0.5324707,0.03363037,-0.22052002
1601919778372,1161,-0.42871094,1.999939,-0.59576416
1601919778373,1162,0.1340332,1.6495972,-0.101135254
1601919778376,1163,-0.05444336,-0.0947876,-0.25738525
1601919778377,1164,-0.22607422,-0.0020141602,-0.16046143
1601919778378,1165,-0.5319824,1.5018921,-0.6790161
1601919778379,1166,0.74438477,1.999939,-0.01763916
1601919778382,1167,0.12109375,0.7897339,-0.20513916
1601919778383,1168,-0.9633789,-0.22467041,-0.56866455
1601919778383,1169,0.4970703,0.039489746,-0.19488525
1601919778385,1170,-0.3112793,1.999939,-0.43658447
1601919778386,1171,0.2548828,1.6522827,0.14007568
1601919778388,1172,0.12475586,-0.05645752,-0.33966064
1601919778389,1173,-0.29760742,0.06903076,-0.08306885
1601919778391,1174,-0.5500488,1.3300171,-0.62945557
1601919778392,1175,0.8378906,1.999939,0.10247803
1601919778393,1176,0.42944336,0.9113159,-0.10284424
1601919778395,1177,-0.888916,-0.22735596,-0.6502075
1601919778395,1178,0.47875977,-0.07989502,-0.120910645
1601919778398,1179,-0.4892578,1.999939,-0.57647705
1601919778401,1180,0.14819336,1.8388062,0.044128418
1601919778402,1181,0.011962891,0.18011475,-0.16925049
1601919778402,1182,-0.21606445,-0.22320557,-0.3164673
1601919778404,1183,-0.4033203,1.2379761,-0.47833252
