# Sensor position: Chest
# Sensor side: Left
# Activity type: Sitting
# Activity code: 0
# Subject id: s1655552
timestamp,seq,accel_x,accel_y,accel_z
1603105653877,0,-0.14208984,-0.87701416,0.2897339
1603105653955,1,-0.15112305,-0.9885864,0.2164917
1603105654034,2,-0.114990234,-1.029602,0.22235107
1603105654113,3,-0.12402344,-1.0835571,0.10369873
1603105654192,4,0.024169922,-1.0784302,0.07513428
1603105654270,5,-0.13232422,-1.0405884,0.15863037
1603105654349,6,-0.02319336,-1.0432739,0.12640381
1603105654428,7,-0.095703125,-1.0442505,0.16204834
1603105654507,8,-0.0847168,-1.006897,0.20843506
1603105654585,9,-0.07324219,-1.0440063,0.17156982
1603105654664,10,-0.12036133,-0.97491455,0.2477417
1603105654743,11,-0.08959961,-0.96466064,0.26068115
1603105654822,12,-0.10083008,-0.9741821,0.26385498
1603105654900,13,-0.11279297,-0.97784424,0.26849365
1603105654979,14,-0.1003418,-0.9927368,0.25115967
1603105655058,15,-0.09350586,-1.010315,0.24261475
1603105655137,16,-0.09741211,-0.9968872,0.2477417
1603105655215,17,-0.08959961,-1.0066528,0.24725342
1603105655294,18,-0.0925293,-1.0037231,0.24432373
1603105655373,19,-0.0925293,-1.0042114,0.2423706
1603105655452,20,-0.0949707,-1.0046997,0.24285889
1603105655530,21,-0.08618164,-0.9990845,0.24578857
1603105655609,22,-0.091796875,-0.9981079,0.2477417
1603105655688,23,-0.09350586,-1.0003052,0.25360107
1603105655767,24,-0.09082031,-0.9961548,0.24822998
1603105655845,25,-0.09008789,-0.9981079,0.24578857
1603105655924,26,-0.08666992,-0.9985962,0.24945068
1603105656003,27,-0.08691406,-1.000061,0.25238037
1603105656082,28,-0.095947266,-0.99884033,0.24578857
1603105656160,29,-0.08496094,-0.99713135,0.2518921
1603105656239,30,-0.09326172,-0.9937134,0.2531128
1603105656318,31,-0.08886719,-0.9990845,0.2518921
1603105656397,32,-0.092285156,-0.9968872,0.25238037
1603105656475,33,-0.09375,-0.99298096,0.25457764
1603105656554,34,-0.08886719,-0.9998169,0.26068115
1603105656633,35,-0.08105469,-0.99884033,0.24749756
1603105656712,36,-0.08569336,-1.008606,0.25653076
1603105656790,37,-0.088134766,-0.9973755,0.2579956
1603105656869,38,-0.0925293,-0.99176025,0.28533936
1603105656948,39,-0.1081543,-0.9854126,0.28045654
1603105657027,40,-0.10058594,-0.9805298,0.2855835
1603105657105,41,-0.100097656,-0.9837036,0.28167725
1603105657184,42,-0.10839844,-0.98028564,0.28656006
1603105657263,43,-0.10449219,-0.98321533,0.26678467
1603105657342,44,-0.11279297,-0.9924927,0.26361084
1603105657420,45,-0.10205078,-0.9902954,0.2489624
1603105657499,46,-0.099609375,-0.99786377,0.25238037
1603105657578,47,-0.10131836,-0.9956665,0.24432373
1603105657657,48,-0.099365234,-1.0012817,0.24090576
1603105657735,49,-0.10913086,-0.9990845,0.24920654
1603105657814,50,-0.10083008,-1.0015259,0.25531006
1603105657893,51,-0.103759766,-0.9871216,0.26507568
1603105657972,52,-0.10253906,-0.9963989,0.26361084
1603105658050,53,-0.09643555,-0.9944458,0.26361084
1603105658129,54,-0.10546875,-0.99664307,0.25482178
1603105658208,55,-0.09790039,-0.9963989,0.26776123
1603105658287,56,-0.100097656,-0.9927368,0.2662964
1603105658365,57,-0.095947266,-0.9871216,0.26922607
1603105658444,58,-0.09863281,-0.98394775,0.27313232
1603105658523,59,-0.09814453,-0.9866333,0.2741089
1603105658602,60,-0.095214844,-0.9859009,0.27313232
1603105658680,61,-0.095703125,-0.987854,0.28045654
1603105658759,62,-0.09326172,-0.9849243,0.2826538
1603105658838,63,-0.09692383,-0.9932251,0.2772827
1603105658917,64,-0.09399414,-0.9800415,0.2892456
1603105658995,65,-0.095947266,-0.97979736,0.28729248
1603105659074,66,-0.096191406,-0.9817505,0.2868042
1603105659153,67,-0.09375,-0.9788208,0.2904663
1603105659232,68,-0.095458984,-0.987854,0.29022217
1603105659310,69,-0.09448242,-0.9812622,0.28460693
1603105659389,70,-0.0949707,-0.97906494,0.28729248
1603105659468,71,-0.095703125,-0.9812622,0.2880249
1603105659547,72,-0.09448242,-0.98760986,0.28363037
1603105659625,73,-0.09448242,-0.98223877,0.28607178
1603105659704,74,-0.09423828,-0.98150635,0.2855835
1603105659783,75,-0.09716797,-0.98223877,0.28948975
1603105659862,76,-0.0949707,-0.9817505,0.28778076
1603105659940,77,-0.09301758,-0.9854126,0.28778076
1603105660019,78,-0.095703125,-0.9800415,0.28485107
1603105660098,79,-0.09423828,-0.9841919,0.28729248
1603105660177,80,-0.09375,-0.9841919,0.28729248
1603105660255,81,-0.09814453,-0.9837036,0.28460693
1603105660334,82,-0.09350586,-0.9817505,0.28753662
1603105660413,83,-0.0949707,-0.9819946,0.2868042
1603105660492,84,-0.095214844,-0.98272705,0.28607178
1603105660570,85,-0.095458984,-0.98150635,0.28948975
1603105660649,86,-0.09814453,-0.98394775,0.29193115
1603105660728,87,-0.09301758,-0.9819946,0.29412842
1603105660807,88,-0.09448242,-0.9776001,0.29608154
1603105660885,89,-0.09838867,-0.9788208,0.2970581
1603105660964,90,-0.09472656,-0.98223877,0.28753662
1603105661043,91,-0.09838867,-0.9819946,0.28045654
1603105661122,92,-0.09301758,-0.98150635,0.2897339
1603105661200,93,-0.10058594,-0.98272705,0.27874756
1603105661279,94,-0.09790039,-0.98565674,0.2789917
1603105661358,95,-0.09887695,-0.9902954,0.27508545
1603105661437,96,-0.099853516,-0.99005127,0.27313232
1603105661515,97,-0.099609375,-0.991272,0.26849365
1603105661594,98,-0.099853516,-0.9915161,0.26531982
1603105661673,99,-0.1003418,-0.9932251,0.26556396
1603105661752,100,-0.10058594,-0.99298096,0.2675171
1603105661830,101,-0.09741211,-0.9949341,0.26800537
1603105661909,102,-0.10229492,-0.9866333,0.27069092
1603105661988,103,-0.10229492,-0.9915161,0.27191162
1603105662067,104,-0.1027832,-0.98223877,0.27264404
1603105662145,105,-0.10083008,-0.98760986,0.2687378
1603105662224,106,-0.1003418,-0.9890747,0.2694702
1603105662303,107,-0.100097656,-0.98931885,0.27264404
1603105662382,108,-0.10131836,-0.99176025,0.27313232
1603105662460,109,-0.1003418,-0.9920044,0.27093506
1603105662539,110,-0.103515625,-0.9873657,0.27313232
1603105662618,111,-0.09863281,-0.98638916,0.27093506
1603105662697,112,-0.09863281,-0.975647,0.2789917
1603105662775,113,-0.095703125,-0.9932251,0.27020264
1603105662854,114,-0.099853516,-0.9956665,0.26312256
1603105662933,115,-0.10424805,-0.9973755,0.26409912
1603105663012,116,-0.103027344,-0.99420166,0.26287842
1603105663090,117,-0.099121094,-0.9920044,0.26507568
1603105663169,118,-0.09790039,-0.9837036,0.27044678
1603105663248,119,-0.09350586,-0.9920044,0.27142334
1603105663327,120,-0.09326172,-0.9951782,0.260437
1603105663405,121,-0.09326172,-0.9898071,0.26776123
1603105663484,122,-0.08544922,-0.9937134,0.2658081
1603105663563,123,-0.09350586,-0.9939575,0.26068115
1603105663642,124,-0.08984375,-1.0098267,0.2682495
1603105663720,125,-0.10644531,-0.9614868,0.31292725
1603105663799,126,-0.10644531,-0.98394775,0.23529053
1603105663878,127,-0.06518555,-1.0122681,0.21966553
1603105663957,128,-0.1237793,-1.0093384,0.23284912
1603105664035,129,-0.09814453,-1.0093384,0.23602295
1603105664114,130,-0.0625,-1.0161743,0.23895264
1603105664193,131,-0.12524414,-0.989563,0.27679443
1603105664272,132,-0.11621094,-0.94488525,0.26507568
1603105664350,133,-0.125,-0.98394775,0.2753296
1603105664429,134,-0.10058594,-1.0142212,0.2518921
1603105664508,135,-0.09887695,-0.9758911,0.24163818
1603105664587,136,-0.06616211,-1.017395,0.2609253
1603105664665,137,-0.075683594,-1.0181274,0.25775146
1603105664744,138,-0.0925293,-0.9558716,0.2789917
1603105664823,139,-0.07714844,-1.0310669,0.23529053
1603105664902,140,-0.09790039,-0.99420166,0.2555542
1603105664980,141,0.0026855469,-0.972229,0.24676514
1603105665059,142,-0.0793457,-1.0042114,0.24383545
1603105665138,143,-0.10107422,-1.024231,0.22845459
1603105665217,144,-0.07519531,-1.0505981,0.22528076
1603105665295,145,-0.09667969,-0.9751587,0.23529053
1603105665374,146,-0.05859375,-1.0093384,0.24505615
1603105665453,147,-0.060058594,-1.0298462,0.26019287
1603105665532,148,-0.08227539,-0.93951416,0.28851318
1603105665610,149,-0.13061523,-0.8945923,0.29315186
1603105665689,150,-0.078125,-1.0484009,0.2838745
1603105665768,151,-0.099609375,-0.93292236,0.29779053
1603105665847,152,-0.087646484,-1.0117798,0.26654053
1603105665925,153,-0.103515625,-1.0022583,0.26776123
1603105666004,154,-0.07006836,-1.0005493,0.28216553
1603105666083,155,-0.07128906,-0.9963989,0.26971436
1603105666162,156,-0.083740234,-0.9456177,0.29974365
1603105666240,157,-0.057617188,-1.0012817,0.26361084
1603105666319,158,-0.041015625,-1.0037231,0.25457764
1603105666398,159,-0.07128906,-1.020813,0.20452881
1603105666477,160,-0.068359375,-1.0183716,0.21160889
1603105666555,161,-0.06567383,-1.0205688,0.20892334
1603105666634,162,-0.05859375,-1.0122681,0.21136475
1603105666713,163,-0.064453125,-1.0046997,0.22894287
1603105666792,164,-0.060546875,-1.0029907,0.2267456
1603105666870,165,-0.072021484,-1.0061646,0.22088623
1603105666949,166,-0.07373047,-0.9973755,0.22210693
1603105667028,167,-0.083984375,-1.013977,0.23187256
1603105667107,168,-0.078125,-1.005188,0.23675537
1603105667185,169,-0.084228516,-1.0073853,0.2387085
1603105667264,170,-0.08129883,-0.9924927,0.24725342
1603105667343,171,-0.08251953,-1.0093384,0.23162842
1603105667422,172,-0.07373047,-1.0044556,0.22943115
1603105667500,173,-0.07763672,-1.0059204,0.20965576
1603105667579,174,-0.08544922,-1.0108032,0.19573975
1603105667658,175,-0.09667969,-1.0098267,0.19866943
1603105667737,176,-0.080566406,-1.0171509,0.21136475
1603105667815,177,-0.08911133,-1.0078735,0.21990967
1603105667894,178,-0.09057617,-1.0098267,0.21820068
1603105667973,179,-0.103027344,-1.0025024,0.21478271
1603105668052,180,-0.092285156,-1.0054321,0.22479248
1603105668130,181,-0.08154297,-1.0064087,0.22601318
1603105668209,182,-0.08544922,-1.003479,0.2189331
1603105668288,183,-0.095703125,-1.0132446,0.2267456
1603105668367,184,-0.08569336,-1.003479,0.21942139
1603105668445,185,-0.09643555,-1.003479,0.22088623
1603105668524,186,-0.096191406,-0.9636841,0.22723389
1603105668603,187,-0.07373047,-1.0899048,0.22601318
1603105668682,188,-0.0625,-0.9468384,0.2074585
1603105668760,189,-0.1015625,-1.0320435,0.23944092
1603105668839,190,-0.06738281,-1.0276489,0.19573975
1603105668918,191,-0.087890625,-0.98272705,0.23016357
1603105668997,192,-0.07128906,-0.9690552,0.2345581
1603105669089,193,-0.055664062,-1.0559692,0.18841553
1603105669182,194,-0.12060547,-1.005188,0.20794678
1603105669275,195,-0.07446289,-1.015686,0.20672607
1603105669368,196,-0.06323242,-1.0227661,0.20111084
1603105669461,197,-0.08959961,-1.0088501,0.20916748
1603105669554,198,-0.07836914,-1.0108032,0.19207764
1603105669647,199,-0.064453125,-1.0164185,0.21136475
1603105669740,200,-0.06738281,-1.0098267,0.20941162
1603105669833,201,-0.107177734,-1.0249634,0.21063232
1603105669926,202,-0.099853516,-1.0132446,0.21795654
1603105670019,203,-0.07104492,-0.9976196,0.2374878
1603105670112,204,-0.08251953,-0.9920044,0.2506714
1603105670205,205,-0.091308594,-0.9968872,0.24871826
1603105670298,206,-0.11328125,-0.9973755,0.24700928
1603105670391,207,-0.099853516,-0.9932251,0.2531128
1603105670484,208,-0.08666992,-1.0005493,0.25775146
1603105670576,209,-0.10888672,-1.0056763,0.25091553
1603105670669,210,-0.107666016,-0.9873657,0.23040771
1603105670762,211,-0.07348633,-1.0098267,0.22601318
1603105670855,212,-0.09033203,-0.9993286,0.23968506
1603105670948,213,-0.10571289,-1.0110474,0.23016357
1603105671041,214,-0.09716797,-0.99346924,0.23382568
1603105671134,215,-0.099609375,-1.0007935,0.24920654
1603105671227,216,-0.08959961,-1.003479,0.23724365
1603105671320,217,-0.107421875,-0.9981079,0.23602295
1603105671413,218,-0.09692383,-1.0076294,0.24017334
1603105671506,219,-0.084228516,-0.99835205,0.2411499
1603105671599,220,-0.100097656,-1.0003052,0.2531128
1603105671692,221,-0.08886719,-0.98687744,0.25994873
1603105671785,222,-0.09033203,-0.9932251,0.2609253
1603105671878,223,-0.100097656,-1.000061,0.23406982
1603105671971,224,-0.10961914,-0.9981079,0.22796631
1603105672049,225,-0.079833984,-1.0090942,0.23358154
1603105672128,226,-0.09350586,-1.0071411,0.24578857
1603105672207,227,-0.088378906,-0.9807739,0.24066162
1603105672286,228,-0.1081543,-1.0081177,0.21746826
1603105672364,229,-0.095947266,-1.0171509,0.23309326
1603105672443,230,-0.07348633,-0.989563,0.24871826
1603105672522,231,-0.08642578,-1.0095825,0.22918701
1603105672601,232,-0.10449219,-1.00177,0.24749756
1603105672679,233,-0.095947266,-0.99542236,0.24456787
1603105672758,234,-0.08178711,-1.0005493,0.2514038
1603105672837,235,-0.083984375,-0.9932251,0.2543335
1603105672916,236,-0.09277344,-1.0015259,0.24578857
1603105672994,237,-0.095703125,-1.0010376,0.2518921
1603105673073,238,-0.0847168,-0.9924927,0.26019287
1603105673152,239,-0.08325195,-0.9968872,0.2567749
1603105673231,240,-0.09692383,-0.9849243,0.26531982
1603105673309,241,-0.092285156,-0.99835205,0.2584839
1603105673388,242,-0.08105469,-0.991272,0.2772827
1603105673467,243,-0.09423828,-0.98028564,0.28411865
1603105673546,244,-0.092041016,-0.9883423,0.27020264
1603105673624,245,-0.0871582,-0.99298096,0.27337646
1603105673703,246,-0.0871582,-0.9871216,0.28118896
1603105673782,247,-0.08984375,-0.99420166,0.26531982
1603105673861,248,-0.0925293,-0.99176025,0.27020264
1603105673939,249,-0.091552734,-0.9961548,0.25994873
1603105674018,250,-0.08666992,-0.991272,0.2592163
1603105674097,251,-0.095214844,-0.9976196,0.25604248
1603105674176,252,-0.09277344,-0.99420166,0.25164795
1603105674254,253,-0.09008789,-0.9973755,0.25360107
1603105674333,254,-0.09082031,-0.9976196,0.24822998
1603105674412,255,-0.09350586,-0.9990845,0.24993896
1603105674491,256,-0.09423828,-0.99664307,0.2506714
1603105674569,257,-0.09375,-1.0010376,0.24261475
1603105674648,258,-0.091796875,-0.99957275,0.23968506
1603105674727,259,-0.092041016,-1.0066528,0.23797607
1603105674806,260,-0.09375,-1.0015259,0.23626709
1603105674884,261,-0.0949707,-1.0005493,0.24603271
1603105674963,262,-0.09301758,-1.0022583,0.23822021
1603105675042,263,-0.08959961,-0.99664307,0.24261475
1603105675121,264,-0.091552734,-1.0039673,0.24066162
1603105675199,265,-0.095458984,-1.0003052,0.23822021
1603105675278,266,-0.09448242,-1.0022583,0.24407959
1603105675357,267,-0.09008789,-1.0020142,0.24285889
1603105675436,268,-0.095703125,-1.0005493,0.23919678
1603105675514,269,-0.09814453,-1.0003052,0.24163818
1603105675593,270,-0.09667969,-0.9998169,0.24554443
1603105675672,271,-0.095458984,-0.9985962,0.24456787
1603105675751,272,-0.1003418,-0.9990845,0.24481201
1603105675829,273,-0.09838867,-1.000061,0.24212646
1603105675908,274,-0.09887695,-1.0012817,0.2399292
1603105675987,275,-0.09814453,-1.0012817,0.23919678
1603105676066,276,-0.10131836,-1.0003052,0.25042725
1603105676144,277,-0.09692383,-0.9968872,0.24383545
1603105676223,278,-0.09790039,-1.0032349,0.24993896
1603105676302,279,-0.09765625,-0.9956665,0.25823975
1603105676381,280,-0.09692383,-0.99713135,0.25115967
1603105676459,281,-0.09423828,-0.9981079,0.24603271
1603105676538,282,-0.095947266,-0.9951782,0.2567749
1603105676617,283,-0.09350586,-0.9961548,0.25775146
1603105676696,284,-0.09326172,-0.9944458,0.25872803
1603105676774,285,-0.10180664,-0.9961548,0.25457764
1603105676853,286,-0.09692383,-0.99664307,0.2555542
1603105676932,287,-0.092041016,-0.99713135,0.2567749
1603105677011,288,-0.092041016,-0.99346924,0.25946045
1603105677089,289,-0.095947266,-0.99053955,0.26239014
1603105677168,290,-0.09448242,-0.9961548,0.25701904
1603105677247,291,-0.091552734,-0.9968872,0.26068115
1603105677326,292,-0.09692383,-0.9939575,0.260437
1603105677404,293,-0.09350586,-0.9990845,0.2423706
1603105677483,294,-0.09350586,-1.0007935,0.24066162
1603105677562,295,-0.091552734,-0.9961548,0.24993896
1603105677641,296,-0.0949707,-0.9993286,0.24066162
1603105677719,297,-0.091308594,-1.0003052,0.24334717
1603105677798,298,-0.091308594,-0.9927368,0.2514038
1603105677877,299,-0.08911133,-1.0010376,0.24749756
1603105677956,300,-0.091552734,-0.99542236,0.25213623
1603105678034,301,-0.0949707,-0.9907837,0.25775146
1603105678113,302,-0.09106445,-1.005188,0.24188232
1603105678192,303,-0.09863281,-0.98272705,0.26263428
1603105678271,304,-0.080566406,-1.008606,0.25238037
1603105678349,305,-0.10498047,-0.9907837,0.2489624
1603105678428,306,-0.107666016,-0.99468994,0.2592163
1603105678507,307,-0.07495117,-1.005188,0.24554443
1603105678586,308,-0.11230469,-0.97540283,0.2748413
1603105678664,309,-0.095703125,-0.99664307,0.25897217
1603105678743,310,-0.11450195,-0.9907837,0.25604248
1603105678822,311,-0.13427734,-0.99713135,0.24822998
1603105678901,312,-0.12011719,-1.0015259,0.24871826
1603105678979,313,-0.12036133,-0.9873657,0.26385498
1603105679058,314,-0.11352539,-0.99176025,0.2538452
1603105679137,315,-0.12011719,-0.99835205,0.25482178
1603105679216,316,-0.11767578,-0.99468994,0.25457764
1603105679294,317,-0.11450195,-0.99176025,0.26849365
1603105679373,318,-0.1184082,-0.98150635,0.28216553
1603105679452,319,-0.11230469,-0.9829712,0.28753662
1603105679531,320,-0.10986328,-0.9751587,0.29925537
1603105679609,321,-0.10449219,-0.9768677,0.30218506
1603105679688,322,-0.1027832,-0.9841919,0.28118896
1603105679767,323,-0.10083008,-0.987854,0.24212646
1603105679846,324,-0.095214844,-0.9998169,0.23309326
1603105679924,325,-0.10131836,-1.0027466,0.2506714
1603105680003,326,-0.095947266,-1.0042114,0.23699951
1603105680082,327,-0.10107422,-0.99664307,0.2501831
1603105680161,328,-0.099853516,-0.9951782,0.24603271
1603105680239,329,-0.09057617,-1.0081177,0.23919678
1603105680318,330,-0.10522461,-0.9859009,0.26263428
1603105680397,331,-0.09814453,-0.99542236,0.24993896
1603105680476,332,-0.103271484,-0.99176025,0.25872803
1603105680554,333,-0.099365234,-0.9927368,0.25360107
1603105680633,334,-0.09643555,-0.99786377,0.2597046
1603105680712,335,-0.10083008,-0.99053955,0.25823975
1603105680791,336,-0.09741211,-1.0005493,0.25335693
1603105680869,337,-0.10180664,-0.9949341,0.25579834
1603105680948,338,-0.09863281,-0.9961548,0.26507568
1603105681027,339,-0.09106445,-0.9968872,0.2567749
1603105681106,340,-0.08544922,-0.99664307,0.27264404
1603105681184,341,-0.092285156,-0.9961548,0.2694702
1603105681263,342,-0.09838867,-0.9846802,0.27044678
1603105681342,343,-0.09375,-0.9793091,0.277771
1603105681421,344,-0.079833984,-1.0029907,0.26116943
1603105681499,345,-0.10986328,-1.0007935,0.2387085
1603105681578,346,-0.110839844,-1.0039673,0.26287842
1603105681657,347,-0.07348633,-0.9829712,0.27386475
1603105681736,348,-0.1015625,-0.9890747,0.26531982
1603105681814,349,-0.08691406,-0.99053955,0.27337646
1603105681893,350,-0.10986328,-0.97320557,0.27679443
1603105681972,351,-0.09716797,-1.0007935,0.2682495
1603105682051,352,-0.09692383,-0.99591064,0.26068115
1603105682129,353,-0.09033203,-0.99298096,0.2592163
1603105682208,354,-0.08959961,-0.9981079,0.25994873
1603105682287,355,-0.092285156,-0.98321533,0.28094482
1603105682366,356,-0.0949707,-0.98760986,0.28070068
1603105682444,357,-0.099609375,-0.9800415,0.28875732
1603105682523,358,-0.09814453,-0.9824829,0.28948975
1603105682602,359,-0.10449219,-0.9837036,0.27996826
1603105682681,360,-0.09667969,-0.98150635,0.27069092
1603105682759,361,-0.099365234,-0.9944458,0.2543335
1603105682838,362,-0.10107422,-0.99786377,0.25164795
1603105682917,363,-0.10205078,-1.0003052,0.23431396
1603105682996,364,-0.087890625,-1.0029907,0.2411499
1603105683074,365,-0.103271484,-0.99468994,0.2597046
1603105683153,366,-0.10595703,-0.989563,0.2616577
1603105683232,367,-0.10522461,-1.000061,0.2501831
1603105683311,368,-0.100097656,-0.986145,0.25457764
1603105683389,369,-0.09790039,-1.0044556,0.25164795
1603105683468,370,-0.09765625,-0.9973755,0.2477417
1603105683547,371,-0.0949707,-0.99224854,0.25897217
1603105683626,372,-0.10668945,-1.0049438,0.24603271
1603105683704,373,-0.11254883,-0.9885864,0.24383545
1603105683783,374,-0.095947266,-1.003479,0.25408936
1603105683862,375,-0.08203125,-0.9849243,0.24749756
1603105683941,376,-0.09301758,-0.99053955,0.26312256
1603105684019,377,-0.09082031,-1.0183716,0.23699951
1603105684098,378,-0.09448242,-0.9963989,0.24627686
1603105684177,379,-0.068359375,-0.9829712,0.262146
1603105684256,380,-0.10058594,-0.98394775,0.2753296
1603105684334,381,-0.10083008,-1.0032349,0.23846436
1603105684413,382,-0.099121094,-1.003479,0.25897217
1603105684492,383,-0.107421875,-0.9866333,0.25750732
1603105684571,384,-0.095214844,-1.0056763,0.24554443
1603105684649,385,-0.088134766,-0.99786377,0.24920654
1603105684728,386,-0.099609375,-1.000061,0.246521
1603105684807,387,-0.10961914,-0.9968872,0.24505615
1603105684886,388,-0.091308594,-1.0025024,0.24139404
1603105684964,389,-0.07421875,-0.9998169,0.24481201
1603105685043,390,-0.076660156,-0.9939575,0.2658081
1603105685122,391,-0.08496094,-1.0022583,0.22454834
1603105685201,392,-0.095214844,-1.000061,0.2584839
1603105685279,393,-0.092041016,-0.99346924,0.25335693
1603105685358,394,-0.09423828,-0.9976196,0.26116943
1603105685437,395,-0.10180664,-0.98760986,0.26678467
1603105685516,396,-0.099365234,-0.9902954,0.2670288
1603105685594,397,-0.09057617,-0.9932251,0.25531006
1603105685673,398,-0.09326172,-0.9949341,0.2477417
1603105685752,399,-0.08129883,-1.0020142,0.23138428
1603105685831,400,-0.088378906,-1.0071411,0.23944092
1603105685909,401,-0.111816406,-0.9920044,0.24700928
1603105685988,402,-0.09741211,-1.003479,0.24188232
1603105686067,403,-0.095458984,-1.0003052,0.24163818
1603105686146,404,-0.083740234,-1.000061,0.24603271
1603105686224,405,-0.095458984,-0.9873657,0.246521
1603105686303,406,-0.079589844,-1.0032349,0.24139404
1603105686382,407,-0.075683594,-1.0127563,0.22698975
1603105686461,408,-0.08642578,-0.9939575,0.2567749
1603105686539,409,-0.0871582,-0.9993286,0.246521
1603105686618,410,-0.08642578,-0.9937134,0.25164795
1603105686697,411,-0.08203125,-0.99542236,0.2597046
1603105686776,412,-0.095458984,-0.9990845,0.2453003
1603105686854,413,-0.088378906,-0.99786377,0.2567749
1603105686933,414,-0.09082031,-0.9915161,0.26409912
1603105687012,415,-0.0949707,-0.9998169,0.24700928
1603105687091,416,-0.084228516,-1.0042114,0.22210693
1603105687183,417,-0.08227539,-1.0022583,0.2189331
1603105687276,418,-0.084228516,-1.0159302,0.22283936
1603105687369,419,-0.09057617,-0.9998169,0.23797607
1603105687461,420,-0.0871582,-1.0054321,0.230896
1603105687554,421,-0.08862305,-1.0044556,0.22747803
1603105687647,422,-0.08227539,-1.0120239,0.23114014
1603105687739,423,-0.08251953,-1.0027466,0.23236084
1603105687832,424,-0.09423828,-1.003479,0.23577881
1603105687925,425,-0.103515625,-0.99884033,0.23968506
1603105688017,426,-0.084472656,-1.0071411,0.23406982
1603105688110,427,-0.071777344,-0.99542236,0.23114014
1603105688203,428,-0.072021484,-1.0134888,0.2387085
1603105688295,429,-0.09814453,-0.9932251,0.24749756
1603105688388,430,-0.11352539,-0.99835205,0.24407959
1603105688481,431,-0.0793457,-1.0042114,0.23431396
1603105688574,432,-0.07446289,-1.0044556,0.24627686
1603105688666,433,-0.08911133,-1.0007935,0.23602295
1603105688759,434,-0.09643555,-0.9968872,0.24188232
1603105688852,435,-0.08984375,-1.0005493,0.25360107
1603105688944,436,-0.080078125,-0.99664307,0.24700928
1603105689037,437,-0.08300781,-1.0037231,0.24945068
1603105689130,438,-0.091552734,-0.99591064,0.24359131
1603105689222,439,-0.087890625,-1.0003052,0.26141357
1603105689315,440,-0.08618164,-0.9949341,0.25238037
1603105689408,441,-0.08691406,-0.9951782,0.25408936
1603105689500,442,-0.08642578,-0.9998169,0.24725342
1603105689593,443,-0.09790039,-1.0027466,0.2687378
1603105689686,444,-0.087890625,-0.98101807,0.27972412
1603105689778,445,-0.076416016,-1.000061,0.26263428
1603105689871,446,-0.08642578,-0.9981079,0.24993896
1603105689964,447,-0.10083008,-1.0049438,0.23773193
1603105690057,448,-0.09667969,-0.99786377,0.22137451
1603105690135,449,-0.08618164,-1.000061,0.21746826
1603105690214,450,-0.08496094,-1.0095825,0.23699951
1603105690293,451,-0.09887695,-0.99664307,0.23724365
1603105690372,452,-0.08984375,-1.0032349,0.2387085
1603105690450,453,-0.079589844,-1.0044556,0.23895264
1603105690529,454,-0.091552734,-0.99224854,0.24627686
1603105690608,455,-0.099365234,-1.0025024,0.23309326
1603105690687,456,-0.1003418,-1.0095825,0.23699951
1603105690765,457,-0.100097656,-1.0010376,0.23358154
1603105690844,458,-0.09765625,-0.9927368,0.25115967
1603105690923,459,-0.07543945,-1.0010376,0.23968506
1603105691002,460,-0.09057617,-1.0056763,0.23260498
1603105691080,461,-0.10058594,-0.9993286,0.23822021
1603105691159,462,-0.09472656,-1.0037231,0.24041748
1603105691238,463,-0.08300781,-1.0012817,0.24017334
1603105691317,464,-0.0847168,-0.9976196,0.24749756
1603105691395,465,-0.091552734,-0.99957275,0.23846436
1603105691474,466,-0.08984375,-1.0037231,0.23968506
1603105691553,467,-0.095947266,-0.9961548,0.25091553
1603105691632,468,-0.0847168,-0.9985962,0.24359131
1603105691710,469,-0.0847168,-1.0046997,0.24505615
1603105691789,470,-0.08251953,-0.9939575,0.24212646
1603105691868,471,-0.083984375,-1.0044556,0.2526245
1603105691947,472,-0.091308594,-0.9956665,0.24993896
1603105692025,473,-0.08520508,-0.99542236,0.24871826
1603105692104,474,-0.0925293,-0.9956665,0.26312256
1603105692183,475,-0.08251953,-0.9985962,0.2526245
1603105692262,476,-0.088134766,-0.9976196,0.25335693
1603105692340,477,-0.068115234,-1.0005493,0.26068115
1603105692419,478,-0.118896484,-0.9846802,0.2489624
1603105692498,479,-0.083496094,-0.9961548,0.25238037
1603105692577,480,-0.079589844,-1.0073853,0.26190186
1603105692655,481,-0.08911133,-0.98638916,0.2579956
1603105692734,482,-0.095947266,-0.9990845,0.25823975
1603105692813,483,-0.08251953,-0.9993286,0.25335693
1603105692892,484,-0.095703125,-0.99224854,0.2592163
1603105692970,485,-0.095458984,-0.99957275,0.24920654
1603105693049,486,-0.09790039,-0.9920044,0.2584839
1603105693128,487,-0.088378906,-0.99420166,0.25604248
1603105693207,488,-0.095214844,-0.9939575,0.26385498
1603105693285,489,-0.078125,-0.98931885,0.25775146
1603105693364,490,-0.08227539,-0.99884033,0.2584839
1603105693443,491,-0.1003418,-0.9883423,0.26141357
1603105693522,492,-0.08154297,-1.0010376,0.2567749
1603105693600,493,-0.0769043,-0.99468994,0.25360107
1603105693679,494,-0.08178711,-0.99786377,0.2579956
1603105693758,495,-0.08886719,-1.0059204,0.24359131
1603105693837,496,-0.11401367,-0.98638916,0.2584839
1603105693915,497,-0.09741211,-0.99053955,0.26654053
1603105693994,498,-0.06567383,-0.99346924,0.26971436
1603105694073,499,-0.087890625,-0.9907837,0.26434326
1603105694152,500,-0.09667969,-0.9854126,0.27557373
1603105694230,501,-0.10498047,-0.9871216,0.24920654
1603105694309,502,-0.0871582,-1.0130005,0.25335693
1603105694388,503,-0.042236328,-0.99053955,0.2543335
1603105694467,504,-0.08691406,-0.9973755,0.26971436
1603105694545,505,-0.092285156,-0.99420166,0.2477417
1603105694624,506,-0.09887695,-0.98809814,0.26312256
1603105694703,507,-0.08325195,-0.9937134,0.26727295
1603105694782,508,-0.0793457,-0.991272,0.26507568
1603105694860,509,-0.08154297,-0.9920044,0.27264404
1603105694939,510,-0.08227539,-0.98516846,0.26556396
1603105695018,511,-0.09057617,-0.99664307,0.26654053
1603105695097,512,-0.08300781,-0.9846802,0.27191162
1603105695175,513,-0.09033203,-0.9885864,0.26605225
1603105695254,514,-0.083496094,-0.9981079,0.26800537
1603105695333,515,-0.06591797,-0.9907837,0.2946167
1603105695412,516,-0.083740234,-0.973938,0.29193115
1603105695490,517,-0.12890625,-0.98394775,0.2753296
1603105695569,518,-0.096191406,-0.9920044,0.27679443
1603105695648,519,-0.11279297,-1.00177,0.27142334
1603105695727,520,-0.11694336,-0.9573364,0.29681396
1603105695805,521,-0.0715332,-0.98760986,0.29901123
1603105695884,522,-0.07714844,-0.98883057,0.27337646
1603105695963,523,-0.08911133,-0.9819946,0.29071045
1603105696042,524,-0.0871582,-0.99346924,0.27093506
1603105696120,525,-0.083496094,-0.98760986,0.2687378
1603105696199,526,-0.087646484,-0.9829712,0.27850342
1603105696278,527,-0.053466797,-0.9976196,0.2597046
1603105696357,528,-0.088134766,-0.99102783,0.27825928
1603105696435,529,-0.083984375,-0.98638916,0.2753296
1603105696514,530,-0.088134766,-0.97369385,0.29901123
1603105696593,531,-0.0859375,-0.98394775,0.29071045
1603105696672,532,-0.080322266,-0.9819946,0.29656982
1603105696750,533,-0.087646484,-0.9817505,0.28582764
1603105696829,534,-0.08984375,-0.9854126,0.28582764
1603105696908,535,-0.083984375,-0.9871216,0.2826538
1603105696987,536,-0.08984375,-0.98443604,0.29388428
1603105697065,537,-0.084472656,-0.9866333,0.28460693
1603105697144,538,-0.08618164,-0.9780884,0.29022217
1603105697223,539,-0.08496094,-0.9783325,0.2850952
1603105697302,540,-0.08666992,-0.98638916,0.29144287
1603105697380,541,-0.07714844,-0.98321533,0.2897339
1603105697459,542,-0.0690918,-0.99298096,0.27801514
1603105697538,543,-0.09423828,-0.9795532,0.3126831
1603105697617,544,-0.09448242,-0.9673462,0.31878662
1603105697695,545,-0.079589844,-0.9873657,0.2970581
1603105697774,546,-0.072265625,-0.9807739,0.27996826
1603105697853,547,-0.09741211,-0.9924927,0.28460693
1603105697932,548,-0.09057617,-0.9854126,0.26898193
1603105698010,549,-0.09667969,-0.9924927,0.2658081
1603105698089,550,-0.071777344,-0.9819946,0.24310303
1603105698168,551,-0.07104492,-1.0049438,0.23553467
1603105698247,552,-0.092285156,-0.99786377,0.25823975
1603105698325,553,-0.083740234,-0.9976196,0.2489624
1603105698404,554,-0.07739258,-0.99664307,0.25042725
1603105698483,555,-0.08251953,-1.0003052,0.24993896
1603105698562,556,-0.08129883,-1.0007935,0.24603271
1603105698640,557,-0.08911133,-0.99884033,0.2501831
1603105698719,558,-0.08203125,-1.0003052,0.24676514
1603105698798,559,-0.084472656,-1.0015259,0.2501831
1603105698877,560,-0.07714844,-1.0027466,0.24212646
1603105698955,561,-0.08105469,-0.99786377,0.25360107
1603105699034,562,-0.092041016,-0.99468994,0.24505615
1603105699113,563,-0.080566406,-0.99835205,0.2567749
1603105699192,564,-0.08569336,-0.99664307,0.24798584
1603105699270,565,-0.07714844,-1.0025024,0.24310303
1603105699349,566,-0.07910156,-1.0093384,0.24310303
1603105699428,567,-0.08886719,-0.9951782,0.25213623
1603105699507,568,-0.06567383,-0.9944458,0.23944092
1603105699585,569,-0.09692383,-1.0044556,0.24432373
1603105699664,570,-0.08496094,-1.0083618,0.23431396
1603105699743,571,-0.10180664,-0.9841919,0.2567749
1603105699822,572,-0.07104492,-1.0022583,0.2489624
1603105699900,573,-0.026123047,-0.99298096,0.25408936
1603105699979,574,-0.10546875,-1.0029907,0.24041748
1603105700058,575,-0.114746094,-1.0105591,0.22576904
1603105700137,576,-0.0925293,-0.987854,0.260437
1603105700215,577,-0.064453125,-1.0012817,0.2597046
1603105700294,578,-0.07788086,-0.9968872,0.26409912
1603105700373,579,-0.09375,-0.9890747,0.262146
1603105700452,580,-0.09887695,-0.9951782,0.25897217
1603105700530,581,-0.09326172,-0.9846802,0.26556396
1603105700609,582,-0.09350586,-0.9990845,0.26556396
1603105700688,583,-0.08935547,-0.98638916,0.26531982
1603105700767,584,-0.10473633,-0.9990845,0.25872803
1603105700845,585,-0.10131836,-0.991272,0.2592163
1603105700924,586,-0.06323242,-0.99957275,0.26409912
1603105701003,587,-0.091552734,-0.99346924,0.2526245
1603105701082,588,-0.08325195,-0.9993286,0.26605225
1603105701160,589,-0.107177734,-0.9890747,0.26141357
1603105701239,590,-0.103759766,-0.99176025,0.26019287
1603105701318,591,-0.07055664,-0.9915161,0.28411865
1603105701397,592,-0.080322266,-0.98883057,0.26116943
1603105701475,593,-0.0793457,-0.99835205,0.24700928
1603105701554,594,-0.09838867,-1.0066528,0.23944092
1603105701633,595,-0.095214844,-1.0003052,0.2164917
1603105701712,596,-0.0690918,-1.0117798,0.22381592
1603105701790,597,-0.087402344,-0.9956665,0.24945068
1603105701869,598,-0.091308594,-1.0007935,0.24212646
1603105701948,599,-0.084472656,-1.0012817,0.23846436
1603105702027,600,-0.091796875,-1.0020142,0.24798584
1603105702105,601,-0.076660156,-1.000061,0.24163818
1603105702184,602,-0.08569336,-0.9998169,0.24578857
1603105702263,603,-0.08496094,-1.0066528,0.23797607
1603105702342,604,-0.08862305,-1.0003052,0.23944092
1603105702420,605,-0.07788086,-0.9976196,0.25286865
1603105702499,606,-0.08154297,-0.99664307,0.24945068
1603105702578,607,-0.09692383,-1.00177,0.24993896
1603105702657,608,-0.07885742,-1.0010376,0.24163818
1603105702735,609,-0.09448242,-0.9932251,0.25457764
1603105702814,610,-0.09008789,-0.99420166,0.24456787
1603105702893,611,-0.09375,-0.9927368,0.26898193
1603105702972,612,-0.06347656,-0.9976196,0.24163818
1603105703050,613,-0.0769043,-1.0061646,0.24749756
1603105703129,614,-0.10668945,-0.9956665,0.24749756
1603105703208,615,-0.09423828,-0.9961548,0.24749756
1603105703287,616,-0.072509766,-1.000061,0.25360107
1603105703365,617,-0.068359375,-0.99542236,0.25872803
1603105703444,618,-0.08935547,-0.99468994,0.2584839
1603105703523,619,-0.092285156,-0.9937134,0.25726318
1603105703602,620,-0.080322266,-0.9990845,0.26019287
1603105703680,621,-0.0871582,-0.99005127,0.24945068
1603105703759,622,-0.07495117,-0.9961548,0.25213623
1603105703838,623,-0.0793457,-0.99468994,0.26190186
1603105703917,624,-0.083984375,-1.0025024,0.2489624
1603105703995,625,-0.09472656,-0.9944458,0.26654053
1603105704074,626,-0.08569336,-0.9907837,0.26605225
1603105704153,627,-0.0925293,-0.9968872,0.26385498
1603105704232,628,-0.09399414,-0.99053955,0.26678467
1603105704310,629,-0.0859375,-0.98809814,0.27288818
1603105704389,630,-0.08569336,-0.98883057,0.26922607
1603105704468,631,-0.09033203,-0.99542236,0.262146
1603105704547,632,-0.08642578,-0.989563,0.27191162
1603105704625,633,-0.08691406,-0.9927368,0.2662964
1603105704704,634,-0.083740234,-0.9927368,0.2662964
1603105704783,635,-0.09082031,-0.9937134,0.27044678
1603105704862,636,-0.09008789,-0.9961548,0.26898193
1603105704940,637,-0.09033203,-0.989563,0.2687378
1603105705019,638,-0.087890625,-0.9873657,0.26849365
1603105705098,639,-0.08935547,-0.9963989,0.26361084
1603105705177,640,-0.092041016,-0.98760986,0.2694702
1603105705269,641,-0.09082031,-0.9902954,0.2711792
1603105705361,642,-0.08886719,-0.98028564,0.28704834
1603105705453,643,-0.091796875,-0.9805298,0.2850952
1603105705545,644,-0.08862305,-0.98101807,0.29241943
1603105705637,645,-0.09008789,-0.97857666,0.29364014
1603105705730,646,-0.09008789,-0.98223877,0.28826904
1603105705822,647,-0.088378906,-0.97540283,0.29901123
1603105705914,648,-0.09399414,-0.975647,0.30047607
1603105706006,649,-0.072753906,-0.9805298,0.3036499
1603105706098,650,-0.08154297,-0.9751587,0.31121826
1603105706191,651,-0.099365234,-0.97003174,0.30975342
1603105706283,652,-0.09814453,-0.97247314,0.30755615
1603105706375,653,-0.095703125,-0.97369385,0.30926514
1603105706467,654,-0.087402344,-0.97247314,0.30267334
1603105706559,655,-0.095947266,-0.9812622,0.2970581
1603105706652,656,-0.103027344,-0.9702759,0.29388428
1603105706744,657,-0.05834961,-0.97662354,0.30194092
1603105706836,658,-0.08154297,-0.9898071,0.2921753
1603105706928,659,-0.099365234,-0.97540283,0.3131714
1603105707020,660,-0.100097656,-0.9824829,0.2958374
1603105707112,661,-0.09741211,-0.9834595,0.30511475
1603105707205,662,-0.068603516,-0.9585571,0.3222046
1603105707297,663,-0.06616211,-0.9859009,0.2850952
1603105707389,664,-0.10888672,-1.00177,0.2670288
1603105707481,665,-0.122558594,-0.98272705,0.24139404
1603105707573,666,-0.08276367,-1.0022583,0.24090576
1603105707666,667,-0.0769043,-0.9944458,0.24505615
1603105707758,668,-0.07910156,-1.0073853,0.2453003
1603105707850,669,-0.10473633,-0.991272,0.24676514
1603105707942,670,-0.109375,-1.0039673,0.24456787
1603105708034,671,-0.09472656,-0.9849243,0.26849365
1603105708127,672,-0.07543945,-0.98760986,0.2658081
1603105708205,673,-0.09350586,-1.0003052,0.24993896
1603105708284,674,-0.11425781,-0.9937134,0.24554443
1603105708363,675,-0.08154297,-0.99176025,0.2411499
1603105708442,676,-0.068847656,-1.0166626,0.24359131
1603105708520,677,-0.09106445,-0.9968872,0.24017334
1603105708599,678,-0.10424805,-1.0066528,0.23162842
1603105708678,679,-0.08642578,-0.9981079,0.24359131
1603105708757,680,-0.08251953,-1.0120239,0.2453003
1603105708835,681,-0.106933594,-0.9927368,0.24310303
1603105708914,682,-0.09667969,-1.00177,0.23797607
1603105708993,683,-0.09350586,-0.9907837,0.24407959
1603105709072,684,-0.06689453,-0.99664307,0.2531128
1603105709150,685,-0.079589844,-1.008606,0.2753296
1603105709229,686,-0.13696289,-0.97662354,0.26312256
1603105709308,687,-0.12426758,-1.0039673,0.24627686
1603105709387,688,-0.091796875,-0.987854,0.26898193
1603105709465,689,-0.08203125,-0.98809814,0.27972412
1603105709544,690,-0.096191406,-0.9898071,0.26776123
1603105709623,691,-0.14160156,-1.0029907,0.23651123
1603105709702,692,-0.11743164,-0.9985962,0.2296753
1603105709780,693,-0.08129883,-0.9944458,0.22113037
1603105709859,694,-0.09472656,-0.99884033,0.2387085
1603105709938,695,-0.05859375,-1.0327759,0.21600342
1603105710017,696,-0.09448242,-1.0020142,0.21820068
1603105710095,697,-0.092285156,-1.0198364,0.230896
1603105710174,698,-0.10180664,-1.0012817,0.21136475
1603105710253,699,-0.13305664,-1.0215454,0.20843506
1603105710332,700,-0.1274414,-1.0044556,0.22503662
1603105710410,701,-0.051513672,-0.9854126,0.21600342
1603105710489,702,-0.041503906,-0.9949341,0.25946045
1603105710568,703,-0.064208984,-0.9956665,0.23944092
1603105710647,704,-0.09472656,-1.0005493,0.2267456
1603105710725,705,-0.11230469,-1.0066528,0.21966553
1603105710804,706,-0.107910156,-1.010315,0.2098999
1603105710883,707,-0.11206055,-1.003479,0.23577881
1603105710962,708,-0.09399414,-1.0105591,0.20819092
1603105711040,709,-0.1159668,-1.0178833,0.21380615
1603105711119,710,-0.087402344,-1.0046997,0.22259521
1603105711198,711,-0.08935547,-1.0178833,0.20013428
1603105711277,712,-0.1262207,-1.0046997,0.20184326
1603105711355,713,-0.09008789,-1.020813,0.20648193
1603105711434,714,-0.08959961,-1.0098267,0.20355225
1603105711513,715,-0.091796875,-1.0095825,0.21282959
1603105711592,716,-0.1027832,-1.0269165,0.19769287
1603105711670,717,-0.091796875,-0.9924927,0.21600342
1603105711749,718,-0.099365234,-1.000061,0.21820068
1603105711828,719,-0.09277344,-1.0176392,0.20037842
1603105711907,720,-0.09448242,-1.0142212,0.2177124
1603105711985,721,-0.068603516,-0.9907837,0.19793701
1603105712064,722,-0.11987305,-0.99468994,0.23016357
1603105712143,723,-0.1003418,-1.0464478,0.19451904
1603105712222,724,-0.09350586,-1.0076294,0.1864624
1603105712300,725,-0.091796875,-1.0061646,0.21063232
1603105712379,726,-0.084228516,-1.0147095,0.20550537
1603105712458,727,-0.10424805,-1.0142212,0.21331787
1603105712537,728,-0.11694336,-1.0193481,0.18792725
1603105712615,729,-0.09716797,-0.99591064,0.20721436
1603105712694,730,-0.08935547,-1.0247192,0.19818115
1603105712773,731,-0.0043945312,-0.97320557,0.25164795
1603105712852,732,-0.18774414,-1.0618286,0.18255615
1603105712930,733,-0.103759766,-0.9866333,0.246521
1603105713009,734,-0.111816406,-0.98272705,0.2531128
1603105713088,735,-0.07373047,-0.9859009,0.27435303
1603105713167,736,-0.09033203,-1.0046997,0.26141357
1603105713245,737,-0.09765625,-0.9783325,0.29364014
1603105713324,738,-0.103271484,-0.9866333,0.2633667
1603105713403,739,-0.103027344,-1.0015259,0.26361084
1603105713482,740,-0.11035156,-0.9898071,0.26922607
1603105713560,741,-0.104003906,-0.991272,0.25408936
1603105713639,742,-0.11303711,-1.0005493,0.22161865
1603105713718,743,-0.10253906,-1.0071411,0.20794678
1603105713797,744,-0.10205078,-1.0046997,0.24188232
1603105713875,745,-0.099853516,-1.0029907,0.23187256
1603105713954,746,-0.095458984,-1.0078735,0.22601318
1603105714033,747,-0.10229492,-1.0015259,0.23846436
1603105714112,748,-0.091308594,-1.0100708,0.21722412
1603105714190,749,-0.09667969,-0.99786377,0.24066162
1603105714269,750,-0.08959961,-1.0029907,0.23382568
1603105714348,751,-0.10131836,-1.0066528,0.230896
1603105714427,752,-0.10083008,-1.0012817,0.23260498
1603105714505,753,-0.1081543,-0.99713135,0.23162842
1603105714584,754,-0.07763672,-1.0049438,0.24456787
1603105714663,755,-0.103027344,-1.0037231,0.23016357
1603105714742,756,-0.111572266,-0.99542236,0.2411499
1603105714820,757,-0.095458984,-1.0081177,0.23773193
1603105714899,758,-0.10253906,-1.0012817,0.24261475
1603105714978,759,-0.100097656,-0.99053955,0.24359131
1603105715057,760,-0.09106445,-1.0012817,0.24139404
1603105715135,761,-0.09643555,-1.0059204,0.23626709
1603105715214,762,-0.09838867,-0.9985962,0.23602295
1603105715293,763,-0.09423828,-1.006897,0.24261475
1603105715372,764,-0.095703125,-0.9990845,0.2411499
1603105715450,765,-0.088134766,-1.003479,0.23944092
1603105715529,766,-0.10253906,-0.9963989,0.24432373
1603105715608,767,-0.099121094,-1.0049438,0.24407959
1603105715687,768,-0.09692383,-0.9973755,0.2453003
1603105715779,769,-0.09741211,-0.9990845,0.24578857
1603105715872,770,-0.09472656,-0.99835205,0.24505615
1603105715965,771,-0.0949707,-0.99835205,0.25408936
1603105716058,772,-0.096191406,-0.99957275,0.24969482
1603105716151,773,-0.095458984,-0.9944458,0.25653076
1603105716244,774,-0.095703125,-0.99005127,0.25579834
1603105716337,775,-0.10083008,-0.9985962,0.2526245
1603105716430,776,-0.09716797,-0.99591064,0.2531128
1603105716522,777,-0.09423828,-0.9973755,0.25775146
1603105716615,778,-0.0949707,-0.9963989,0.25946045
1603105716708,779,-0.09399414,-0.9902954,0.25726318
1603105716801,780,-0.09350586,-1.0020142,0.26263428
1603105716894,781,-0.083740234,-0.9939575,0.24920654
1603105716987,782,-0.08935547,-0.9907837,0.26727295
1603105717080,783,-0.09399414,-0.9951782,0.26239014
1603105717173,784,-0.095947266,-0.9932251,0.26531982
1603105717265,785,-0.09106445,-0.9902954,0.26312256
1603105717358,786,-0.08911133,-0.9939575,0.2682495
1603105717451,787,-0.092285156,-0.9846802,0.277771
1603105717544,788,-0.08911133,-0.9812622,0.27947998
1603105717637,789,-0.092285156,-0.9915161,0.27972412
1603105717730,790,-0.0925293,-0.9776001,0.29071045
1603105717823,791,-0.09375,-0.9819946,0.2909546
1603105717916,792,-0.09472656,-0.9702759,0.2970581
1603105718008,793,-0.09008789,-0.99591064,0.2748413
1603105718101,794,-0.09399414,-0.97857666,0.2838745
1603105718194,795,-0.09448242,-0.9793091,0.2826538
1603105718287,796,-0.09643555,-0.9956665,0.27679443
1603105718380,797,-0.09643555,-0.9824829,0.27142334
1603105718473,798,-0.09375,-0.99298096,0.27044678
1603105718566,799,-0.09472656,-0.9817505,0.29071045
1603105718659,800,-0.09423828,-0.97735596,0.28997803
1603105718737,801,-0.08911133,-0.9793091,0.29779053
1603105718816,802,-0.09423828,-0.975647,0.30291748
1603105718895,803,-0.09033203,-0.97979736,0.30389404
1603105718974,804,-0.09277344,-0.9768677,0.29852295
1603105719052,805,-0.0925293,-0.9780884,0.307312
1603105719131,806,-0.092285156,-0.9783325,0.30584717
1603105719210,807,-0.09716797,-0.9834595,0.29022217
1603105719289,808,-0.09741211,-0.986145,0.28607178
1603105719367,809,-0.09643555,-0.9780884,0.27093506
1603105719446,810,-0.095947266,-0.9956665,0.26287842
1603105719525,811,-0.100097656,-0.9859009,0.2789917
1603105719604,812,-0.10058594,-0.9854126,0.2736206
1603105719682,813,-0.1003418,-0.9939575,0.27166748
1603105719761,814,-0.099853516,-0.98394775,0.27825928
1603105719840,815,-0.099609375,-0.9915161,0.26019287
1603105719919,816,-0.09448242,-0.9920044,0.27020264
1603105719997,817,-0.1003418,-0.991272,0.2765503
1603105720076,818,-0.09643555,-0.98272705,0.27142334
1603105720155,819,-0.10083008,-0.99224854,0.2699585
1603105720234,820,-0.095947266,-0.98809814,0.2687378
1603105720312,821,-0.092041016,-0.9927368,0.2658081
1603105720391,822,-0.09863281,-0.99298096,0.2675171
1603105720470,823,-0.09399414,-0.9898071,0.262146
1603105720549,824,-0.09863281,-0.99591064,0.26556396
1603105720627,825,-0.09350586,-0.9890747,0.2723999
1603105720706,826,-0.09863281,-0.98809814,0.27435303
1603105720785,827,-0.09741211,-0.98101807,0.2819214
1603105720864,828,-0.0949707,-0.9846802,0.2772827
1603105720942,829,-0.095458984,-0.9883423,0.27752686
1603105721021,830,-0.09448242,-0.9846802,0.27825928
1603105721100,831,-0.095458984,-0.9746704,0.28289795
