# Sensor position: Front pocket (trouser)
# Sensor side: Left
# Activity type: Sitting bent backward
# Activity code: 5
# Subject id: s1655552
timestamp,seq,accel_x,accel_y,accel_z
1603319879516,0,-0.20776367,-0.19952393,0.89837646
1603319879594,1,-0.17651367,-0.19805908,0.901062
1603319879673,2,-0.2097168,-0.20318604,0.90252686
1603319879752,3,-0.19897461,-0.20098877,0.8998413
1603319879831,4,-0.14648438,-0.20196533,0.90423584
1603319879909,5,-0.13232422,-0.20440674,0.90448
1603319879988,6,-0.15014648,-0.20953369,0.90057373
1603319880067,7,-0.15600586,-0.2053833,0.9052124
1603319880146,8,-0.14379883,-0.21636963,0.9057007
1603319880224,9,-0.13745117,-0.19732666,0.89886475
1603319880303,10,-0.22314453,-0.1963501,0.8925171
1603319880382,11,-0.0625,-0.23272705,0.90423584
1603319880461,12,-0.028076172,-0.23077393,0.92962646
1603319880539,13,-0.13134766,-0.24639893,0.8759155
1603319880618,14,-0.10131836,-0.20220947,0.91522217
1603319880697,15,-0.111816406,-0.20025635,0.90545654
1603319880776,16,-0.10888672,-0.22369385,0.90960693
1603319880854,17,-0.10107422,-0.23394775,0.9020386
1603319880933,18,-0.09301758,-0.22833252,0.9059448
1603319881012,19,-0.09863281,-0.21417236,0.90618896
1603319881091,20,-0.099365234,-0.21881104,0.90618896
1603319881169,21,-0.10229492,-0.22515869,0.9047241
1603319881248,22,-0.1015625,-0.22369385,0.90496826
1603319881327,23,-0.104003906,-0.21759033,0.9047241
1603319881406,24,-0.104003906,-0.21734619,0.9076538
1603319881484,25,-0.1027832,-0.22271729,0.90496826
1603319881563,26,-0.10131836,-0.22442627,0.90301514
1603319881642,27,-0.10253906,-0.22198486,0.90423584
1603319881721,28,-0.10205078,-0.22076416,0.9039917
1603319881799,29,-0.104003906,-0.2210083,0.9047241
1603319881878,30,-0.10839844,-0.21685791,0.9081421
1603319881957,31,-0.104003906,-0.22296143,0.902771
1603319882036,32,-0.10473633,-0.22320557,0.9076538
1603319882114,33,-0.10253906,-0.22296143,0.9035034
1603319882193,34,-0.103759766,-0.22174072,0.90423584
1603319882272,35,-0.10180664,-0.22027588,0.9052124
1603319882351,36,-0.106933594,-0.2197876,0.90130615
1603319882429,37,-0.10522461,-0.22198486,0.9039917
1603319882508,38,-0.10449219,-0.21710205,0.9064331
1603319882587,39,-0.10473633,-0.2185669,0.90618896
1603319882666,40,-0.10498047,-0.22296143,0.9039917
1603319882744,41,-0.10180664,-0.22296143,0.9022827
1603319882823,42,-0.10595703,-0.22052002,0.9086304
1603319882902,43,-0.10522461,-0.21759033,0.90789795
1603319882981,44,-0.10644531,-0.22247314,0.90740967
1603319883059,45,-0.10473633,-0.22442627,0.90496826
1603319883138,46,-0.103759766,-0.22052002,0.9035034
1603319883217,47,-0.10595703,-0.22198486,0.90838623
1603319883296,48,-0.10571289,-0.22442627,0.9052124
1603319883374,49,-0.103759766,-0.22076416,0.9064331
1603319883453,50,-0.10253906,-0.22296143,0.90448
1603319883532,51,-0.10546875,-0.22052002,0.90374756
1603319883611,52,-0.107177734,-0.21661377,0.9076538
1603319883689,53,-0.106933594,-0.22052002,0.90448
1603319883768,54,-0.10229492,-0.22320557,0.9039917
1603319883847,55,-0.10986328,-0.22052002,0.9064331
1603319883926,56,-0.10449219,-0.2197876,0.9052124
1603319884004,57,-0.1081543,-0.22369385,0.9057007
1603319884083,58,-0.10473633,-0.22442627,0.9039917
1603319884162,59,-0.10839844,-0.21881104,0.90374756
1603319884241,60,-0.10864258,-0.2210083,0.9047241
1603319884319,61,-0.10595703,-0.21783447,0.9039917
1603319884398,62,-0.107910156,-0.22052002,0.9057007
1603319884477,63,-0.107177734,-0.21832275,0.90301514
1603319884556,64,-0.10913086,-0.222229,0.90545654
1603319884634,65,-0.103271484,-0.22027588,0.90618896
1603319884713,66,-0.10571289,-0.21832275,0.90740967
1603319884792,67,-0.10839844,-0.21807861,0.9069214
1603319884871,68,-0.10668945,-0.21783447,0.9035034
1603319884949,69,-0.107910156,-0.21929932,0.9057007
1603319885028,70,-0.10668945,-0.22125244,0.9039917
1603319885107,71,-0.111328125,-0.21832275,0.9064331
1603319885186,72,-0.107666016,-0.22149658,0.9035034
1603319885264,73,-0.10644531,-0.22027588,0.90740967
1603319885343,74,-0.11035156,-0.21759033,0.90618896
1603319885422,75,-0.11254883,-0.2197876,0.9039917
1603319885501,76,-0.10571289,-0.22027588,0.9057007
1603319885579,77,-0.107666016,-0.21954346,0.9032593
1603319885658,78,-0.107910156,-0.21832275,0.9064331
1603319885737,79,-0.107177734,-0.22076416,0.90838623
1603319885816,80,-0.10571289,-0.22125244,0.90374756
1603319885894,81,-0.10571289,-0.22198486,0.9052124
1603319885973,82,-0.11303711,-0.21734619,0.9069214
1603319886052,83,-0.107421875,-0.22174072,0.90789795
1603319886131,84,-0.11669922,-0.22442627,0.9057007
1603319886209,85,-0.091552734,-0.21539307,0.902771
1603319886288,86,-0.16259766,-0.21685791,0.902771
1603319886367,87,-0.14257812,-0.22052002,0.899353
1603319886446,88,-0.15551758,-0.21148682,0.902771
1603319886524,89,-0.1459961,-0.22930908,0.8998413
1603319886603,90,-0.14331055,-0.22418213,0.901062
1603319886682,91,-0.12695312,-0.23736572,0.902771
1603319886761,92,-0.1784668,-0.22613525,0.90838623
1603319886839,93,-0.23046875,-0.22735596,0.8859253
1603319886918,94,-0.18823242,-0.24517822,0.90130615
1603319886997,95,-0.1538086,-0.23077393,0.8878784
1603319887076,96,-0.13769531,-0.22198486,0.8954468
1603319887154,97,-0.084228516,-0.23590088,0.91693115
1603319887233,98,-0.09716797,-0.20855713,0.89520264
1603319887312,99,-0.06689453,-0.21295166,0.9003296
1603319887391,100,-0.088378906,-0.21221924,0.90496826
1603319887469,101,-0.056396484,-0.1885376,0.9086304
1603319887548,102,-0.05053711,-0.19049072,0.92474365
1603319887627,103,-0.028564453,-0.19927979,0.90740967
1603319887706,104,0.008544922,-0.1831665,0.9232788
1603319887784,105,0.03100586,-0.18878174,0.92108154
1603319887863,106,-0.008056641,-0.1987915,0.91986084
1603319887942,107,-0.04248047,-0.18829346,0.9093628
1603319888021,108,-0.11694336,-0.18829346,0.90057373
1603319888099,109,-0.1459961,-0.19903564,0.89056396
1603319888178,110,-0.16625977,-0.24005127,0.84368896
1603319888257,111,-0.10180664,-0.26715088,0.92523193
1603319888336,112,-0.08325195,-0.2942505,0.91156006
1603319888414,113,-0.0793457,-0.30963135,0.8937378
1603319888493,114,-0.080566406,-0.3086548,0.8991089
1603319888572,115,-0.080566406,-0.30133057,0.8920288
1603319888651,116,-0.10620117,-0.22564697,0.8768921
1603319888729,117,-0.10546875,-0.23028564,0.9022827
1603319888808,118,-0.111328125,-0.23687744,0.8986206
1603319888887,119,-0.11621094,-0.2312622,0.89959717
1603319888966,120,-0.11743164,-0.22906494,0.9035034
1603319889044,121,-0.12548828,-0.2366333,0.901062
1603319889123,122,-0.13354492,-0.23077393,0.89886475
1603319889202,123,-0.064208984,-0.19586182,0.90838623
1603319889281,124,-0.10913086,-0.24298096,0.8864136
1603319889359,125,-0.09375,-0.24957275,0.8969116
1603319889438,126,0.0036621094,-0.19927979,0.9237671
1603319889517,127,-0.06665039,-0.21832275,0.902771
1603319889596,128,-0.06616211,-0.22930908,0.9003296
1603319889674,129,-0.053710938,-0.2185669,0.9100952
1603319889753,130,-0.06933594,-0.22491455,0.90423584
1603319889832,131,-0.061279297,-0.22979736,0.9039917
1603319889911,132,-0.05883789,-0.22271729,0.90911865
1603319889989,133,-0.05859375,-0.21612549,0.90960693
1603319890068,134,-0.06274414,-0.22540283,0.9071655
1603319890147,135,-0.05908203,-0.22393799,0.9020386
1603319890226,136,-0.06347656,-0.22564697,0.90423584
1603319890304,137,-0.061279297,-0.22442627,0.9059448
1603319890383,138,-0.059326172,-0.21929932,0.90374756
1603319890462,139,-0.060546875,-0.22540283,0.9035034
1603319890541,140,-0.064453125,-0.22296143,0.90301514
1603319890619,141,-0.06201172,-0.22369385,0.9057007
1603319890698,142,-0.067871094,-0.22540283,0.90667725
1603319890777,143,-0.06274414,-0.22686768,0.9059448
1603319890856,144,-0.059814453,-0.22393799,0.9047241
1603319890934,145,-0.060058594,-0.22198486,0.9081421
1603319891013,146,-0.06274414,-0.22442627,0.90838623
1603319891092,147,-0.06347656,-0.2234497,0.90618896
1603319891171,148,-0.05834961,-0.22393799,0.90448
1603319891249,149,-0.060058594,-0.22296143,0.9057007
1603319891328,150,-0.06274414,-0.22393799,0.9071655
1603319891407,151,-0.060058594,-0.22174072,0.90423584
1603319891486,152,-0.060302734,-0.22467041,0.9113159
1603319891564,153,-0.061523438,-0.22564697,0.90374756
1603319891643,154,-0.061767578,-0.2210083,0.9093628
1603319891722,155,-0.060546875,-0.2210083,0.9093628
1603319891801,156,-0.060791016,-0.22515869,0.9081421
1603319891879,157,-0.060546875,-0.22491455,0.90740967
1603319891958,158,-0.0625,-0.22491455,0.90740967
1603319892037,159,-0.061767578,-0.22393799,0.9069214
1603319892116,160,-0.05883789,-0.22149658,0.9069214
1603319892194,161,-0.059814453,-0.2234497,0.9093628
1603319892273,162,-0.06274414,-0.22442627,0.9064331
1603319892352,163,-0.061523438,-0.22589111,0.90789795
1603319892431,164,-0.06298828,-0.21905518,0.90618896
1603319892509,165,-0.0625,-0.22320557,0.9059448
1603319892588,166,-0.060546875,-0.22442627,0.9069214
1603319892667,167,-0.0637207,-0.21832275,0.9039917
1603319892746,168,-0.06542969,-0.222229,0.9076538
1603319892824,169,-0.061279297,-0.22418213,0.90496826
1603319892903,170,-0.061767578,-0.22540283,0.90618896
1603319892982,171,-0.0625,-0.22271729,0.9064331
1603319893061,172,-0.06225586,-0.22296143,0.9059448
1603319893139,173,-0.063964844,-0.22662354,0.9081421
1603319893218,174,-0.060302734,-0.22467041,0.90667725
1603319893297,175,-0.061523438,-0.22247314,0.91033936
1603319893376,176,-0.061035156,-0.22393799,0.90667725
1603319893454,177,-0.059326172,-0.22515869,0.90301514
1603319893533,178,-0.061035156,-0.2234497,0.9064331
1603319893612,179,-0.061035156,-0.22540283,0.9057007
1603319893691,180,-0.05859375,-0.22467041,0.90789795
1603319893769,181,-0.059570312,-0.22491455,0.90448
1603319893848,182,-0.059326172,-0.2210083,0.90423584
1603319893927,183,-0.06201172,-0.22540283,0.90374756
1603319894006,184,-0.060546875,-0.22564697,0.9086304
1603319894084,185,-0.059814453,-0.22418213,0.9086304
1603319894163,186,-0.060302734,-0.22442627,0.90960693
1603319894242,187,-0.060546875,-0.22247314,0.90838623
1603319894321,188,-0.060058594,-0.22442627,0.9076538
1603319894399,189,-0.05883789,-0.22589111,0.9098511
1603319894478,190,-0.06323242,-0.2210083,0.90667725
1603319894557,191,-0.061279297,-0.22320557,0.90252686
1603319894636,192,-0.061279297,-0.22515869,0.90618896
1603319894734,193,-0.060058594,-0.222229,0.9047241
1603319894833,194,-0.06225586,-0.22198486,0.90960693
1603319894932,195,-0.0637207,-0.22515869,0.90740967
1603319895030,196,-0.060546875,-0.22247314,0.9057007
1603319895129,197,-0.061767578,-0.22027588,0.9071655
1603319895228,198,-0.060058594,-0.22320557,0.9052124
1603319895326,199,-0.060302734,-0.22491455,0.90496826
1603319895425,200,-0.061767578,-0.22393799,0.9047241
1603319895524,201,-0.0625,-0.222229,0.9069214
1603319895622,202,-0.06274414,-0.22467041,0.9069214
1603319895721,203,-0.06225586,-0.22320557,0.9081421
1603319895820,204,-0.061767578,-0.2185669,0.9086304
1603319895918,205,-0.06274414,-0.22198486,0.90667725
1603319896017,206,-0.06347656,-0.22393799,0.90545654
1603319896116,207,-0.061279297,-0.22369385,0.90667725
1603319896215,208,-0.06274414,-0.21929932,0.9081421
1603319896313,209,-0.059814453,-0.22393799,0.9088745
1603319896412,210,-0.060546875,-0.22467041,0.9032593
1603319896511,211,-0.060546875,-0.22149658,0.9081421
1603319896609,212,-0.061767578,-0.22174072,0.90618896
1603319896708,213,-0.061035156,-0.22442627,0.90448
1603319896807,214,-0.060791016,-0.22296143,0.9057007
1603319896905,215,-0.06542969,-0.222229,0.9035034
1603319897004,216,-0.06298828,-0.21832275,0.90789795
1603319897103,217,-0.06201172,-0.22418213,0.9032593
1603319897201,218,-0.061767578,-0.22515869,0.9081421
1603319897300,219,-0.06201172,-0.22247314,0.90740967
1603319897399,220,-0.061767578,-0.22076416,0.9069214
1603319897497,221,-0.060546875,-0.22613525,0.9047241
1603319897596,222,-0.060791016,-0.22393799,0.9069214
1603319897695,223,-0.06274414,-0.22052002,0.9052124
1603319897794,224,-0.060546875,-0.22247314,0.90618896
1603319897872,225,-0.060546875,-0.22564697,0.9059448
1603319897951,226,-0.064453125,-0.2234497,0.90838623
1603319898030,227,-0.06298828,-0.22247314,0.9052124
1603319898109,228,-0.064208984,-0.22564697,0.9059448
1603319898187,229,-0.059814453,-0.22198486,0.90496826
1603319898266,230,-0.0625,-0.22418213,0.90740967
1603319898345,231,-0.061767578,-0.2234497,0.90667725
1603319898424,232,-0.06323242,-0.22540283,0.90448
1603319898502,233,-0.061279297,-0.22369385,0.9064331
1603319898581,234,-0.060791016,-0.22271729,0.90618896
1603319898660,235,-0.061767578,-0.22442627,0.9052124
1603319898739,236,-0.060791016,-0.22808838,0.9059448
1603319898817,237,-0.06347656,-0.22369385,0.90789795
1603319898896,238,-0.06201172,-0.22125244,0.90667725
1603319898975,239,-0.06225586,-0.22662354,0.90423584
1603319899054,240,-0.059814453,-0.22540283,0.9057007
1603319899132,241,-0.06225586,-0.22247314,0.90740967
1603319899211,242,-0.061035156,-0.22442627,0.90740967
1603319899290,243,-0.061767578,-0.22613525,0.9088745
1603319899369,244,-0.0625,-0.22296143,0.9071655
1603319899447,245,-0.06274414,-0.22467041,0.9052124
1603319899526,246,-0.06201172,-0.22515869,0.9088745
1603319899605,247,-0.061767578,-0.22515869,0.90618896
1603319899684,248,-0.06201172,-0.22369385,0.90667725
1603319899762,249,-0.0625,-0.22271729,0.9064331
1603319899841,250,-0.06323242,-0.22271729,0.902771
1603319899920,251,-0.061035156,-0.22467041,0.90448
1603319899999,252,-0.064208984,-0.22198486,0.9071655
1603319900077,253,-0.06225586,-0.22515869,0.9035034
1603319900156,254,-0.060546875,-0.2234497,0.9064331
1603319900235,255,-0.0637207,-0.22174072,0.9057007
1603319900314,256,-0.061279297,-0.22296143,0.90667725
1603319900392,257,-0.059570312,-0.22320557,0.9093628
1603319900471,258,-0.06298828,-0.22149658,0.9039917
1603319900550,259,-0.06347656,-0.21954346,0.9071655
1603319900629,260,-0.06201172,-0.22369385,0.9071655
1603319900707,261,-0.060302734,-0.2234497,0.9098511
1603319900786,262,-0.061035156,-0.22442627,0.9100952
1603319900865,263,-0.0625,-0.22247314,0.9069214
1603319900944,264,-0.06274414,-0.22247314,0.9059448
1603319901022,265,-0.06274414,-0.22393799,0.90911865
1603319901101,266,-0.06225586,-0.22174072,0.90838623
1603319901180,267,-0.061767578,-0.22296143,0.9047241
1603319901259,268,-0.061523438,-0.22540283,0.9086304
1603319901337,269,-0.0625,-0.22515869,0.9088745
1603319901416,270,-0.061767578,-0.22198486,0.9069214
1603319901495,271,-0.06347656,-0.22613525,0.90667725
1603319901574,272,-0.05810547,-0.22564697,0.90838623
1603319901652,273,-0.061035156,-0.22125244,0.9059448
1603319901731,274,-0.06201172,-0.2234497,0.9064331
1603319901810,275,-0.061279297,-0.22686768,0.90838623
1603319901889,276,-0.0637207,-0.22320557,0.9035034
1603319901967,277,-0.06298828,-0.22125244,0.9064331
1603319902046,278,-0.061523438,-0.22296143,0.9069214
1603319902125,279,-0.06201172,-0.22320557,0.90789795
1603319902204,280,-0.06225586,-0.22369385,0.9071655
1603319902282,281,-0.060058594,-0.22296143,0.9059448
1603319902361,282,-0.06323242,-0.22491455,0.9069214
1603319902440,283,-0.059326172,-0.22515869,0.90667725
1603319902519,284,-0.06298828,-0.22149658,0.9076538
1603319902597,285,-0.06201172,-0.22052002,0.90838623
1603319902676,286,-0.061523438,-0.22369385,0.9076538
1603319902755,287,-0.059814453,-0.22369385,0.9069214
1603319902834,288,-0.0637207,-0.22296143,0.9047241
1603319902912,289,-0.061767578,-0.22296143,0.90423584
1603319902991,290,-0.06201172,-0.22369385,0.9057007
1603319903070,291,-0.06323242,-0.21954346,0.9071655
1603319903149,292,-0.061767578,-0.22076416,0.90789795
1603319903227,293,-0.061279297,-0.22393799,0.9057007
1603319903306,294,-0.06274414,-0.22174072,0.9064331
1603319903385,295,-0.06298828,-0.22003174,0.90545654
1603319903464,296,-0.064208984,-0.2234497,0.9064331
1603319903542,297,-0.061523438,-0.22125244,0.9059448
1603319903621,298,-0.060058594,-0.2210083,0.9069214
1603319903700,299,-0.0637207,-0.21905518,0.9076538
1603319903779,300,-0.06298828,-0.22149658,0.9059448
1603319903857,301,-0.0625,-0.2234497,0.90789795
1603319903936,302,-0.059814453,-0.22320557,0.90496826
1603319904015,303,-0.06201172,-0.2197876,0.90789795
1603319904094,304,-0.06347656,-0.222229,0.9059448
1603319904172,305,-0.061523438,-0.22393799,0.90448
1603319904251,306,-0.060546875,-0.22174072,0.9052124
1603319904330,307,-0.061523438,-0.22491455,0.90496826
1603319904409,308,-0.05908203,-0.22442627,0.90667725
1603319904487,309,-0.05444336,-0.21661377,0.90838623
1603319904566,310,-0.087890625,-0.23077393,0.90252686
1603319904645,311,-0.08105469,-0.22320557,0.9076538
1603319904724,312,-0.078125,-0.21002197,0.9105835
1603319904802,313,-0.075927734,-0.22198486,0.9022827
1603319904881,314,-0.064208984,-0.22613525,0.90496826
1603319904960,315,-0.06640625,-0.22662354,0.9035034
1603319905039,316,-0.08642578,-0.22271729,0.9071655
1603319905117,317,-0.09033203,-0.22247314,0.902771
1603319905196,318,-0.07299805,-0.21636963,0.90838623
1603319905275,319,-0.072509766,-0.22174072,0.90740967
1603319905354,320,-0.068603516,-0.2288208,0.9057007
1603319905432,321,-0.07495117,-0.21539307,0.90911865
1603319905511,322,-0.08642578,-0.21832275,0.9020386
1603319905590,323,-0.08300781,-0.22662354,0.9047241
1603319905669,324,-0.076660156,-0.22857666,0.9047241
1603319905747,325,-0.07421875,-0.20928955,0.9088745
1603319905826,326,-0.06616211,-0.22320557,0.9008179
1603319905905,327,-0.084228516,-0.222229,0.9118042
1603319905984,328,-0.06298828,-0.22808838,0.9039917
1603319906062,329,-0.07763672,-0.22247314,0.902771
1603319906141,330,-0.07543945,-0.21490479,0.9088745
1603319906220,331,-0.0859375,-0.21954346,0.90838623
1603319906299,332,-0.08251953,-0.23199463,0.90496826
1603319906377,333,-0.067871094,-0.22052002,0.90618896
1603319906456,334,-0.07397461,-0.2185669,0.9076538
1603319906535,335,-0.07543945,-0.2263794,0.90960693
1603319906614,336,-0.07470703,-0.22589111,0.9076538
1603319906692,337,-0.075927734,-0.22296143,0.90740967
1603319906771,338,-0.072021484,-0.21734619,0.9076538
1603319906850,339,-0.06958008,-0.22686768,0.9039917
1603319906929,340,-0.07299805,-0.22589111,0.9064331
1603319907007,341,-0.071777344,-0.22320557,0.9093628
1603319907086,342,-0.0769043,-0.22149658,0.90740967
1603319907165,343,-0.07763672,-0.22149658,0.90740967
1603319907244,344,-0.07543945,-0.2276001,0.90789795
1603319907322,345,-0.07446289,-0.22296143,0.90667725
1603319907401,346,-0.07348633,-0.22125244,0.9059448
1603319907480,347,-0.07055664,-0.22393799,0.9064331
1603319907559,348,-0.072265625,-0.22369385,0.9086304
1603319907637,349,-0.07714844,-0.22174072,0.90911865
1603319907716,350,-0.075927734,-0.2234497,0.90545654
1603319907795,351,-0.07446289,-0.22686768,0.9071655
1603319907874,352,-0.072265625,-0.22418213,0.9064331
1603319907952,353,-0.07397461,-0.22271729,0.9064331
1603319908031,354,-0.07324219,-0.22662354,0.9059448
1603319908110,355,-0.07397461,-0.22491455,0.90448
1603319908189,356,-0.07470703,-0.22296143,0.90618896
1603319908267,357,-0.072265625,-0.22442627,0.90545654
1603319908346,358,-0.07006836,-0.22491455,0.9047241
1603319908425,359,-0.07470703,-0.22613525,0.90838623
1603319908504,360,-0.072753906,-0.22467041,0.9069214
1603319908582,361,-0.07128906,-0.21954346,0.90667725
1603319908661,362,-0.07885742,-0.22125244,0.9039917
1603319908740,363,-0.0859375,-0.23052979,0.9057007
1603319908819,364,-0.06616211,-0.2210083,0.90667725
1603319908897,365,-0.07421875,-0.22467041,0.90496826
1603319908976,366,-0.07763672,-0.22686768,0.9047241
1603319909055,367,-0.071777344,-0.22418213,0.90618896
1603319909134,368,-0.07348633,-0.222229,0.9059448
1603319909212,369,-0.068603516,-0.22442627,0.9059448
1603319909291,370,-0.07373047,-0.22491455,0.9064331
1603319909370,371,-0.07104492,-0.22418213,0.90496826
1603319909449,372,-0.07348633,-0.22589111,0.9076538
1603319909527,373,-0.0703125,-0.21734619,0.90740967
1603319909606,374,-0.07348633,-0.22564697,0.9076538
1603319909685,375,-0.06665039,-0.22393799,0.90667725
1603319909764,376,-0.07470703,-0.2234497,0.90374756
1603319909842,377,-0.08862305,-0.22540283,0.90301514
1603319909921,378,-0.06616211,-0.21710205,0.9076538
1603319910000,379,-0.07446289,-0.2300415,0.90301514
1603319910079,380,-0.07348633,-0.222229,0.9047241
1603319910157,381,-0.07543945,-0.2197876,0.90740967
1603319910236,382,-0.07519531,-0.22564697,0.9064331
1603319910315,383,-0.07080078,-0.22515869,0.90838623
1603319910394,384,-0.0703125,-0.22589111,0.9039917
1603319910472,385,-0.07543945,-0.2234497,0.90448
1603319910551,386,-0.07397461,-0.22540283,0.90545654
1603319910630,387,-0.072753906,-0.22540283,0.90423584
1603319910709,388,-0.067871094,-0.22686768,0.9071655
1603319910787,389,-0.07324219,-0.22125244,0.9081421
1603319910866,390,-0.072509766,-0.22833252,0.9057007
1603319910945,391,-0.068359375,-0.2234497,0.90618896
1603319911024,392,-0.072265625,-0.22491455,0.90740967
1603319911102,393,-0.07373047,-0.22589111,0.90667725
1603319911181,394,-0.072265625,-0.22247314,0.90618896
1603319911260,395,-0.07421875,-0.22515869,0.90545654
1603319911339,396,-0.07348633,-0.2263794,0.9059448
1603319911417,397,-0.0637207,-0.21929932,0.9105835
1603319911496,398,-0.07080078,-0.22686768,0.9057007
1603319911575,399,-0.068359375,-0.22174072,0.9076538
1603319911654,400,-0.064208984,-0.22393799,0.90911865
1603319911732,401,-0.06982422,-0.22515869,0.90618896
1603319911811,402,-0.068115234,-0.222229,0.9052124
1603319911890,403,-0.064941406,-0.2234497,0.9047241
1603319911969,404,-0.075683594,-0.22686768,0.90618896
1603319912047,405,-0.08300781,-0.22467041,0.90374756
1603319912126,406,-0.07543945,-0.21734619,0.9059448
1603319912205,407,-0.08300781,-0.22515869,0.9064331
1603319912284,408,-0.08325195,-0.22149658,0.90496826
1603319912362,409,-0.078125,-0.21734619,0.91082764
1603319912441,410,-0.08569336,-0.22174072,0.9081421
1603319912520,411,-0.08569336,-0.2234497,0.9039917
1603319912599,412,-0.08276367,-0.22515869,0.902771
1603319912677,413,-0.09008789,-0.22125244,0.9069214
1603319912756,414,-0.084228516,-0.222229,0.9059448
1603319912835,415,-0.08520508,-0.22027588,0.9039917
1603319912914,416,-0.088378906,-0.21929932,0.9059448
1603319912992,417,-0.087402344,-0.22198486,0.9081421
1603319913071,418,-0.084228516,-0.22296143,0.90423584
1603319913150,419,-0.079833984,-0.2156372,0.90667725
1603319913229,420,-0.087402344,-0.2185669,0.9059448
1603319913307,421,-0.088378906,-0.22052002,0.9059448
1603319913386,422,-0.08984375,-0.22149658,0.9081421
1603319913465,423,-0.087890625,-0.21710205,0.9052124
1603319913544,424,-0.08911133,-0.21710205,0.90496826
1603319913622,425,-0.079833984,-0.21954346,0.90448
1603319913701,426,-0.0847168,-0.22296143,0.9069214
1603319913780,427,-0.08300781,-0.22052002,0.90545654
1603319913859,428,-0.08276367,-0.22271729,0.9059448
1603319913937,429,-0.079833984,-0.22369385,0.90496826
1603319914016,430,-0.08227539,-0.22027588,0.9035034
1603319914095,431,-0.08300781,-0.22027588,0.90740967
1603319914174,432,-0.08276367,-0.22027588,0.9069214
1603319914252,433,-0.08154297,-0.222229,0.90448
1603319914331,434,-0.080322266,-0.22198486,0.9057007
1603319914410,435,-0.08178711,-0.21881104,0.9071655
1603319914489,436,-0.084472656,-0.22174072,0.9057007
1603319914567,437,-0.083496094,-0.22149658,0.9052124
1603319914646,438,-0.080078125,-0.21783447,0.9047241
1603319914725,439,-0.083496094,-0.21929932,0.9071655
1603319914804,440,-0.08105469,-0.21832275,0.90789795
1603319914882,441,-0.08251953,-0.21929932,0.9081421
1603319914961,442,-0.0925293,-0.22369385,0.9052124
1603319915040,443,-0.08251953,-0.21636963,0.90960693
1603319915119,444,-0.084472656,-0.22198486,0.9081421
1603319915197,445,-0.083984375,-0.21710205,0.90448
1603319915276,446,-0.08251953,-0.22027588,0.9059448
1603319915355,447,-0.08642578,-0.21539307,0.9076538
1603319915434,448,-0.08935547,-0.2210083,0.9039917
1603319915512,449,-0.0847168,-0.21710205,0.9076538
1603319915591,450,-0.088378906,-0.2197876,0.90667725
1603319915670,451,-0.08544922,-0.21881104,0.9059448
1603319915749,452,-0.0859375,-0.21685791,0.9059448
1603319915827,453,-0.08544922,-0.21954346,0.9064331
1603319915906,454,-0.08496094,-0.2197876,0.9057007
1603319915985,455,-0.08251953,-0.21807861,0.90789795
1603319916064,456,-0.079833984,-0.22491455,0.90618896
1603319916142,457,-0.08129883,-0.22027588,0.90911865
1603319916221,458,-0.0793457,-0.2197876,0.9057007
1603319916300,459,-0.08251953,-0.21685791,0.9064331
1603319916379,460,-0.079833984,-0.21905518,0.9086304
1603319916457,461,-0.08300781,-0.2234497,0.9057007
1603319916536,462,-0.083740234,-0.21929932,0.90740967
1603319916615,463,-0.08227539,-0.22247314,0.9059448
1603319916694,464,-0.08154297,-0.22052002,0.90740967
1603319916772,465,-0.07885742,-0.22052002,0.90838623
1603319916851,466,-0.07910156,-0.21759033,0.9069214
1603319916930,467,-0.08227539,-0.22174072,0.90618896
1603319917009,468,-0.08520508,-0.22247314,0.901062
1603319917087,469,-0.07885742,-0.21783447,0.90618896
1603319917166,470,-0.084228516,-0.22174072,0.9057007
1603319917245,471,-0.075683594,-0.21734619,0.90667725
1603319917324,472,-0.07910156,-0.22125244,0.90618896
1603319917402,473,-0.079833984,-0.21881104,0.90496826
1603319917481,474,-0.07739258,-0.21807861,0.9076538
1603319917560,475,-0.08203125,-0.21685791,0.9081421
1603319917639,476,-0.08618164,-0.22369385,0.9035034
1603319917717,477,-0.083496094,-0.21612549,0.90618896
1603319917796,478,-0.08276367,-0.21832275,0.9052124
1603319917875,479,-0.08178711,-0.22515869,0.9047241
1603319917954,480,-0.08227539,-0.22296143,0.9064331
1603319918032,481,-0.07788086,-0.21783447,0.9069214
1603319918111,482,-0.07543945,-0.21832275,0.9076538
1603319918190,483,-0.08496094,-0.22442627,0.90496826
1603319918269,484,-0.07714844,-0.2210083,0.9047241
1603319918347,485,-0.076416016,-0.21759033,0.90496826
1603319918426,486,-0.07739258,-0.21832275,0.90838623
1603319918505,487,-0.080322266,-0.2234497,0.9081421
1603319918584,488,-0.080078125,-0.22003174,0.9039917
1603319918662,489,-0.07763672,-0.2210083,0.9069214
1603319918741,490,-0.07714844,-0.22247314,0.90545654
1603319918820,491,-0.07519531,-0.22271729,0.9059448
1603319918899,492,-0.07495117,-0.22247314,0.90545654
1603319918977,493,-0.07836914,-0.22174072,0.90667725
1603319919056,494,-0.075683594,-0.21929932,0.9052124
1603319919135,495,-0.07397461,-0.22418213,0.9081421
1603319919214,496,-0.07861328,-0.222229,0.9052124
1603319919292,497,-0.07543945,-0.22149658,0.9076538
1603319919371,498,-0.0769043,-0.22393799,0.9093628
1603319919450,499,-0.07470703,-0.22515869,0.90448
1603319919529,500,-0.07519531,-0.222229,0.9076538
1603319919607,501,-0.0769043,-0.22369385,0.90667725
1603319919686,502,-0.07519531,-0.22418213,0.9076538
1603319919765,503,-0.07519531,-0.22320557,0.90789795
1603319919844,504,-0.075927734,-0.22174072,0.90789795
1603319919922,505,-0.07739258,-0.22125244,0.90545654
1603319920001,506,-0.0769043,-0.22320557,0.90667725
1603319920080,507,-0.07543945,-0.22076416,0.9086304
1603319920159,508,-0.07446289,-0.22247314,0.9057007
1603319920237,509,-0.07519531,-0.22540283,0.9059448
1603319920316,510,-0.07397461,-0.22247314,0.90448
1603319920395,511,-0.076660156,-0.21832275,0.90618896
1603319920474,512,-0.07763672,-0.22393799,0.9022827
1603319920566,513,-0.07348633,-0.22174072,0.9059448
1603319920659,514,-0.07739258,-0.22271729,0.902771
1603319920751,515,-0.07739258,-0.22076416,0.9081421
1603319920844,516,-0.07373047,-0.22589111,0.9071655
1603319920936,517,-0.07470703,-0.2234497,0.9057007
1603319921029,518,-0.07470703,-0.222229,0.9081421
1603319921121,519,-0.07519531,-0.22296143,0.9098511
1603319921214,520,-0.075927734,-0.22320557,0.9064331
1603319921307,521,-0.075683594,-0.22271729,0.9059448
1603319921399,522,-0.07373047,-0.2210083,0.9064331
1603319921492,523,-0.07788086,-0.22320557,0.90545654
1603319921584,524,-0.07495117,-0.222229,0.9059448
1603319921677,525,-0.076416016,-0.21807861,0.9059448
1603319921769,526,-0.075683594,-0.21661377,0.90618896
1603319921862,527,-0.07519531,-0.22393799,0.9059448
1603319921955,528,-0.075927734,-0.21881104,0.9088745
1603319922047,529,-0.076660156,-0.22125244,0.90618896
1603319922140,530,-0.07470703,-0.222229,0.90667725
1603319922232,531,-0.07397461,-0.22198486,0.90496826
1603319922325,532,-0.0769043,-0.22076416,0.9081421
1603319922417,533,-0.07373047,-0.22247314,0.90496826
1603319922510,534,-0.07519531,-0.22491455,0.90740967
1603319922602,535,-0.07885742,-0.21832275,0.9081421
1603319922695,536,-0.07763672,-0.2197876,0.90789795
1603319922788,537,-0.07470703,-0.21929932,0.9076538
1603319922880,538,-0.07495117,-0.22052002,0.9086304
1603319922973,539,-0.07470703,-0.22125244,0.9057007
1603319923065,540,-0.07543945,-0.21954346,0.9076538
1603319923158,541,-0.075927734,-0.22247314,0.90789795
1603319923250,542,-0.075683594,-0.22271729,0.9081421
1603319923343,543,-0.07421875,-0.21954346,0.90496826
1603319923436,544,-0.07373047,-0.22393799,0.9059448
1603319923514,545,-0.075927734,-0.22174072,0.9059448
1603319923593,546,-0.07324219,-0.22369385,0.90545654
1603319923672,547,-0.072265625,-0.22125244,0.9059448
1603319923751,548,-0.076660156,-0.21954346,0.9052124
1603319923829,549,-0.072509766,-0.2234497,0.9057007
1603319923908,550,-0.071777344,-0.22515869,0.9086304
1603319923987,551,-0.07373047,-0.21954346,0.90374756
1603319924066,552,-0.07080078,-0.21881104,0.9071655
1603319924144,553,-0.072509766,-0.2234497,0.9064331
1603319924223,554,-0.072753906,-0.22564697,0.9039917
1603319924302,555,-0.07519531,-0.22418213,0.90667725
1603319924381,556,-0.072753906,-0.22393799,0.9081421
1603319924459,557,-0.0715332,-0.22442627,0.9069214
1603319924538,558,-0.075683594,-0.22442627,0.9047241
1603319924617,559,-0.0690918,-0.21881104,0.9071655
1603319924696,560,-0.07519531,-0.22784424,0.9047241
1603319924774,561,-0.07885742,-0.22393799,0.90667725
1603319924853,562,-0.07397461,-0.21051025,0.90911865
1603319924932,563,-0.07836914,-0.22271729,0.90496826
1603319925011,564,-0.068603516,-0.22564697,0.9047241
1603319925089,565,-0.08276367,-0.22052002,0.90667725
1603319925168,566,-0.08666992,-0.22149658,0.9076538
1603319925247,567,-0.07788086,-0.22442627,0.9071655
1603319925326,568,-0.078125,-0.22247314,0.90740967
1603319925404,569,-0.076416016,-0.21905518,0.90667725
1603319925483,570,-0.07788086,-0.21734619,0.9071655
1603319925562,571,-0.08984375,-0.222229,0.90618896
1603319925641,572,-0.075927734,-0.22613525,0.9052124
1603319925719,573,-0.087890625,-0.21368408,0.9064331
1603319925798,574,-0.078125,-0.22589111,0.9052124
