# Sensor position: Wrist
# Sensor side: Left
# Activity type: Climbing stairs
# Activity code: 12
# Subject id: s1770036
timestamp,seq,accel_x,accel_y,accel_z
1603034064297,0,-0.041503906,-1.0369263,-0.03302002
1603034064375,1,-0.034179688,-1.0413208,-0.051574707
1603034064454,2,-0.0715332,-1.0198364,-0.09625244
1603034064533,3,-0.11010742,-1.0510864,-0.08111572
1603034064612,4,-0.042236328,-1.0789185,-0.0022583008
1603034064690,5,-0.08886719,-1.0234985,-0.055236816
1603034064769,6,-0.1550293,-1.0610962,-0.039367676
1603034064848,7,-0.17553711,-1.0151978,-0.05328369
1603034064927,8,-0.18579102,-1.0012817,-0.05328369
1603034065005,9,-0.20874023,-1.0112915,-0.035949707
1603034065084,10,-0.18041992,-1.0132446,-0.049621582
1603034065163,11,-0.14672852,-1.0418091,-0.055725098
1603034065242,12,-0.1652832,-1.1148071,-0.09136963
1603034065320,13,-0.23632812,-1.2139282,-0.14752197
1603034065399,14,-0.12207031,-1.3377075,-0.22027588
1603034065478,15,0.0068359375,-1.0508423,-0.32891846
1603034065557,16,-0.14135742,-1.1465454,-0.144104
1603034065635,17,-0.057128906,-1.0374146,-0.3123169
1603034065714,18,0.022949219,-0.97320557,-0.0335083
1603034065793,19,-0.076171875,-0.7659302,-0.18267822
1603034065872,20,9.765625E-4,-0.8999634,-0.1182251
1603034065950,21,0.009033203,-0.942688,0.035095215
1603034066029,22,-0.10595703,-1.005188,0.0014038086
1603034066108,23,-0.05419922,-1.1807251,-0.04473877
1603034066187,24,0.053710938,-1.1953735,-0.23345947
1603034066265,25,-0.068115234,-1.0039673,-0.3574829
1603034066344,26,-0.051513672,-0.9841919,-0.28399658
1603034066423,27,-0.10253906,-0.8435669,-0.33648682
1603034066502,28,-0.036621094,-0.79522705,-0.284729
1603034066580,29,-0.16137695,-0.8657837,-0.38165283
1603034066659,30,-0.16577148,-1.1062622,-0.3826294
1603034066738,31,-0.1315918,-1.1860962,-0.46392822
1603034066817,32,-0.10083008,-1.2061157,-0.71710205
1603034066909,33,0.06323242,-0.9692993,-0.5256958
1603034067001,34,0.03491211,-0.9553833,-0.40386963
1603034067093,35,0.07495117,-0.8245239,-0.47686768
1603034067185,36,-0.059814453,-0.8201294,-0.25152588
1603034067277,37,0.016357422,-0.7307739,-0.3081665
1603034067369,38,0.031982422,-0.90460205,-0.058654785
1603034067461,39,0.0073242188,-1.0606079,-0.14678955
1603034067553,40,0.010253906,-1.3916626,-0.39971924
1603034067645,41,0.06640625,-0.88165283,-0.4776001
1603034067737,42,0.005859375,-0.9976196,-0.69073486
1603034067829,43,-0.0014648438,-0.8826294,-0.36553955
1603034067921,44,-0.06958008,-0.6975708,-0.47930908
1603034068013,45,-0.029541016,-0.7295532,-0.3418579
1603034068105,46,-0.0925293,-0.862854,-0.47808838
1603034068197,47,-0.056152344,-1.0562134,-0.5720825
1603034068289,48,-0.08276367,-1.1968384,-0.8152466
1603034068381,49,0.09326172,-1.0603638,-0.8308716
1603034068473,50,0.10229492,-0.81256104,-0.54278564
1603034068565,51,-0.009521484,-0.8340454,-0.6206665
1603034068657,52,0.0078125,-0.7293091,-0.43707275
1603034068749,53,0.10961914,-0.59991455,-0.38043213
1603034068841,54,0.09301758,-0.7444458,-0.2991333
1603034068933,55,-0.0234375,-0.895813,-0.3982544
1603034069025,56,0.115478516,-1.2642212,-0.67071533
1603034069117,57,0.22753906,-0.88116455,-0.67559814
1603034069209,58,0.17871094,-0.82159424,-0.7136841
1603034069301,59,0.048828125,-0.78009033,-0.5718384
1603034069393,60,-0.056396484,-0.68048096,-0.49420166
1603034069485,61,0.05883789,-0.6170044,-0.4961548
1603034069577,62,-0.038330078,-0.9043579,-0.60601807
1603034069669,63,-0.111083984,-1.0820923,-0.71539307
1603034069761,64,0.07348633,-1.0569458,-0.85528564
1603034069839,65,0.10571289,-0.85235596,-0.82891846
1603034069918,66,0.1328125,-0.75250244,-0.66192627
1603034069997,67,0.11401367,-0.82354736,-0.50494385
1603034070076,68,0.076416016,-0.7612915,-0.5540161
1603034070154,69,0.14868164,-0.7053833,-0.2949829
1603034070233,70,-0.025390625,-0.9204712,-0.28863525
1603034070312,71,0.20361328,-0.93585205,-0.4500122
1603034070391,72,0.40966797,-0.8652954,-0.75616455
1603034070469,73,0.09741211,-0.8311157,-0.78619385
1603034070548,74,0.040283203,-0.8057251,-0.5286255
1603034070627,75,-0.020996094,-0.7124634,-0.58258057
1603034070706,76,0.08129883,-0.68341064,-0.440979
1603034070784,77,-0.04248047,-0.8616333,-0.6133423
1603034070863,78,-0.06713867,-1.0264282,-0.70928955
1603034070942,79,0.12524414,-1.0527954,-0.9116821
1603034071021,80,0.25830078,-0.80255127,-0.7732544
1603034071099,81,0.19995117,-0.67633057,-0.6470337
1603034071178,82,0.18676758,-0.94000244,-0.57159424
1603034071257,83,0.14086914,-0.86309814,-0.47442627
1603034071336,84,0.08886719,-0.5894165,-0.4180298
1603034071414,85,0.14160156,-0.6724243,-0.19122314
1603034071493,86,0.1496582,-0.9734497,-0.34747314
1603034071572,87,0.16821289,-0.991272,-0.6536255
1603034071651,88,0.49804688,-0.7600708,-0.5527954
1603034071729,89,0.36206055,-0.7944946,-0.847229
1603034071808,90,0.21044922,-0.7788696,-0.5454712
1603034071887,91,0.09790039,-0.72003174,-0.67926025
1603034071966,92,-0.036132812,-0.6929321,-0.579895
1603034072044,93,0.08154297,-0.70318604,-0.47833252
1603034072123,94,-0.021728516,-0.91973877,-0.4649048
1603034072202,95,-0.19506836,-0.92803955,-0.6621704
1603034072281,96,0.15039062,-0.9326782,-0.73101807
1603034072359,97,0.42993164,-0.95880127,-0.7439575
1603034072438,98,0.3161621,-0.7659302,-0.5449829
1603034072517,99,-0.028320312,-0.831604,-0.5874634
1603034072596,100,0.122802734,-0.76812744,-0.3591919
1603034072674,101,0.013671875,-0.81744385,-0.39361572
1603034072753,102,0.061035156,-0.90826416,-0.30792236
1603034072832,103,0.080322266,-1.1738892,-0.3887329
1603034072911,104,0.28442383,-1.3276978,-0.54766846
1603034072989,105,0.45092773,-0.6560669,-0.5601196
1603034073068,106,0.0625,-0.63067627,-0.9036255
1603034073147,107,0.24707031,-0.7608032,-0.519104
1603034073226,108,0.0073242188,-0.77593994,-0.6826782
1603034073304,109,-0.24707031,-0.7984009,-0.68463135
1603034073383,110,-0.023925781,-0.7913208,-0.53912354
1603034073462,111,-0.041992188,-0.9590454,-0.50201416
1603034073541,112,-0.05834961,-1.11969,-0.7300415
1603034073619,113,0.20605469,-1.1375122,-1.038147
1603034073698,114,0.19165039,-0.6970825,-0.71588135
1603034073777,115,0.2824707,-0.694397,-0.78253174
1603034073856,116,0.10424805,-1.045227,-0.4241333
1603034073934,117,0.0793457,-0.59747314,-0.60162354
1603034074013,118,0.052490234,-0.6668091,-0.13360596
1603034074092,119,0.08544922,-0.87677,-0.27593994
1603034074171,120,0.29858398,-1.0542603,-0.5183716
1603034074249,121,0.36132812,-0.8694458,-0.6655884
1603034074328,122,0.17382812,-0.7905884,-0.66534424
1603034074407,123,0.1352539,-0.833313,-0.597229
1603034074486,124,0.028320312,-0.74542236,-0.5339966
1603034074564,125,0.10131836,-0.71417236,-0.46392822
1603034074643,126,-0.02758789,-0.8062134,-0.5388794
1603034074722,127,-0.0043945312,-0.96051025,-0.6589966
1603034074801,128,0.06518555,-1.1043091,-0.80474854
1603034074879,129,0.20239258,-1.0020142,-0.9546509
1603034074958,130,0.2890625,-0.66656494,-0.6604614
1603034075037,131,0.08935547,-0.7901001,-0.64068604
1603034075116,132,0.30517578,-0.7139282,-0.4920044
1603034075194,133,0.08544922,-0.7227173,-0.49053955
1603034075273,134,0.17822266,-0.6970825,-0.28814697
1603034075352,135,0.111083984,-0.93292236,-0.2546997
1603034075431,136,0.26416016,-1.085022,-0.519104
1603034075509,137,0.43359375,-0.72857666,-0.75738525
1603034075588,138,0.2626953,-0.8140259,-0.7473755
1603034075667,139,0.1809082,-0.73809814,-0.5713501
1603034075746,140,-0.0024414062,-0.7070923,-0.6211548
1603034075824,141,0.12817383,-0.62750244,-0.4673462
1603034075903,142,0.052978516,-0.67852783,-0.5510864
1603034075982,143,-0.016113281,-0.9714966,-0.6958618
1603034076061,144,0.17456055,-1.0291138,-0.7788696
1603034076139,145,0.07495117,-0.8945923,-0.9939575
1603034076218,146,0.36499023,-0.7839966,-0.770813
1603034076297,147,0.14648438,-0.7383423,-0.6165161
1603034076376,148,0.17895508,-0.815979,-0.6609497
1603034076454,149,0.20019531,-0.6963501,-0.5496216
1603034076533,150,0.20043945,-0.6409302,-0.27886963
1603034076612,151,0.10229492,-0.8179321,-0.23687744
1603034076691,152,0.23242188,-0.9561157,-0.38458252
1603034076769,153,0.41088867,-1.000061,-0.7515259
1603034076848,154,0.25756836,-0.6777954,-0.69732666
1603034076927,155,0.14453125,-0.6819458,-0.7283325
1603034077006,156,0.08569336,-0.7359009,-0.5820923
1603034077084,157,0.051513672,-0.7131958,-0.6380005
1603034077163,158,0.122558594,-0.7366333,-0.54888916
1603034077242,159,0.080322266,-0.69732666,-0.6851196
1603034077321,160,0.01977539,-0.99420166,-0.7041626
1603034077399,161,0.110839844,-0.94073486,-0.9170532
1603034077478,162,0.2578125,-0.85723877,-0.92388916
1603034077557,163,0.31835938,-0.5708618,-0.6314087
1603034077636,164,0.10986328,-0.90509033,-0.6716919
1603034077714,165,0.2932129,-0.71295166,-0.47320557
1603034077793,166,0.15625,-0.5967407,-0.5601196
1603034077872,167,0.19750977,-0.72857666,-0.23150635
1603034077951,168,0.18359375,-0.8833618,-0.24005127
1603034078029,169,0.30395508,-1.0466919,-0.5022583
1603034078108,170,0.3725586,-1.0811157,-0.70196533
1603034078187,171,0.27270508,-0.63287354,-0.6506958
1603034078266,172,0.2434082,-0.7029419,-0.725647
1603034078344,173,0.11035156,-0.6716919,-0.5960083
1603034078423,174,0.064697266,-0.67266846,-0.66778564
1603034078502,175,0.13793945,-0.69976807,-0.51568604
1603034078581,176,0.010253906,-0.68634033,-0.64727783
1603034078659,177,0.07397461,-0.89141846,-0.73223877
1603034078738,178,0.15649414,-0.97540283,-0.80718994
1603034078817,179,0.14135742,-0.89068604,-1.003479
1603034078896,180,0.29516602,-0.74176025,-0.7788696
1603034078974,181,0.25756836,-0.56378174,-0.6116333
1603034079053,182,0.26098633,-0.84381104,-0.65997314
1603034079132,183,0.20288086,-0.7070923,-0.57281494
1603034079211,184,0.17382812,-0.6213989,-0.35772705
1603034079289,185,0.15771484,-0.7593384,-0.25787354
1603034079368,186,0.24023438,-0.89385986,-0.33746338
1603034079447,187,0.4033203,-1.1882935,-0.65997314
1603034079526,188,0.3564453,-0.7012329,-0.63482666
1603034079604,189,0.34643555,-0.65411377,-0.8735962
1603034079683,190,0.24536133,-0.6555786,-0.663147
1603034079762,191,0.052978516,-0.64508057,-0.630188
1603034079841,192,0.11352539,-0.63531494,-0.61846924
1603034079919,193,0.10913086,-0.67388916,-0.5894165
1603034079998,194,0.039794922,-0.75128174,-0.68048096
1603034080077,195,0.08496094,-0.85040283,-0.75567627
1603034080156,196,0.12231445,-0.9146118,-1.003479
1603034080234,197,0.375,-0.8335571,-0.90460205
1603034080313,198,0.3869629,-0.53131104,-0.6331177
1603034080392,199,0.040283203,-0.82525635,-0.6860962
1603034080471,200,0.35864258,-0.54522705,-0.45074463
1603034080549,201,0.118652344,-0.72052,-0.52227783
1603034080628,202,0.21655273,-0.5947876,-0.38653564
1603034080707,203,0.1665039,-0.73931885,-0.38653564
1603034080786,204,0.19702148,-1.130188,-0.47662354
1603034080864,205,0.23217773,-1.1502075,-0.5042114
1603034080943,206,0.5197754,-0.9170532,-0.6296997
1603034081022,207,0.20507812,-0.3682251,-0.5261841
1603034081101,208,0.40039062,-0.8267212,-0.86187744
1603034081179,209,0.26049805,-0.7485962,-0.47149658
1603034081258,210,0.10473633,-0.6067505,-0.88604736
1603034081337,211,-0.07373047,-0.9480591,-0.49957275
1603034081416,212,-0.1352539,-0.80059814,-0.5552368
1603034081494,213,0.13330078,-0.88360596,-0.44683838
1603034081573,214,0.1352539,-1.0667114,-0.59381104
1603034081652,215,0.28344727,-0.89141846,-0.88775635
1603034081731,216,0.5119629,-0.8284302,-0.64971924
1603034081809,217,0.21801758,-0.8843384,-0.67559814
1603034081888,218,0.1977539,-0.73809814,-0.46343994
1603034081967,219,0.15332031,-0.79571533,-0.46246338
1603034082046,220,0.07104492,-0.85894775,-0.2786255
1603034082124,221,0.24023438,-0.85040283,-0.24859619
1603034082203,222,0.4465332,-1.1309204,-0.4368286
1603034082282,223,0.32348633,-1.0640259,-0.4649048
1603034082361,224,0.41870117,-0.7202759,-0.64508057
1603034082439,225,0.47827148,-0.64727783,-0.6904907
1603034082518,226,0.16625977,-0.5628052,-0.85772705
1603034082597,227,0.123291016,-0.6043091,-0.67071533
1603034082676,228,0.12597656,-0.6380005,-0.62677
1603034082754,229,0.13427734,-0.72613525,-0.56744385
1603034082833,230,0.04736328,-0.7112427,-0.66192627
1603034082912,231,0.106933594,-0.88531494,-0.7005005
1603034082991,232,0.18945312,-0.9429321,-0.8987427
1603034083069,233,0.28100586,-0.8897095,-1.0523071
1603034083148,234,0.31835938,-0.6494751,-0.6265259
1603034083227,235,0.08935547,-0.7686157,-0.848938
1603034083306,236,0.34326172,-0.60943604,-0.5886841
1603034083384,237,0.2692871,-0.58428955,-0.53375244
1603034083463,238,0.23876953,-0.63897705,-0.31695557
1603034083542,239,0.10449219,-0.8374634,-0.36480713
1603034083621,240,0.32910156,-1.0012817,-0.70977783
1603034083699,241,0.49194336,-0.6560669,-0.78692627
1603034083778,242,0.28222656,-0.61309814,-0.7932739
1603034083857,243,0.23120117,-0.5835571,-0.70269775
1603034083936,244,0.07739258,-0.6255493,-0.6682739
1603034084014,245,0.19799805,-0.6482544,-0.5552368
1603034084093,246,0.064453125,-0.6692505,-0.63848877
1603034084172,247,0.068359375,-0.7871704,-0.6565552
1603034084251,248,0.088378906,-0.9260864,-0.77301025
1603034084329,249,0.11645508,-0.8870239,-1.0298462
1603034084408,250,0.41577148,-0.8599243,-0.92388916
1603034084487,251,0.30932617,-0.5647583,-0.630188
1603034084566,252,0.21875,-0.81134033,-0.77056885
1603034084644,253,0.3215332,-0.644104,-0.51519775
1603034084723,254,0.17114258,-0.5496216,-0.5125122
1603034084802,255,0.21875,-0.7276001,-0.24102783
1603034084881,256,0.22607422,-0.83428955,-0.24664307
1603034084959,257,0.48364258,-1.1296997,-0.6963501
1603034085038,258,0.35351562,-0.7617798,-0.70147705
1603034085117,259,0.29785156,-0.5930786,-0.8928833
1603034085196,260,0.3256836,-0.66241455,-0.64630127
1603034085274,261,0.032226562,-0.5523071,-0.66534424
1603034085353,262,0.19995117,-0.60040283,-0.57110596
1603034085432,263,0.14868164,-0.73223877,-0.59625244
1603034085511,264,0.14501953,-0.8467407,-0.80059814
1603034085589,265,0.19995117,-0.927063,-0.895813
1603034085668,266,0.2866211,-0.78009033,-0.9692993
1603034085747,267,0.44018555,-0.63946533,-0.7053833
1603034085826,268,0.13769531,-0.7263794,-0.73321533
1603034085904,269,0.29760742,-0.59625244,-0.4644165
1603034085983,270,0.2602539,-0.63238525,-0.5930786
1603034086062,271,0.23950195,-0.68927,-0.28448486
1603034086141,272,0.22070312,-0.9192505,-0.31744385
1603034086219,273,0.39160156,-1.0300903,-0.6182251
1603034086298,274,0.43530273,-0.70513916,-0.73809814
1603034086377,275,0.33276367,-0.66900635,-0.7749634
1603034086456,276,0.28979492,-0.6133423,-0.68878174
1603034086534,277,0.0859375,-0.5852661,-0.6914673
1603034086613,278,0.21142578,-0.5750122,-0.5840454
1603034086692,279,0.13330078,-0.73883057,-0.6367798
1603034086771,280,0.14501953,-0.78790283,-0.7671509
1603034086849,281,0.24047852,-0.91412354,-0.9536743
1603034086928,282,0.3408203,-0.7805786,-0.9661255
1603034087007,283,0.43920898,-0.6152954,-0.6843872
1603034087086,284,0.25317383,-0.64312744,-0.7498169
1603034087164,285,0.34301758,-0.66119385,-0.5029907
1603034087243,286,0.26293945,-0.6602173,-0.62091064
1603034087322,287,0.19677734,-0.6465454,-0.23028564
1603034087401,288,0.23486328,-0.8257446,-0.20269775
1603034087479,289,0.3425293,-1.0127563,-0.42095947
1603034087558,290,0.47851562,-1.1057739,-0.6182251
1603034087637,291,0.38476562,-0.5671997,-0.4776001
1603034087716,292,0.5632324,-0.6843872,-0.8406372
1603034087794,293,0.2199707,-0.66119385,-0.6062622
1603034087873,294,0.1381836,-0.63897705,-0.69659424
1603034087952,295,0.13085938,-0.68951416,-0.5874634
1603034088031,296,0.12475586,-0.6482544,-0.62286377
1603034088109,297,0.08300781,-0.66729736,-0.57598877
1603034088188,298,0.0107421875,-0.8413696,-0.59552
1603034088267,299,0.140625,-0.7859497,-0.84332275
1603034088346,300,0.5234375,-0.93829346,-0.8093872
1603034088424,301,0.44189453,-0.6421509,-0.72003174
1603034088503,302,0.34204102,-0.6392212,-0.6826782
1603034088582,303,0.15234375,-0.8015747,-0.54156494
1603034088661,304,0.23632812,-0.6616821,-0.41656494
1603034088739,305,0.14672852,-0.75909424,-0.42877197
1603034088818,306,0.15698242,-1.0274048,-0.54522705
1603034088897,307,0.532959,-1.1216431,-0.4812622
1603034088976,308,0.5119629,-0.6934204,-0.8362427
1603034089054,309,0.34204102,-0.4258423,-0.6646118
1603034089133,310,0.3088379,-0.7925415,-0.77789307
1603034089212,311,0.2927246,-0.63653564,-0.5828247
1603034089291,312,0.036865234,-0.7617798,-0.7710571
1603034089369,313,-0.045410156,-0.7190552,-0.59576416
1603034089448,314,0.015380859,-0.86798096,-0.52545166
1603034089527,315,0.103271484,-0.87823486,-0.53253174
1603034089606,316,0.14916992,-1.0037231,-0.66729736
1603034089684,317,0.33618164,-0.83721924,-0.9365845
1603034089763,318,0.68188477,-0.74005127,-0.6194458
1603034089842,319,0.20336914,-0.9036255,-0.8135376
1603034089921,320,0.16259766,-0.64678955,-0.48931885
1603034089999,321,0.11450195,-0.78692627,-0.36968994
1603034090078,322,0.17163086,-0.831604,-0.2888794
1603034090157,323,0.25317383,-0.8291626,-0.270813
1603034090236,324,0.4345703,-1.0679321,-0.49273682
1603034090314,325,0.3881836,-1.1382446,-0.4258423
1603034090393,326,0.5239258,-0.67193604,-0.7698364
1603034090472,327,0.47851562,-0.58258057,-0.7163696
1603034090551,328,0.16381836,-0.5432739,-0.92974854
1603034090629,329,0.22314453,-0.51226807,-0.65045166
1603034090708,330,0.21948242,-0.6104126,-0.61602783
1603034090787,331,0.18408203,-0.6758423,-0.65216064
1603034090866,332,0.14233398,-0.80352783,-0.7854614
1603034090944,333,0.29125977,-0.8115845,-0.95977783
1603034091023,334,0.33496094,-0.6921997,-1.0093384
1603034091102,335,0.42333984,-0.51519775,-0.741272
1603034091181,336,0.23413086,-0.8328247,-0.78253174
1603034091259,337,0.28930664,-0.62945557,-0.55303955
1603034091338,338,0.20239258,-0.50616455,-0.41900635
1603034091417,339,0.2705078,-0.70269775,-0.16461182
1603034091496,340,0.32470703,-0.87823486,-0.2654419
1603034091574,341,0.5756836,-0.99957275,-0.90631104
1603034091653,342,0.2290039,-0.60723877,-0.63604736
1603034091732,343,0.42919922,-0.56036377,-0.9092407
1603034091811,344,0.26123047,-0.69537354,-0.6211548
1603034091889,345,0.1159668,-0.54815674,-0.70098877
1603034091968,346,0.22802734,-0.5598755,-0.59503174
1603034092047,347,0.16748047,-0.72442627,-0.62335205
1603034092126,348,0.14501953,-0.79888916,-0.7139282
1603034092204,349,0.20361328,-0.82159424,-1.0215454
1603034092283,350,0.47631836,-0.7859497,-1.0374146
1603034092362,351,0.42114258,-0.6069946,-0.71466064
1603034092441,352,0.15161133,-0.6873169,-0.80352783
1603034092519,353,0.43359375,-0.56378174,-0.56134033
1603034092598,354,0.26708984,-0.5679321,-0.647522
1603034092677,355,0.2668457,-0.56036377,-0.29229736
1603034092756,356,0.30541992,-0.7727661,-0.24346924
1603034092834,357,0.32299805,-0.8386841,-0.394104
1603034092913,358,0.49291992,-1.0667114,-0.89923096
1603034092992,359,0.265625,-0.7324829,-0.58843994
1603034093071,360,0.46240234,-0.5779419,-0.78912354
1603034093149,361,0.36328125,-0.57159424,-0.7276001
1603034093228,362,0.17382812,-0.5147095,-0.7073364
1603034093307,363,0.24072266,-0.5393677,-0.6243286
1603034093386,364,0.17236328,-0.5894165,-0.6856079
1603034093464,365,0.15771484,-0.74786377,-0.6777954
1603034093543,366,0.23706055,-0.8916626,-0.850647
1603034093622,367,0.34399414,-0.7468872,-1.12677
1603034093701,368,0.50341797,-0.7354126,-0.8604126
1603034093779,369,0.17553711,-0.5886841,-0.8189087
1603034093858,370,0.34570312,-0.442688,-0.6038208
1603034093937,371,0.35131836,-0.63165283,-0.57110596
1603034094016,372,0.2241211,-0.5432739,-0.253479
1603034094094,373,0.31225586,-0.90509033,-0.26861572
1603034094173,374,0.3959961,-0.9265747,-0.46051025
1603034094252,375,0.5876465,-0.74102783,-1.0718384
1603034094331,376,0.2783203,-0.61724854,-0.5408325
1603034094409,377,0.46923828,-0.5466919,-0.90045166
1603034094488,378,0.13110352,-0.5354614,-0.5864868
1603034094567,379,0.19628906,-0.38824463,-0.68292236
1603034094646,380,0.17358398,-0.79034424,-0.5515747
1603034094724,381,0.1940918,-0.7774048,-0.7962036
1603034094803,382,0.19018555,-0.9429321,-0.99176025
1603034094882,383,0.44018555,-0.73101807,-1.0901489
1603034094961,384,0.5600586,-0.583313,-0.68585205
1603034095039,385,0.20727539,-0.6524048,-0.79888916
1603034095118,386,0.4326172,-0.60943604,-0.62750244
1603034095197,387,0.25268555,-0.517395,-0.44415283
1603034095276,388,0.21679688,-0.5796509,-0.17926025
1603034095354,389,0.2512207,-0.8699341,-0.1716919
1603034095433,390,0.31884766,-1.1289673,-0.4854126
1603034095512,391,0.51782227,-0.9492798,-0.5654907
1603034095591,392,0.6254883,-0.55352783,-0.37017822
1603034095669,393,0.6867676,-0.5054321,-0.82281494
1603034095748,394,0.4362793,-0.58380127,-0.569397
1603034095827,395,0.46850586,-0.71881104,-0.694397
1603034095906,396,0.10131836,-0.63775635,-0.7473755
1603034095984,397,0.17993164,-0.6428833,-0.6045532
1603034096063,398,0.171875,-0.80718994,-0.31402588
1603034096142,399,0.020507812,-0.74102783,-0.6380005
1603034096221,400,0.2980957,-0.87213135,-0.92755127
1603034096299,401,0.82128906,-0.8833618,-0.92755127
1603034096378,402,0.57543945,-0.47296143,-0.50860596
1603034096457,403,-0.14233398,-0.8804321,-0.8147583
1603034096536,404,0.15771484,-0.57281494,-0.3118286
1603034096614,405,0.1262207,-0.8909302,-0.4060669
1603034096693,406,0.38061523,-1.1026001,-0.347229
1603034096772,407,0.6760254,-0.88604736,-0.7944946
1603034096851,408,0.32348633,-0.4932251,-0.71173096
1603034096929,409,0.4765625,-0.71466064,-0.82769775
1603034097008,410,0.020751953,-0.5635376,-0.8032837
1603034097087,411,0.010498047,-0.7817993,-0.62994385
1603034097166,412,0.040283203,-0.8345337,-0.5288696
1603034097244,413,4.8828125E-4,-0.848938,-0.6292114
1603034097323,414,0.099121094,-0.89434814,-0.81817627
1603034097402,415,0.4375,-1.0015259,-1.1184692
1603034097481,416,0.5661621,-0.753479,-0.6465454
1603034097559,417,0.28857422,-0.6079712,-0.8706665
1603034097638,418,0.33081055,-0.66973877,-0.5918579
1603034097717,419,0.15844727,-0.534729,-0.5064087
1603034097796,420,0.2055664,-0.628479,-0.1975708
1603034097874,421,0.24194336,-0.92388916,-0.29864502
1603034097953,422,0.5493164,-1.0276489,-0.69073486
1603034098032,423,0.46118164,-0.6211548,-0.68756104
1603034098111,424,0.41674805,-0.60357666,-0.85723877
1603034098189,425,0.39331055,-0.56817627,-0.61505127
1603034098268,426,0.2705078,-0.52008057,-0.6331177
1603034098347,427,0.23242188,-0.5820923,-0.50323486
1603034098426,428,0.1496582,-0.79034424,-0.61968994
1603034098504,429,0.25805664,-1.0305786,-0.62213135
1603034098583,430,0.25854492,-0.8418579,-1.0147095
1603034098662,431,0.45385742,-0.8049927,-0.960022
1603034098741,432,0.39135742,-0.45562744,-0.7319946
1603034098819,433,0.12109375,-0.725647,-0.80255127
1603034098898,434,0.53759766,-0.5137329,-0.6482544
1603034098977,435,0.38061523,-0.35406494,-0.6165161
1603034099056,436,0.3215332,-0.63165283,-0.255188
1603034099134,437,0.2133789,-0.8118286,-0.41949463
1603034099213,438,0.4326172,-0.9168091,-0.57110596
1603034099292,439,0.5202637,-0.5779419,-1.0869751
1603034099371,440,0.2512207,-0.5718384,-0.6433716
1603034099449,441,0.5476074,-0.5991821,-0.82110596
1603034099528,442,0.11743164,-0.51031494,-0.59552
1603034099607,443,0.2626953,-0.50250244,-0.67926025
1603034099686,444,0.22094727,-0.5701294,-0.6038208
1603034099764,445,0.11206055,-0.7859497,-0.76275635
1603034099843,446,0.17578125,-0.81817627,-0.84820557
1603034099922,447,0.42797852,-0.722229,-1.1279907
1603034100001,448,0.5422363,-0.7168579,-0.84576416
1603034100079,449,0.28588867,-0.5588989,-0.81866455
1603034100158,450,0.37036133,-0.66607666,-0.70391846
1603034100237,451,0.28833008,-0.65216064,-0.43463135
1603034100316,452,0.15234375,-0.48150635,-0.42877197
1603034100394,453,0.25268555,-0.6885376,-0.19073486
1603034100473,454,0.28955078,-0.8916626,-0.29473877
1603034100552,455,0.6047363,-1.1177368,-0.88726807
1603034100631,456,0.3227539,-0.6577759,-0.5733032
1603034100709,457,0.5131836,-0.59869385,-0.8008423
1603034100788,458,0.31835938,-0.6499634,-0.64068604
1603034100867,459,0.16040039,-0.5315552,-0.7473755
1603034100946,460,0.31811523,-0.5418091,-0.6309204
1603034101024,461,0.19921875,-0.5930786,-0.7070923
1603034101103,462,0.17919922,-0.6655884,-0.6460571
1603034101182,463,0.16601562,-0.69195557,-0.7029419
1603034101261,464,0.25390625,-0.7127075,-0.80059814
1603034101339,465,0.27612305,-0.6572876,-1.0003052
1603034101418,466,0.5498047,-0.8521118,-1.0130005
1603034101497,467,0.23266602,-0.50372314,-0.90045166
1603034101576,468,0.22827148,-0.69976807,-0.7498169
1603034101654,469,0.35986328,-0.53375244,-0.63482666
1603034101733,470,0.39111328,-0.5339966,-0.68048096
1603034101812,471,0.32861328,-0.5552368,-0.49127197
1603034101891,472,0.32470703,-0.59747314,-0.34014893
1603034101969,473,0.31323242,-0.7246704,-0.2876587
1603034102048,474,0.3618164,-0.79937744,-0.4199829
1603034102127,475,0.6040039,-0.9534302,-1.0076294
1603034102206,476,0.32885742,-0.74224854,-0.55963135
1603034102284,477,0.49414062,-0.50982666,-0.87164307
1603034102363,478,0.35961914,-0.569397,-0.73638916
1603034102442,479,0.27026367,-0.47296143,-0.7984009
