# Sensor position: Front pocket (trouser)
# Sensor side: Right
# Activity type: Walking at normal speed
# Activity code: 1
# Subject id: 
timestamp,seq,accel_x,accel_y,accel_z
1603024521614,0,-0.09472656,-0.7312622,0.27215576
1603024521692,1,-0.27392578,-0.99542236,0.27093506
1603024521771,2,-0.22460938,-0.9697876,0.21795654
1603024521850,3,-0.25268555,-1.008606,0.215271
1603024521929,4,-0.19067383,-1.0576782,0.25091553
1603024522007,5,-0.15209961,-1.0532837,0.31121826
1603024522086,6,-0.3618164,-1.0288696,0.10614014
1603024522165,7,-0.57543945,-0.9763794,-0.07574463
1603024522244,8,-0.25024414,-1.2002563,0.2765503
1603024522322,9,-0.32495117,-0.8508911,0.12957764
1603024522401,10,-0.37304688,-0.81378174,0.14910889
1603024522480,11,-0.3166504,-0.8674927,0.24407959
1603024522559,12,-0.3996582,-1.005188,0.30999756
1603024522637,13,-0.31518555,-0.92926025,0.39569092
1603024522716,14,-0.3972168,-0.8640747,0.39642334
1603024522795,15,-0.4116211,-1.0640259,0.38250732
1603024522874,16,-0.3779297,-0.8748169,0.24993896
1603024522952,17,-0.27075195,-0.94781494,0.04071045
1603024523031,18,-0.2602539,-1.1043091,0.15179443
1603024523110,19,-0.28149414,-0.8916626,0.26727295
1603024523189,20,-0.19824219,-0.90411377,0.09490967
1603024523267,21,-0.2109375,-0.940979,0.23822021
1603024523346,22,-0.16381836,-1.0203247,0.28289795
1603024523425,23,-0.16821289,-1.2153931,0.2177124
1603024523504,24,-0.33129883,-1.0745239,0.2584839
1603024523582,25,-0.592041,-1.062561,-0.15167236
1603024523661,26,-0.27148438,-1.2359009,0.059753418
1603024523740,27,-0.26953125,-0.74957275,0.36297607
1603024523819,28,-0.24829102,-0.6079712,0.19891357
1603024523897,29,-0.2644043,-0.7966919,0.38153076
1603024523976,30,-0.5222168,-1.2068481,0.5182495
1603024524055,31,-0.36914062,-1.2883911,0.38128662
1603024524134,32,-0.51342773,-0.5393677,0.0045776367
1603024524226,33,-0.24926758,-1.1929321,-0.018859863
1603024524319,34,-0.2932129,-0.86920166,0.031188965
1603024524412,35,-0.2709961,-0.8440552,0.25653076
1603024524504,36,-0.19555664,-0.97320557,0.07122803
1603024524597,37,-0.13452148,-1.1900024,0.30511475
1603024524690,38,-0.42333984,-1.2380981,0.18890381
1603024524783,39,-0.48388672,-1.0513306,-0.13848877
1603024524875,40,-0.31958008,-1.114563,-0.09820557
1603024524968,41,-0.22241211,-0.76885986,0.4052124
1603024525061,42,-0.35498047,-0.62335205,0.14324951
1603024525153,43,-0.2553711,-0.84332275,0.45135498
1603024525246,44,-0.6074219,-1.1482544,0.52215576
1603024525339,45,-0.4765625,-1.3486938,0.15179443
1603024525432,46,-0.2590332,-0.66192627,0.08123779
1603024525524,47,-0.33374023,-1.0586548,0.057556152
1603024525617,48,-0.17871094,-0.7161255,0.11981201
1603024525710,49,-0.2109375,-0.9841919,0.2538452
1603024525802,50,-0.16552734,-1.0650024,0.2699585
1603024525895,51,-0.28930664,-1.2537231,0.24945068
1603024525988,52,-0.6315918,-1.236145,-0.02178955
1603024526081,53,-0.5070801,-1.0515747,-0.20684814
1603024526173,54,-0.0034179688,-0.7661743,0.5309448
1603024526266,55,-0.34179688,-0.54278564,0.20672607
1603024526359,56,-0.19946289,-0.91192627,0.45843506
1603024526451,57,-0.5695801,-1.0864868,0.53656006
1603024526544,58,-0.52368164,-1.3533325,0.0758667
1603024526637,59,-0.23339844,-0.753479,0.1395874
1603024526730,60,-0.38745117,-0.9927368,0.016296387
1603024526822,61,-0.27539062,-0.694397,0.12713623
1603024526915,62,-0.18359375,-0.9949341,0.23944092
1603024527008,63,-0.17675781,-1.0733032,0.3168335
1603024527101,64,-0.31982422,-1.3269653,0.2765503
1603024527179,65,-0.5625,-1.1084595,-0.055236816
1603024527258,66,-0.4946289,-1.0838013,-0.070373535
1603024527337,67,2.4414062E-4,-0.76641846,0.46697998
1603024527416,68,-0.41601562,-0.5227661,0.22381592
1603024527494,69,-0.2553711,-0.81744385,0.4899292
1603024527573,70,-0.5288086,-1.1629028,0.5363159
1603024527652,71,-0.47216797,-1.4805298,0.19525146
1603024527731,72,-0.3479004,-0.4812622,0.14349365
1603024527809,73,-0.32250977,-1.1189575,0.04827881
1603024527888,74,-0.16577148,-0.7283325,0.12762451
1603024527967,75,-0.265625,-0.93878174,0.25531006
1603024528046,76,-0.25805664,-1.052063,0.28363037
1603024528124,77,-0.19018555,-1.3716431,0.33563232
1603024528203,78,-0.5715332,-1.1089478,-0.012023926
1603024528282,79,-0.63305664,-0.9763794,-0.19488525
1603024528361,80,-0.024414062,-0.9187622,0.5404663
1603024528439,81,-0.32421875,-0.49542236,0.1708374
1603024528518,82,-0.26123047,-0.75787354,0.39007568
1603024528597,83,-0.68359375,-1.2615356,0.6161499
1603024528676,84,-0.39208984,-1.37677,0.19036865
1603024528754,85,-0.33081055,-0.55059814,0.1605835
1603024528833,86,-0.35839844,-1.0686646,0.08685303
1603024528912,87,-0.2097168,-0.736145,0.109069824
1603024528991,88,-0.17651367,-0.90802,0.31976318
1603024529069,89,-0.19799805,-1.060852,0.36566162
1603024529148,90,-0.3076172,-1.2625122,0.36419678
1603024529227,91,-0.50561523,-1.3074341,0.038269043
1603024529306,92,-0.66186523,-1.0591431,-0.16656494
1603024529384,93,0.04711914,-0.77008057,0.5360718
1603024529463,94,-0.38452148,-0.46881104,0.10784912
1603024529542,95,-0.23266602,-0.8821411,0.4208374
1603024529621,96,-0.59936523,-1.0576782,0.6473999
1603024529699,97,-0.45239258,-1.4158325,0.17303467
1603024529778,98,-0.32910156,-0.6880493,0.19329834
1603024529857,99,-0.32763672,-1.0425415,0.12542725
1603024529936,100,-0.3137207,-0.6680298,0.13909912
1603024530014,101,-0.23022461,-0.9116821,0.29241943
1603024530093,102,-0.23925781,-0.95684814,0.36590576
1603024530172,103,-0.21435547,-1.2588501,0.42669678
1603024530251,104,-0.39941406,-1.1499634,0.20697021
1603024530329,105,-0.7192383,-1.2229614,-0.20635986
1603024530408,106,-0.059326172,-0.9092407,0.56243896
1603024530487,107,-0.30029297,-0.4668579,0.098083496
1603024530566,108,-0.32299805,-0.6709595,0.46331787
1603024530644,109,-0.59814453,-1.2254028,0.44232178
1603024530723,110,-0.32836914,-1.2271118,0.5907593
1603024530802,111,-0.38085938,-0.73272705,0.03704834
1603024530881,112,-0.24804688,-1.1057739,0.18865967
1603024530959,113,-0.36987305,-0.6604614,0.14813232
1603024531038,114,-0.24072266,-0.8965454,0.2531128
1603024531117,115,-0.21801758,-0.9199829,0.3060913
1603024531196,116,-0.23535156,-1.255188,0.45404053
1603024531274,117,-0.37524414,-1.1519165,0.22503662
1603024531353,118,-0.7468262,-1.2092896,-0.25201416
1603024531432,119,-0.020507812,-1.0181274,0.6552124
1603024531511,120,-0.30004883,-0.48687744,0.049743652
1603024531589,121,-0.3996582,-0.61920166,0.387146
1603024531668,122,-0.5373535,-1.0591431,0.3480835
1603024531747,123,-0.24975586,-1.1941528,0.84002686
1603024531826,124,-0.39526367,-0.92437744,-0.0064086914
1603024531904,125,-0.3828125,-0.9805298,0.24554443
1603024531983,126,-0.20605469,-0.9055786,0.121032715
1603024532062,127,-0.30639648,-0.7683716,0.18231201
1603024532141,128,-0.2746582,-0.9331665,0.29681396
1603024532219,129,-0.29248047,-1.0825806,0.39959717
1603024532298,130,-0.25952148,-1.2034302,0.36395264
1603024532377,131,-0.4645996,-1.2078247,0.10028076
1603024532456,132,-0.6347656,-1.0532837,-0.13653564
1603024532534,133,-0.057617188,-0.80133057,0.61639404
1603024532613,134,-0.38354492,-0.50250244,0.09075928
1603024532692,135,-0.30273438,-0.7854614,0.47406006
1603024532771,136,-0.6291504,-1.1453247,0.56292725
1603024532849,137,-0.37963867,-1.3079224,0.31365967
1603024532928,138,-0.39575195,-0.6929321,0.18743896
1603024533007,139,-0.2836914,-1.0784302,0.15057373
1603024533086,140,-0.3203125,-0.690979,0.14276123
1603024533164,141,-0.20947266,-0.8904419,0.2975464
1603024533243,142,-0.23779297,-0.9031372,0.3456421
1603024533322,143,-0.2800293,-1.2630005,0.42645264
1603024533401,144,-0.42089844,-1.1116333,0.21478271
1603024533479,145,-0.6953125,-1.1785278,-0.17559814
1603024533558,146,-0.08105469,-0.9981079,0.4869995
1603024533637,147,-0.3334961,-0.43707275,0.1395874
1603024533716,148,-0.37231445,-0.68048096,0.38983154
1603024533794,149,-0.5192871,-1.2036743,0.45672607
1603024533873,150,-0.10839844,-1.0093384,0.8222046
1603024533952,151,-0.6333008,-0.9846802,-0.13775635
1603024534031,152,-0.296875,-0.9768677,0.28704834
1603024534109,153,-0.26293945,-0.8440552,0.11956787
1603024534188,154,-0.30688477,-0.756897,0.16253662
1603024534267,155,-0.27514648,-0.93292236,0.30975342
1603024534346,156,-0.27392578,-1.1521606,0.47747803
1603024534424,157,-0.41748047,-1.227356,0.3036499
1603024534503,158,-0.7355957,-1.1782837,-0.18780518
1603024534582,159,-0.21826172,-1.0088501,0.28729248
1603024534661,160,-0.25634766,-0.5396118,0.35858154
1603024534739,161,-0.39404297,-0.5742798,0.31121826
1603024534818,162,-0.37890625,-1.0508423,0.43377686
1603024534897,163,-0.46899414,-0.94366455,0.76434326
1603024534976,164,-0.64624023,-1.1975708,-0.11407471
1603024535054,165,-0.21533203,-0.9282837,0.27557373
1603024535133,166,-0.37426758,-0.8994751,0.117370605
1603024535212,167,-0.27783203,-0.7732544,0.19085693
1603024535291,168,-0.13256836,-0.88116455,0.3607788
1603024535369,169,-0.3256836,-0.97320557,0.3300171
1603024535448,170,-0.35107422,-1.2009888,0.35076904
1603024535527,171,-0.38232422,-1.0803833,0.23651123
1603024535606,172,-0.68652344,-1.2022095,-0.14434814
1603024535684,173,-0.084472656,-0.8821411,0.4616089
1603024535763,174,-0.40356445,-0.5054321,0.18963623
1603024535842,175,-0.30078125,-0.7046509,0.37860107
1603024535921,176,-0.48535156,-1.2324829,0.4960327
1603024535999,177,-0.16967773,-1.0698853,0.67962646
1603024536078,178,-0.6425781,-0.8518677,-0.13995361
1603024536157,179,-0.33935547,-1.0513306,0.24969482
1603024536236,180,-0.29736328,-0.83843994,0.09906006
1603024536314,181,-0.28466797,-0.8689575,0.19866943
1603024536393,182,-0.21362305,-0.8858032,0.43670654
1603024536472,183,-0.27807617,-1.0540161,0.40667725
1603024536551,184,-0.5732422,-1.2195435,0.23138428
1603024536629,185,-0.69506836,-1.1304321,-0.11065674
1603024536708,186,-0.16259766,-0.9902954,0.28045654
1603024536787,187,-0.36938477,-0.53448486,0.36761475
1603024536866,188,-0.30200195,-0.5720825,0.38201904
1603024536944,189,-0.47729492,-1.1472778,0.5426636
1603024537023,190,-0.50439453,-0.8977661,0.70111084
1603024537102,191,-0.5571289,-1.0518188,-0.014709473
1603024537181,192,-0.26220703,-0.98516846,0.2008667
1603024537259,193,-0.39941406,-0.85284424,0.13446045
1603024537338,194,-0.26708984,-0.7774048,0.2020874
1603024537417,195,-0.15209961,-0.9067993,0.33465576
1603024537496,196,-0.27368164,-1.0176392,0.40472412
1603024537574,197,-0.4580078,-1.2317505,0.3366089
1603024537653,198,-0.4946289,-1.0933228,0.11199951
1603024537732,199,-0.5661621,-0.98150635,-0.097229004
1603024537811,200,-0.12939453,-0.8687134,0.6029663
1603024537889,201,-0.38964844,-0.53131104,0.16595459
1603024537968,202,-0.31079102,-0.71051025,0.5248413
1603024538047,203,-0.6159668,-1.2608032,0.5126343
1603024538126,204,-0.38720703,-1.1882935,0.4784546
1603024538204,205,-0.5358887,-0.5796509,0.081970215
1603024538283,206,-0.23120117,-1.1326294,0.14837646
1603024538362,207,-0.32617188,-0.79156494,0.13885498
1603024538441,208,-0.27148438,-0.8406372,0.29193115
1603024538519,209,-0.24511719,-0.88238525,0.33538818
1603024538598,210,-0.26098633,-1.1143188,0.38079834
1603024538677,211,-0.43603516,-1.1997681,0.32806396
1603024538756,212,-0.58325195,-0.95977783,-0.046936035
1603024538834,213,-0.40576172,-1.2158813,0.15985107
1603024538913,214,-0.19213867,-0.6668091,0.50457764
1603024538992,215,-0.32861328,-0.49639893,0.31170654
1603024539071,216,-0.41455078,-0.9570923,0.45965576
1603024539149,217,-0.4909668,-0.8633423,0.72943115
1603024539228,218,-0.46142578,-1.3999634,0.15814209
1603024539307,219,-0.42138672,-0.611145,0.23626709
1603024539386,220,-0.29052734,-1.1116333,0.15472412
1603024539464,221,-0.32006836,-0.7451782,0.16522217
1603024539543,222,-0.26489258,-0.8892212,0.31829834
1603024539622,223,-0.2626953,-0.88360596,0.36029053
1603024539701,224,-0.2783203,-1.1809692,0.4015503
1603024539779,225,-0.45581055,-1.0552368,0.23431396
1603024539858,226,-0.7246094,-1.1065063,-0.08526611
1603024539937,227,-0.13769531,-1.0740356,0.4628296
1603024540016,228,-0.35180664,-0.50909424,0.19940186
1603024540094,229,-0.34106445,-0.64678955,0.3908081
1603024540173,230,-0.41674805,-1.0298462,0.5150757
1603024540252,231,-0.43237305,-0.99884033,0.62615967
1603024540331,232,-0.5517578,-1.1677856,0.13128662
1603024540409,233,-0.36083984,-0.7312622,0.16741943
1603024540488,234,-0.25610352,-1.069397,0.12786865
1603024540567,235,-0.30371094,-0.7798462,0.2531128
1603024540646,236,-0.23413086,-0.8665161,0.33880615
1603024540724,237,-0.23852539,-0.92437744,0.2929077
1603024540803,238,-0.34448242,-1.2114868,0.40863037
1603024540882,239,-0.48583984,-1.0205688,0.22332764
1603024540961,240,-0.6647949,-1.135315,-0.11212158
1603024541039,241,-0.10620117,-0.95562744,0.5170288
1603024541118,242,-0.36499023,-0.5339966,0.19525146
1603024541197,243,-0.35180664,-0.6211548,0.43206787
1603024541276,244,-0.48339844,-1.27594,0.46453857
1603024541354,245,-0.28808594,-0.944397,0.74920654
1603024541433,246,-0.6003418,-0.9417114,-0.066223145
1603024541512,247,-0.3251953,-0.97735596,0.18865967
1603024541591,248,-0.22998047,-0.911438,0.14520264
1603024541669,249,-0.27490234,-0.7761841,0.25775146
1603024541748,250,-0.28271484,-0.86260986,0.35028076
1603024541827,251,-0.25024414,-1.1438599,0.39471436
1603024541906,252,-0.4177246,-1.0952759,0.35858154
1603024541984,253,-0.56762695,-1.1887817,0.027770996
1603024542063,254,-0.4650879,-1.0991821,0.039733887
1603024542142,255,-0.13110352,-0.6565552,0.4911499
1603024542221,256,-0.34594727,-0.50372314,0.2802124
1603024542299,257,-0.35131836,-0.9151001,0.5338745
1603024542378,258,-0.52441406,-0.92681885,0.6581421
1603024542457,259,-0.6191406,-1.3977661,0.066101074
1603024542536,260,-0.21704102,-0.71221924,0.276062
1603024542614,261,-0.43896484,-0.9819946,0.11517334
1603024542693,262,-0.29467773,-0.6851196,0.13641357
1603024542772,263,-0.22875977,-0.90167236,0.3204956
1603024542851,264,-0.171875,-0.97052,0.5140991
1603024542929,265,-0.4946289,-1.2146606,0.34588623
1603024543008,266,-0.5095215,-1.1494751,0.121276855
1603024543087,267,-0.5288086,-1.1360474,-0.014953613
1603024543166,268,-0.123046875,-0.7241821,0.55755615
1603024543244,269,-0.3635254,-0.46392822,0.16448975
1603024543323,270,-0.27612305,-0.8291626,0.47210693
1603024543402,271,-0.6320801,-1.0874634,0.58465576
1603024543481,272,-0.35351562,-1.3574829,0.3776245
1603024543559,273,-0.47680664,-0.6734009,0.10076904
1603024543638,274,-0.30688477,-1.0508423,0.23138428
1603024543717,275,-0.31420898,-0.645813,0.08831787
1603024543796,276,-0.28149414,-0.92974854,0.309021
1603024543874,277,-0.19165039,-0.91534424,0.46331787
1603024543953,278,-0.4453125,-1.2529907,0.36297607
1603024544032,279,-0.4020996,-1.111145,0.19769287
1603024544111,280,-0.7175293,-1.1170044,-0.16656494
1603024544189,281,-0.040283203,-0.97125244,0.6781616
1603024544268,282,-0.39160156,-0.47052002,-0.03765869
1603024544347,283,-0.39135742,-0.61431885,0.43695068
1603024544426,284,-0.6201172,-1.2754517,0.47503662
1603024544504,285,-0.2783203,-1.1826782,0.67840576
1603024544583,286,-0.49780273,-0.69195557,0.018737793
1603024544662,287,-0.31982422,-1.0420532,0.23187256
1603024544741,288,-0.28930664,-0.73150635,0.16326904
1603024544819,289,-0.29077148,-0.8435669,0.2711792
1603024544898,290,-0.27368164,-0.92022705,0.35101318
1603024544977,291,-0.3334961,-1.2002563,0.49090576
1603024545056,292,-0.41503906,-1.1687622,0.25408936
1603024545134,293,-0.73413086,-1.1121216,-0.16412354
1603024545213,294,-0.10595703,-0.97662354,0.49627686
1603024545292,295,-0.3684082,-0.4776001,0.18060303
1603024545371,296,-0.3696289,-0.6123657,0.39544678
1603024545449,297,-0.5397949,-1.1382446,0.46136475
1603024545528,298,-0.28051758,-0.819397,0.8048706
1603024545607,299,-0.5854492,-1.2410278,-0.050598145
1603024545686,300,-0.22680664,-0.81085205,0.26531982
1603024545764,301,-0.36938477,-0.98931885,0.18865967
1603024545843,302,-0.26757812,-0.6992798,0.2086792
1603024545922,303,-0.29785156,-0.91778564,0.30169678
1603024546001,304,-0.26904297,-1.0010376,0.416687
1603024546079,305,-0.45825195,-1.1585083,0.35858154
1603024546158,306,-0.56933594,-1.2036743,0.07977295
1603024546237,307,-0.44970703,-1.0913696,-0.004211426
1603024546316,308,-0.2163086,-0.6748657,0.5036011
1603024546394,309,-0.37890625,-0.5569458,0.18133545
1603024546473,310,-0.33642578,-0.79107666,0.43670654
1603024546552,311,-0.5637207,-1.1553345,0.55096436
1603024546631,312,-0.45117188,-1.2630005,0.36053467
1603024546709,313,-0.42333984,-0.690979,0.07733154
1603024546788,314,-0.38110352,-1.0269165,0.17230225
1603024546867,315,-0.29760742,-0.72247314,0.117614746
1603024546946,316,-0.25683594,-0.9026489,0.2946167
1603024547024,317,-0.25048828,-0.8880005,0.4430542
1603024547103,318,-0.3486328,-1.1809692,0.40374756
1603024547182,319,-0.4802246,-1.0835571,0.22625732
1603024547261,320,-0.71875,-1.2039185,-0.12359619
1603024547339,321,-0.12084961,-0.9714966,0.46209717
1603024547418,322,-0.34155273,-0.47247314,0.21575928
1603024547497,323,-0.35009766,-0.6773071,0.39178467
1603024547576,324,-0.49926758,-1.0869751,0.4442749
1603024547654,325,-0.3383789,-1.0650024,0.71502686
1603024547733,326,-0.5761719,-0.8989868,-0.04815674
1603024547812,327,-0.34936523,-0.99786377,0.2164917
1603024547891,328,-0.3100586,-0.8682251,0.15106201
1603024547969,329,-0.25732422,-0.8027954,0.22698975
1603024548048,330,-0.30200195,-0.895813,0.32928467
1603024548127,331,-0.2524414,-1.0405884,0.41253662
1603024548206,332,-0.48364258,-1.1472778,0.30999756
1603024548284,333,-0.65234375,-1.0864868,0.004333496
1603024548363,334,-0.42041016,-1.0859985,0.11102295
1603024548442,335,-0.22680664,-0.65509033,0.46575928
1603024548521,336,-0.37573242,-0.61505127,0.30096436
1603024548599,337,-0.32836914,-0.8230591,0.46331787
1603024548678,338,-0.52197266,-1.0911255,0.6090698
1603024548757,339,-0.529541,-1.3042603,0.24798584
1603024548836,340,-0.46826172,-0.6021118,0.07733154
1603024548914,341,-0.32983398,-1.0859985,0.117126465
1603024548993,342,-0.29833984,-0.8279419,0.15350342
1603024549072,343,-0.22509766,-0.86920166,0.33026123
1603024549151,344,-0.25341797,-0.8748169,0.35980225
1603024549229,345,-0.32861328,-1.2068481,0.3444214
1603024549308,346,-0.53515625,-1.1629028,0.20062256
1603024549387,347,-0.7026367,-0.8574829,-0.16729736
1603024549466,348,-0.13647461,-1.1870728,0.6300659
1603024549544,349,-0.32592773,-0.5352173,0.13250732
1603024549623,350,-0.3347168,-0.51226807,0.44232178
1603024549702,351,-0.5053711,-1.296936,0.5023804
1603024549781,352,-0.4477539,-1.0894165,0.6610718
1603024549859,353,-0.5449219,-0.6487427,-0.0025024414
1603024549938,354,-0.38891602,-1.1223755,0.14935303
1603024550017,355,-0.26635742,-0.78692627,0.14105225
1603024550096,356,-0.23901367,-0.8616333,0.3209839
1603024550174,357,-0.23291016,-0.833313,0.38690186
1603024550253,358,-0.35302734,-1.0957642,0.31976318
1603024550332,359,-0.41601562,-1.2007446,0.30804443
1603024550411,360,-0.6479492,-0.9639282,-0.019348145
1603024550489,361,-0.4584961,-1.1487427,0.1281128
1603024550568,362,-0.20288086,-0.7612915,0.48162842
1603024550647,363,-0.33129883,-0.5274048,0.28240967
1603024550726,364,-0.3791504,-0.82354736,0.4911499
1603024550804,365,-0.6105957,-1.008606,0.5993042
1603024550883,366,-0.4362793,-1.3230591,0.14715576
1603024550962,367,-0.37768555,-0.694397,0.20281982
1603024551041,368,-0.3310547,-1.0603638,0.13616943
1603024551119,369,-0.31567383,-0.7390747,0.21380615
1603024551198,370,-0.3125,-0.8665161,0.35394287
1603024551277,371,-0.21289062,-0.85943604,0.3258667
1603024551356,372,-0.30444336,-1.2310181,0.3571167
1603024551434,373,-0.37060547,-1.1133423,0.35638428
1603024551513,374,-0.657959,-1.0161743,-0.090148926
1603024551592,375,-0.21801758,-1.1524048,0.2741089
1603024551671,376,-0.3137207,-0.6226196,0.35369873
1603024551749,377,-0.40039062,-0.5510864,0.32025146
1603024551828,378,-0.43896484,-0.97906494,0.43743896
1603024551907,379,-0.46069336,-0.8831177,0.7357788
1603024551986,380,-0.44750977,-1.3047485,0.12542725
1603024552064,381,-0.34155273,-0.6885376,0.23773193
1603024552143,382,-0.30371094,-1.0928345,0.17303467
1603024552222,383,-0.32080078,-0.6980591,0.19207764
1603024552301,384,-0.3256836,-0.86676025,0.3366089
1603024552379,385,-0.30786133,-0.9126587,0.32757568
1603024552458,386,-0.30664062,-1.255188,0.41937256
1603024552537,387,-0.42041016,-1.0869751,0.22259521
1603024552616,388,-0.69018555,-1.0776978,-0.17803955
1603024552694,389,-0.12768555,-1.02594,0.5504761
1603024552773,390,-0.3684082,-0.5418091,0.12615967
1603024552852,391,-0.39233398,-0.6460571,0.34783936
1603024552931,392,-0.49047852,-1.0198364,0.46014404
1603024553009,393,-0.31591797,-0.96661377,0.74334717
1603024553088,394,-0.5366211,-1.2356567,0.031921387
1603024553167,395,-0.42529297,-0.7305298,0.18475342
1603024553246,396,-0.28735352,-1.0244751,0.15863037
1603024553324,397,-0.28808594,-0.74835205,0.18621826
1603024553403,398,-0.27368164,-0.87091064,0.35662842
1603024553482,399,-0.2722168,-0.9536743,0.37957764
1603024553561,400,-0.33520508,-1.3057251,0.41278076
1603024553639,401,-0.5551758,-1.12677,0.121520996
1603024553718,402,-0.71533203,-0.9673462,-0.16851807
1603024553797,403,-0.053710938,-0.9356079,0.68792725
1603024553876,404,-0.3876953,-0.4336548,0.14886475
1603024553954,405,-0.22680664,-0.80059814,0.5631714
1603024554033,406,-0.7993164,-1.0637817,0.49700928
1603024554112,407,-0.25683594,-1.2888794,0.44085693
1603024554191,408,-0.5371094,-0.5811157,0.16156006
1603024554269,409,-0.28076172,-1.1216431,0.13470459
1603024554348,410,-0.3408203,-0.7600708,0.15545654
1603024554427,411,-0.30200195,-0.8352661,0.3163452
1603024554506,412,-0.27416992,-0.8826294,0.3361206
1603024554584,413,-0.27807617,-1.18927,0.44207764
1603024554663,414,-0.4416504,-1.0808716,0.29022217
1603024554742,415,-0.6269531,-1.1477661,-0.089416504
1603024554821,416,-0.30981445,-1.0647583,0.20599365
1603024554899,417,-0.28271484,-0.5923462,0.40130615
1603024554978,418,-0.36083984,-0.5239868,0.37420654
1603024555057,419,-0.3581543,-0.96661377,0.39422607
1603024555136,420,-0.46142578,-0.9607544,0.81463623
1603024555214,421,-0.4790039,-1.3301392,0.043884277
1603024555293,422,-0.40649414,-0.6980591,0.21063232
1603024555372,423,-0.26367188,-1.0808716,0.15447998
1603024555451,424,-0.2697754,-0.7246704,0.18109131
1603024555529,425,-0.32958984,-0.8765259,0.3463745
1603024555608,426,-0.27319336,-0.9011841,0.36810303
1603024555687,427,-0.34326172,-1.2312622,0.40594482
1603024555766,428,-0.45922852,-1.0164185,0.23138428
1603024555844,429,-0.65356445,-1.2236938,-0.11065674
1603024555923,430,-0.19580078,-1.0029907,0.44818115
1603024556002,431,-0.30151367,-0.42022705,0.15472412
1603024556081,432,-0.3696289,-0.62335205,0.47528076
1603024556159,433,-0.53222656,-1.2019653,0.38494873
1603024556238,434,-0.2397461,-0.75445557,0.88153076
1603024556317,435,-0.69506836,-1.279602,-0.14483643
1603024556396,436,-0.28344727,-0.7798462,0.2819214
1603024556474,437,-0.35498047,-0.9697876,0.113220215
1603024556553,438,-0.2758789,-0.73687744,0.18939209
1603024556632,439,-0.27246094,-0.88604736,0.3475952
1603024556711,440,-0.29492188,-0.9475708,0.4022827
1603024556789,441,-0.35327148,-1.3027954,0.39886475
1603024556868,442,-0.57421875,-1.1177368,0.09442139
1603024556947,443,-0.6809082,-1.038147,-0.15118408
1603024557026,444,-0.043701172,-0.89190674,0.68011475
1603024557104,445,-0.3762207,-0.44366455,0.093688965
1603024557183,446,-0.3149414,-0.7029419,0.53338623
1603024557262,447,-0.70043945,-1.2297974,0.47039795
1603024557341,448,-0.3227539,-1.269104,0.5392456
1603024557419,449,-0.4699707,-0.5401001,0.11053467
1603024557498,450,-0.3864746,-1.1257935,0.16107178
1603024557577,451,-0.31079102,-0.6729126,0.09832764
1603024557656,452,-0.24902344,-0.84161377,0.26678467
1603024557734,453,-0.23486328,-0.8882446,0.40496826
1603024557813,454,-0.37329102,-1.3328247,0.5211792
1603024557892,455,-0.49194336,-1.0903931,0.2086792
1603024557971,456,-0.82788086,-1.2835083,-0.26080322
1603024558049,457,-0.07910156,-0.80303955,0.42938232
1603024558128,458,-0.2956543,-0.39508057,0.2723999
1603024558207,459,-0.3083496,-0.61846924,0.49627686
1603024558286,460,-0.70874023,-1.4290161,0.47161865
1603024558364,461,-0.35180664,-0.9710083,0.7453003
1603024558443,462,-0.46118164,-0.7954712,-0.08111572
1603024558522,463,-0.33251953,-1.0144653,0.20233154
1603024558601,464,-0.31982422,-0.7139282,0.11883545
1603024558679,465,-0.28686523,-0.77838135,0.17718506
1603024558758,466,-0.19482422,-1.0020142,0.45965576
1603024558837,467,-0.3544922,-1.2112427,0.5338745
1603024558916,468,-0.51782227,-1.083313,0.18304443
1603024558994,469,-0.6960449,-1.3269653,-0.22857666
1603024559073,470,-0.11230469,-0.90289307,0.57684326
1603024559152,471,-0.30541992,-0.4043579,0.20281982
1603024559231,472,-0.27172852,-0.54693604,0.46820068
1603024559309,473,-0.6040039,-1.2732544,0.4520874
1603024559388,474,-0.2607422,-1.1445923,0.87908936
1603024559467,475,-0.6591797,-0.6824341,-0.14361572
1603024559546,476,-0.34814453,-1.1348267,0.23260498
1603024559624,477,-0.26831055,-0.7234497,0.08416748
1603024559703,478,-0.31225586,-0.80474854,0.21087646
1603024559782,479,-0.29492188,-0.9006958,0.42425537
1603024559861,480,-0.39208984,-1.1592407,0.4418335
1603024559939,481,-0.40478516,-1.2200317,0.29241943
1603024560018,482,-0.72216797,-1.2173462,-0.21148682
1603024560097,483,-0.27075195,-0.9043579,0.27679443
1603024560176,484,-0.29492188,-0.46539307,0.3595581
1603024560254,485,-0.29614258,-0.6067505,0.40496826
1603024560333,486,-0.5476074,-1.2280884,0.44647217
1603024560412,487,-0.2668457,-0.93292236,0.86395264
1603024560491,488,-0.6472168,-1.053772,-0.2588501
1603024560569,489,-0.2878418,-1.0032349,0.33172607
1603024560648,490,-0.3244629,-0.79522705,0.12249756
1603024560727,491,-0.2565918,-0.74835205,0.19500732
1603024560806,492,-0.25463867,-0.9038696,0.36346436
1603024560884,493,-0.3022461,-1.170227,0.5216675
1603024560963,494,-0.41870117,-1.1882935,0.31585693
1603024561042,495,-0.7685547,-1.2236938,-0.15167236
1603024561121,496,-0.26660156,-0.97540283,0.21844482
1603024561199,497,-0.21923828,-0.50909424,0.4179077
1603024561278,498,-0.38232422,-0.5640259,0.31219482
1603024561357,499,-0.4482422,-1.0344849,0.51239014
1603024561436,500,-0.47875977,-1.031311,0.7706909
1603024561514,501,-0.50561523,-1.1453247,-0.07598877
1603024561593,502,-0.43554688,-0.83721924,0.24383545
1603024561672,503,-0.2705078,-0.89801025,0.12664795
1603024561751,504,-0.29638672,-0.770813,0.19158936
1603024561829,505,-0.25854492,-0.85772705,0.34075928
1603024561908,506,-0.27856445,-1.0542603,0.44281006
1603024561987,507,-0.40112305,-1.2398071,0.36395264
1603024562066,508,-0.64282227,-1.1629028,-0.011047363
1603024562144,509,-0.53930664,-1.1296997,0.008239746
1603024562223,510,-0.13305664,-0.67266846,0.51239014
1603024562302,511,-0.35620117,-0.43804932,0.24261475
