# Sensor position: Wrist
# Sensor side: Right
# Activity type: Lying down right
# Activity code: 6
# Subject id: s1642301
timestamp,seq,accel_x,accel_y,accel_z
1602329954681,0,-0.80126953,-0.64141846,0.20037842
1602329954681,1,-0.80126953,-0.64141846,0.20037842
1602329952098,2,-0.80126953,-0.64141846,0.20037842
1602329954681,3,-0.8083496,-0.6436157,0.20013428
1602329954681,4,-0.8083496,-0.6436157,0.20013428
1602329954681,5,-0.8083496,-0.6436157,0.20013428
1602329954681,6,-0.80981445,-0.6436157,0.20013428
1602329954681,7,-0.80981445,-0.6436157,0.20013428
1602329954681,8,-0.80981445,-0.6436157,0.20013428
1602329954681,9,-0.8051758,-0.6421509,0.199646
1602329954681,10,-0.8051758,-0.6421509,0.199646
1602329954681,11,-0.8051758,-0.6421509,0.199646
1602329954681,12,-0.8059082,-0.64312744,0.20257568
1602329954681,13,-0.8059082,-0.64312744,0.20257568
1602329954681,14,-0.8059082,-0.64312744,0.20257568
1602329954681,15,-0.80493164,-0.6433716,0.20452881
1602329954681,16,-0.80493164,-0.6433716,0.20452881
1602329954681,17,-0.80493164,-0.6433716,0.20452881
1602329954681,18,-0.80078125,-0.6453247,0.21502686
1602329954681,19,-0.80078125,-0.6453247,0.21502686
1602329954681,20,-0.80078125,-0.6453247,0.21502686
1602329954681,21,-0.80029297,-0.64263916,0.21282959
1602329954681,22,-0.80029297,-0.64263916,0.21282959
1602329954681,23,-0.80029297,-0.64263916,0.21282959
1602329954681,24,-0.8029785,-0.64556885,0.20599365
1602329954681,25,-0.8029785,-0.64556885,0.20599365
1602329954681,26,-0.8063965,-0.6416626,0.19866943
1602329954681,27,-0.8029785,-0.64556885,0.20599365
1602329954681,28,-0.8063965,-0.6416626,0.19866943
1602329954681,29,-0.8063965,-0.6416626,0.19866943
1602329954681,30,-0.80249023,-0.644104,0.20941162
1602329954681,31,-0.80200195,-0.6433716,0.21307373
1602329954681,32,-0.80249023,-0.644104,0.20941162
1602329954681,33,-0.80249023,-0.644104,0.20941162
1602329954681,34,-0.80200195,-0.6433716,0.21307373
1602329954681,35,-0.8027344,-0.6428833,0.21282959
1602329954681,36,-0.8027344,-0.6428833,0.21282959
1602329954681,37,-0.80200195,-0.6433716,0.21307373
1602329954681,38,-0.8027344,-0.644104,0.2062378
1602329954681,39,-0.8027344,-0.6428833,0.21282959
1602329954681,40,-0.8027344,-0.644104,0.2062378
1602329954681,41,-0.80444336,-0.647522,0.20794678
1602329954681,42,-0.8027344,-0.644104,0.2062378
1602329954681,43,-0.80444336,-0.647522,0.20794678
1602329954681,44,-0.8046875,-0.63897705,0.2062378
1602329954681,45,-0.8046875,-0.63897705,0.2062378
1602329954681,46,-0.80444336,-0.647522,0.20794678
1602329954681,47,-0.80493164,-0.6433716,0.20526123
1602329954681,48,-0.80493164,-0.6433716,0.20526123
1602329954681,49,-0.8046875,-0.63897705,0.2062378
1602329954681,50,-0.8034668,-0.6428833,0.20306396
1602329954681,51,-0.80322266,-0.64019775,0.20111084
1602329954681,52,-0.8034668,-0.6428833,0.20306396
1602329954681,53,-0.80493164,-0.6433716,0.20526123
1602329954681,54,-0.8071289,-0.64385986,0.20111084
1602329954681,55,-0.8034668,-0.6428833,0.20306396
1602329954681,56,-0.80322266,-0.64019775,0.20111084
1602329954681,57,-0.8071289,-0.64385986,0.20111084
1602329954681,58,-0.80322266,-0.64019775,0.20111084
1602329954681,59,-0.8041992,-0.64263916,0.19866943
1602329954681,60,-0.8041992,-0.64263916,0.19866943
1602329954681,61,-0.8039551,-0.642395,0.20257568
1602329954681,62,-0.8039551,-0.642395,0.20257568
1602329954681,63,-0.8071289,-0.64385986,0.20111084
1602329954681,64,-0.8034668,-0.645813,0.20257568
1602329954681,65,-0.80615234,-0.6411743,0.20355225
1602329954681,66,-0.8034668,-0.645813,0.20257568
1602329954681,67,-0.8039551,-0.6433716,0.20477295
1602329954681,68,-0.8041992,-0.64263916,0.19866943
1602329954681,69,-0.80615234,-0.6411743,0.20355225
1602329954681,70,-0.8039551,-0.642395,0.20257568
1602329954681,71,-0.8029785,-0.64801025,0.20550537
1602329954681,72,-0.8039551,-0.6433716,0.20477295
1602329954681,73,-0.8034668,-0.645813,0.20257568
1602329954681,74,-0.8029785,-0.64801025,0.20550537
1602329954681,75,-0.8005371,-0.64556885,0.2020874
1602329954681,76,-0.80615234,-0.6411743,0.20355225
1602329954681,77,-0.8005371,-0.64556885,0.2020874
1602329954681,78,-0.8051758,-0.64434814,0.20599365
1602329954681,79,-0.8051758,-0.64434814,0.20599365
1602329954681,80,-0.8039551,-0.6433716,0.20477295
1602329954681,81,-0.80444336,-0.644104,0.19671631
1602329954681,82,-0.80444336,-0.644104,0.19671631
1602329954681,83,-0.8059082,-0.6436157,0.19915771
1602329954681,84,-0.8059082,-0.6436157,0.19915771
1602329954681,85,-0.8029785,-0.64801025,0.20550537
1602329954681,86,-0.8034668,-0.64556885,0.19891357
1602329954681,87,-0.8005371,-0.64556885,0.2020874
1602329954681,88,-0.8034668,-0.64556885,0.19891357
1602329954681,89,-0.8051758,-0.64434814,0.20599365
1602329954681,90,-0.80444336,-0.64434814,0.21307373
1602329954681,91,-0.80444336,-0.644104,0.19671631
1602329954681,92,-0.80444336,-0.64434814,0.21307373
1602329954681,93,-0.8059082,-0.6436157,0.19915771
1602329954681,94,-0.8034668,-0.64556885,0.19891357
1602329954681,95,-0.80444336,-0.64434814,0.21307373
1602329957201,96,-0.80200195,-0.644104,0.20526123
1602329957266,97,-0.80200195,-0.644104,0.20526123
1602329957266,98,-0.80371094,-0.6448364,0.2062378
1602329957266,99,-0.80371094,-0.6448364,0.2062378
1602329954681,100,-0.80200195,-0.644104,0.20526123
1602329957266,101,-0.8022461,-0.64678955,0.20672607
1602329957266,102,-0.8022461,-0.64678955,0.20672607
1602329957266,103,-0.8046875,-0.64263916,0.2098999
1602329957266,104,-0.80371094,-0.6448364,0.2062378
1602329957266,105,-0.8046875,-0.64263916,0.2098999
1602329957266,106,-0.8027344,-0.6428833,0.2074585
1602329957266,107,-0.80200195,-0.6460571,0.20648193
1602329957266,108,-0.8022461,-0.64678955,0.20672607
1602329957266,109,-0.8027344,-0.6428833,0.2074585
1602329957266,110,-0.80322266,-0.6448364,0.20892334
1602329957266,111,-0.8046875,-0.64263916,0.2098999
1602329957266,112,-0.80200195,-0.6460571,0.20648193
1602329957266,113,-0.8015137,-0.64434814,0.2098999
1602329957266,114,-0.8027344,-0.6428833,0.2074585
1602329957266,115,-0.80322266,-0.6448364,0.20892334
1602329957266,116,-0.80200195,-0.6460571,0.20648193
1602329957266,117,-0.8029785,-0.64141846,0.21331787
1602329957266,118,-0.8015137,-0.64434814,0.2098999
1602329957266,119,-0.80322266,-0.6448364,0.20892334
1602329957266,120,-0.80249023,-0.6448364,0.2086792
1602329957266,121,-0.8015137,-0.64434814,0.2098999
1602329957266,122,-0.8029785,-0.64141846,0.21331787
1602329957266,123,-0.80371094,-0.64556885,0.20721436
1602329957266,124,-0.8029785,-0.64141846,0.21331787
1602329957266,125,-0.80249023,-0.6448364,0.2086792
1602329957266,126,-0.80371094,-0.64556885,0.20721436
1602329957266,127,-0.80249023,-0.6448364,0.2086792
1602329957266,128,-0.8039551,-0.6445923,0.2086792
1602329957266,129,-0.8039551,-0.6445923,0.2086792
1602329957266,130,-0.80371094,-0.64556885,0.20721436
1602329957266,131,-0.8039551,-0.6445923,0.2086792
1602329957266,132,-0.80126953,-0.6436157,0.21307373
1602329957266,133,-0.80126953,-0.6436157,0.21307373
1602329957266,134,-0.8039551,-0.6460571,0.20770264
1602329957266,135,-0.80126953,-0.6436157,0.21307373
1602329957266,136,-0.8039551,-0.6460571,0.20770264
1602329957266,137,-0.8039551,-0.6460571,0.20770264
1602329957266,138,-0.80615234,-0.6453247,0.2086792
1602329957266,139,-0.80615234,-0.6453247,0.2086792
1602329957266,140,-0.80615234,-0.6453247,0.2086792
1602329957266,141,-0.8041992,-0.6416626,0.20452881
1602329957266,142,-0.8041992,-0.6416626,0.20452881
1602329957266,143,-0.8022461,-0.64508057,0.21063232
1602329957266,144,-0.8041992,-0.6416626,0.20452881
1602329957266,145,-0.8022461,-0.64508057,0.21063232
1602329957266,146,-0.80493164,-0.6421509,0.21014404
1602329957266,147,-0.8022461,-0.64508057,0.21063232
1602329957266,148,-0.80493164,-0.6421509,0.21014404
1602329957266,149,-0.80322266,-0.6411743,0.2074585
1602329957266,150,-0.80493164,-0.6421509,0.21014404
1602329957266,151,-0.80078125,-0.64434814,0.20916748
1602329957266,152,-0.80322266,-0.6411743,0.2074585
1602329957266,153,-0.80322266,-0.6411743,0.2074585
1602329957266,154,-0.80078125,-0.64434814,0.20916748
1602329957266,155,-0.80078125,-0.64434814,0.20916748
1602329957266,156,-0.80126953,-0.64727783,0.2111206
1602329957266,157,-0.80126953,-0.64727783,0.2111206
1602329957266,158,-0.80126953,-0.64727783,0.2111206
1602329957266,159,-0.8022461,-0.6445923,0.20770264
1602329957266,160,-0.8022461,-0.6445923,0.20770264
1602329957266,161,-0.8039551,-0.6416626,0.20574951
1602329957266,162,-0.8022461,-0.6445923,0.20770264
1602329957266,163,-0.8039551,-0.6416626,0.20574951
1602329957266,164,-0.8029785,-0.64312744,0.20550537
1602329957266,165,-0.8039551,-0.6416626,0.20574951
1602329957266,166,-0.8029785,-0.64312744,0.20550537
1602329957266,167,-0.8029785,-0.64312744,0.20550537
1602329957266,168,-0.8041992,-0.6436157,0.20794678
1602329957266,169,-0.8041992,-0.6436157,0.20794678
1602329957266,170,-0.8034668,-0.6448364,0.2111206
1602329957266,171,-0.8041992,-0.6436157,0.20794678
1602329957266,172,-0.8017578,-0.6404419,0.21258545
1602329957266,173,-0.8034668,-0.6448364,0.2111206
1602329957266,174,-0.8034668,-0.6448364,0.2111206
1602329957266,175,-0.8051758,-0.6436157,0.2164917
1602329957266,176,-0.8017578,-0.6404419,0.21258545
1602329957266,177,-0.8000488,-0.6445923,0.21185303
1602329957266,178,-0.8017578,-0.6404419,0.21258545
1602329957266,179,-0.8051758,-0.6436157,0.2164917
1602329957266,180,-0.8022461,-0.64263916,0.21331787
1602329957266,181,-0.8051758,-0.6436157,0.2164917
1602329957266,182,-0.8000488,-0.6445923,0.21185303
1602329957266,183,-0.8046875,-0.6448364,0.21453857
1602329957266,184,-0.8022461,-0.64263916,0.21331787
1602329957266,185,-0.8000488,-0.6445923,0.21185303
1602329957266,186,-0.8059082,-0.6409302,0.20965576
1602329957266,187,-0.8046875,-0.6448364,0.21453857
1602329957266,188,-0.8022461,-0.64263916,0.21331787
1602329957266,189,-0.8046875,-0.6448364,0.21453857
1602329957266,190,-0.8059082,-0.6409302,0.20965576
1602329957266,191,-0.8059082,-0.6409302,0.20965576
1602329957266,192,-0.80444336,-0.6436157,0.20648193
1602329959786,193,-0.80444336,-0.6436157,0.20648193
1602329960045,194,-0.8039551,-0.64556885,0.2086792
1602329960045,195,-0.80444336,-0.6436157,0.20648193
1602329960045,196,-0.8039551,-0.64556885,0.2086792
1602329960045,197,-0.8039551,-0.64556885,0.2086792
1602329960045,198,-0.8034668,-0.64141846,0.21087646
1602329960045,199,-0.8034668,-0.64141846,0.21087646
1602329960045,200,-0.80322266,-0.64068604,0.20477295
1602329960045,201,-0.8034668,-0.64141846,0.21087646
1602329960045,202,-0.8046875,-0.6436157,0.20574951
1602329960045,203,-0.80322266,-0.64068604,0.20477295
1602329960045,204,-0.80322266,-0.64068604,0.20477295
1602329960045,205,-0.8046875,-0.6436157,0.20574951
1602329960045,206,-0.80444336,-0.6404419,0.20819092
1602329960045,207,-0.8046875,-0.6436157,0.20574951
1602329960045,208,-0.80444336,-0.6404419,0.20819092
1602329960045,209,-0.80444336,-0.6404419,0.20819092
1602329960045,210,-0.8063965,-0.6392212,0.20697021
1602329960045,211,-0.8063965,-0.6392212,0.20697021
1602329960045,212,-0.80444336,-0.64068604,0.20892334
1602329960045,213,-0.80444336,-0.64068604,0.20892334
1602329960045,214,-0.8063965,-0.6392212,0.20697021
1602329960045,215,-0.80566406,-0.64190674,0.20892334
1602329960045,216,-0.80444336,-0.64068604,0.20892334
1602329960045,217,-0.80566406,-0.64190674,0.20892334
1602329960045,218,-0.80322266,-0.64019775,0.20526123
1602329960045,219,-0.80566406,-0.64190674,0.20892334
1602329960045,220,-0.80322266,-0.64019775,0.20526123
1602329960045,221,-0.80322266,-0.64019775,0.20526123
1602329960045,222,-0.8039551,-0.647522,0.21429443
1602329960045,223,-0.8039551,-0.647522,0.21429443
1602329960045,224,-0.8039551,-0.647522,0.21429443
1602329960045,225,-0.8051758,-0.6382446,0.2086792
1602329960045,226,-0.8051758,-0.6382446,0.2086792
1602329960045,227,-0.8034668,-0.64263916,0.215271
1602329960045,228,-0.8051758,-0.6382446,0.2086792
1602329960045,229,-0.8034668,-0.64263916,0.215271
1602329960045,230,-0.80615234,-0.6399536,0.20355225
1602329960045,231,-0.8034668,-0.64263916,0.215271
1602329960045,232,-0.80859375,-0.6404419,0.2086792
1602329960045,233,-0.80615234,-0.6399536,0.20355225
1602329960045,234,-0.80615234,-0.6399536,0.20355225
1602329960045,235,-0.8066406,-0.6411743,0.2086792
1602329960045,236,-0.80859375,-0.6404419,0.2086792
1602329960045,237,-0.80859375,-0.6404419,0.2086792
1602329960045,238,-0.8066406,-0.6411743,0.2086792
1602329960045,239,-0.80615234,-0.6382446,0.20892334
1602329960045,240,-0.8066406,-0.6411743,0.2086792
1602329960045,241,-0.80615234,-0.6382446,0.20892334
1602329960045,242,-0.8066406,-0.6404419,0.21038818
1602329960045,243,-0.80615234,-0.6382446,0.20892334
1602329960045,244,-0.8066406,-0.6404419,0.21038818
1602329960045,245,-0.8041992,-0.6399536,0.2086792
1602329960045,246,-0.8066406,-0.6404419,0.21038818
1602329960045,247,-0.8041992,-0.6399536,0.2086792
1602329960045,248,-0.80615234,-0.6404419,0.21380615
1602329960045,249,-0.8041992,-0.6399536,0.2086792
1602329960045,250,-0.80615234,-0.6404419,0.21380615
1602329960045,251,-0.80444336,-0.6387329,0.21502686
1602329960045,252,-0.80615234,-0.6404419,0.21380615
1602329960045,253,-0.80444336,-0.6387329,0.21502686
1602329960045,254,-0.8034668,-0.63848877,0.21282959
1602329960045,255,-0.8034668,-0.63848877,0.21282959
1602329960045,256,-0.80444336,-0.6387329,0.21502686
1602329960045,257,-0.8063965,-0.6409302,0.2098999
1602329960045,258,-0.8034668,-0.63848877,0.21282959
1602329960045,259,-0.8063965,-0.6409302,0.2098999
1602329960045,260,-0.8063965,-0.6409302,0.2098999
1602329960045,261,-0.80493164,-0.64190674,0.21356201
1602329960045,262,-0.80493164,-0.64190674,0.21356201
1602329960045,263,-0.80444336,-0.6382446,0.21209717
1602329960045,264,-0.80493164,-0.64190674,0.21356201
1602329960045,265,-0.80444336,-0.6382446,0.21209717
1602329960045,266,-0.8015137,-0.6397095,0.21063232
1602329960045,267,-0.80444336,-0.6382446,0.21209717
1602329960045,268,-0.8015137,-0.6397095,0.21063232
1602329960045,269,-0.8015137,-0.6397095,0.21063232
1602329960045,270,-0.8054199,-0.6404419,0.20965576
1602329960045,271,-0.8054199,-0.6404419,0.20965576
1602329960045,272,-0.8054199,-0.6404419,0.20965576
1602329960045,273,-0.8051758,-0.6375122,0.21160889
1602329960045,274,-0.8051758,-0.6375122,0.21160889
1602329960045,275,-0.8051758,-0.6375122,0.21160889
1602329960045,276,-0.8078613,-0.6404419,0.21575928
1602329960045,277,-0.8078613,-0.6404419,0.21575928
1602329960045,278,-0.80737305,-0.6382446,0.21282959
1602329960045,279,-0.80737305,-0.6382446,0.21282959
1602329960045,280,-0.8078613,-0.6404419,0.21575928
1602329960045,281,-0.80444336,-0.6409302,0.20916748
1602329960045,282,-0.80737305,-0.6382446,0.21282959
1602329960045,283,-0.80444336,-0.6409302,0.20916748
1602329960045,284,-0.8054199,-0.64141846,0.20941162
1602329960045,285,-0.8054199,-0.64141846,0.20941162
1602329960045,286,-0.80444336,-0.6409302,0.20916748
1602329960045,287,-0.8054199,-0.64141846,0.20941162
1602329960045,288,-0.80493164,-0.6411743,0.20770264
1602329962565,289,-0.80493164,-0.6411743,0.20770264
1602329962233,290,-0.80493164,-0.6411743,0.20770264
1602329962233,291,-0.8054199,-0.6399536,0.21038818
1602329962233,292,-0.8054199,-0.6399536,0.21038818
1602329962233,293,-0.8054199,-0.6399536,0.21038818
1602329962233,294,-0.80688477,-0.6409302,0.2111206
1602329962233,295,-0.80688477,-0.6409302,0.2111206
1602329962233,296,-0.80688477,-0.6409302,0.2111206
1602329962233,297,-0.80688477,-0.6387329,0.20574951
1602329962233,298,-0.80688477,-0.6387329,0.20574951
1602329962233,299,-0.80688477,-0.6387329,0.20574951
1602329962233,300,-0.80444336,-0.6397095,0.20916748
1602329962233,301,-0.80444336,-0.6397095,0.20916748
1602329962233,302,-0.8071289,-0.64312744,0.215271
1602329962233,303,-0.80444336,-0.6397095,0.20916748
1602329962233,304,-0.80688477,-0.6362915,0.2111206
1602329962233,305,-0.8071289,-0.64312744,0.215271
1602329962233,306,-0.8071289,-0.64312744,0.215271
1602329962233,307,-0.8051758,-0.64068604,0.21063232
1602329962233,308,-0.80688477,-0.6362915,0.2111206
1602329962233,309,-0.8051758,-0.64068604,0.21063232
1602329962233,310,-0.80493164,-0.64141846,0.21014404
1602329962233,311,-0.80688477,-0.6362915,0.2111206
1602329962233,312,-0.8095703,-0.6397095,0.20233154
1602329962233,313,-0.8051758,-0.64068604,0.21063232
1602329962233,314,-0.80493164,-0.64141846,0.21014404
1602329962233,315,-0.8095703,-0.6397095,0.20477295
1602329962233,316,-0.80493164,-0.64141846,0.21014404
1602329962233,317,-0.80908203,-0.6404419,0.20819092
1602329962233,318,-0.8095703,-0.6397095,0.20233154
1602329962233,319,-0.8088379,-0.63897705,0.20965576
1602329962233,320,-0.8095703,-0.6397095,0.20477295
1602329962233,321,-0.8095703,-0.6397095,0.20233154
1602329962234,322,-0.80981445,-0.63946533,0.20721436
1602329962234,323,-0.8095703,-0.6397095,0.20477295
1602329962234,324,-0.80908203,-0.6404419,0.20819092
1602329962234,325,-0.8093262,-0.6421509,0.21063232
1602329962234,326,-0.80908203,-0.6404419,0.20819092
1602329962234,327,-0.8088379,-0.63897705,0.20965576
1602329962234,328,-0.8088379,-0.63897705,0.20965576
1602329962234,329,-0.80981445,-0.63946533,0.20721436
1602329962234,330,-0.8078613,-0.6397095,0.20892334
1602329962234,331,-0.80615234,-0.63775635,0.20697021
1602329962234,332,-0.80981445,-0.63946533,0.20721436
1602329962234,333,-0.8093262,-0.6421509,0.21063232
1602329962234,334,-0.80737305,-0.6382446,0.2062378
1602329962234,335,-0.8093262,-0.6421509,0.21063232
1602329962234,336,-0.8078613,-0.6397095,0.20892334
1602329962234,337,-0.8078613,-0.6397095,0.20892334
1602329962234,338,-0.8083496,-0.63775635,0.20819092
1602329962234,339,-0.80615234,-0.63775635,0.20697021
1602329962234,340,-0.8066406,-0.63482666,0.20794678
1602329962234,341,-0.80737305,-0.6382446,0.2062378
1602329962234,342,-0.80615234,-0.63775635,0.20697021
1602329962234,343,-0.8076172,-0.6397095,0.21038818
1602329962234,344,-0.8083496,-0.63775635,0.20819092
1602329962234,345,-0.80737305,-0.6382446,0.2062378
1602329962234,346,-0.81030273,-0.63848877,0.20721436
1602329962234,347,-0.8066406,-0.63482666,0.20794678
1602329962234,348,-0.80908203,-0.6380005,0.20599365
1602329962234,349,-0.8083496,-0.63775635,0.20819092
1602329962234,350,-0.8076172,-0.6397095,0.21038818
1602329962234,351,-0.8076172,-0.63726807,0.20794678
1602329962235,352,-0.80688477,-0.63531494,0.20916748
1602329962234,353,-0.81030273,-0.63848877,0.20721436
1602329962235,354,-0.80859375,-0.6387329,0.21063232
1602329962234,355,-0.8066406,-0.63482666,0.20794678
1602329962235,356,-0.80859375,-0.6362915,0.20721436
1602329962235,357,-0.80908203,-0.6380005,0.20599365
1602329962235,358,-0.8076172,-0.6397095,0.21038818
1602329962235,359,-0.8076172,-0.63726807,0.20794678
1602329962235,360,-0.81030273,-0.63848877,0.20721436
1602329962235,361,-0.8083496,-0.6375122,0.20526123
1602329962235,362,-0.80688477,-0.63531494,0.20916748
1602329962235,363,-0.8083496,-0.63653564,0.20550537
1602329962235,364,-0.80859375,-0.6387329,0.21063232
1602329962235,365,-0.80908203,-0.6380005,0.20599365
1602329962235,366,-0.80859375,-0.6362915,0.20721436
1602329962235,367,-0.8076172,-0.63726807,0.20794678
1602329962235,368,-0.80566406,-0.63726807,0.20794678
1602329962235,369,-0.80688477,-0.63531494,0.20916748
1602329962235,370,-0.8083496,-0.6375122,0.20526123
1602329962235,371,-0.80688477,-0.63897705,0.21063232
1602329962235,372,-0.8083496,-0.63653564,0.20550537
1602329962235,373,-0.80859375,-0.6387329,0.21063232
1602329962235,374,-0.81030273,-0.63848877,0.20916748
1602329962235,375,-0.80566406,-0.63726807,0.20794678
1602329962235,376,-0.80859375,-0.6362915,0.20721436
1602329962235,377,-0.80688477,-0.63897705,0.21063232
1602329962235,378,-0.8083496,-0.6375122,0.20526123
1602329962235,379,-0.81030273,-0.63848877,0.20916748
1602329962235,380,-0.8083496,-0.63653564,0.20550537
1602329962235,381,-0.80566406,-0.63726807,0.20794678
1602329962235,382,-0.80688477,-0.63897705,0.21063232
1602329962235,383,-0.81030273,-0.63848877,0.20916748
1602329962234,384,-0.80859375,-0.63726807,0.20843506
1602329964817,385,-0.80859375,-0.63726807,0.20843506
1602329964817,386,-0.80859375,-0.63726807,0.20843506
1602329964817,387,-0.80981445,-0.6380005,0.21258545
1602329964817,388,-0.80981445,-0.6380005,0.21258545
1602329964817,389,-0.80981445,-0.6380005,0.21258545
1602329964817,390,-0.8059082,-0.6358032,0.21087646
1602329964817,391,-0.8059082,-0.6358032,0.21087646
1602329964817,392,-0.80859375,-0.6392212,0.2062378
1602329964817,393,-0.8059082,-0.6358032,0.21087646
1602329964817,394,-0.80859375,-0.6392212,0.2062378
1602329964817,395,-0.8100586,-0.63531494,0.20697021
1602329964817,396,-0.80859375,-0.6392212,0.2062378
1602329964817,397,-0.8100586,-0.63531494,0.20697021
1602329964817,398,-0.8083496,-0.63531494,0.20770264
1602329964817,399,-0.8100586,-0.63531494,0.20697021
1602329964817,400,-0.8083496,-0.63531494,0.20770264
1602329964817,401,-0.8083496,-0.6380005,0.2062378
1602329964817,402,-0.8083496,-0.63531494,0.20770264
1602329964817,403,-0.8083496,-0.6380005,0.2062378
1602329964817,404,-0.8105469,-0.6350708,0.20794678
1602329964817,405,-0.8083496,-0.6380005,0.2062378
1602329964817,406,-0.8105469,-0.6350708,0.20794678
1602329964817,407,-0.8105469,-0.6350708,0.20794678
1602329964817,408,-0.8083496,-0.6382446,0.21014404
1602329964817,409,-0.8083496,-0.6382446,0.21014404
1602329964817,410,-0.8095703,-0.6362915,0.20965576
1602329964817,411,-0.8083496,-0.6382446,0.21014404
1602329964817,412,-0.8095703,-0.6362915,0.20965576
1602329964817,413,-0.8095703,-0.6362915,0.20965576
1602329964817,414,-0.80810547,-0.64019775,0.21185303
1602329964817,415,-0.80810547,-0.64019775,0.21185303
1602329964817,416,-0.8100586,-0.6358032,0.20697021
1602329964817,417,-0.80810547,-0.64019775,0.21185303
1602329964817,418,-0.80981445,-0.6375122,0.21014404
1602329964817,419,-0.8100586,-0.6358032,0.20697021
1602329964817,420,-0.8105469,-0.6375122,0.20550537
1602329964817,421,-0.8100586,-0.6358032,0.20697021
1602329964817,422,-0.80981445,-0.6375122,0.21014404
1602329964817,423,-0.80981445,-0.6375122,0.21014404
1602329964817,424,-0.8105469,-0.6358032,0.2086792
1602329964817,425,-0.8105469,-0.6375122,0.20550537
1602329964817,426,-0.8105469,-0.6375122,0.20550537
1602329964817,427,-0.8093262,-0.6375122,0.21087646
1602329964817,428,-0.8105469,-0.6358032,0.2086792
1602329964817,429,-0.8105469,-0.6358032,0.2086792
1602329964817,430,-0.8095703,-0.6382446,0.2086792
1602329964817,431,-0.8093262,-0.6375122,0.21087646
1602329964817,432,-0.8093262,-0.6375122,0.21087646
1602329964817,433,-0.80859375,-0.63726807,0.20599365
1602329964817,434,-0.80981445,-0.6380005,0.20574951
1602329964817,435,-0.8095703,-0.6382446,0.2086792
1602329964817,436,-0.8095703,-0.6382446,0.2086792
1602329964817,437,-0.8083496,-0.6387329,0.20941162
1602329964817,438,-0.80859375,-0.63726807,0.20599365
1602329964817,439,-0.80859375,-0.63726807,0.20599365
1602329964817,440,-0.80981445,-0.6380005,0.20574951
1602329964817,441,-0.8095703,-0.63409424,0.20770264
1602329964817,442,-0.80981445,-0.6380005,0.20574951
1602329964817,443,-0.8083496,-0.6387329,0.20941162
1602329964817,444,-0.810791,-0.6382446,0.20599365
1602329964817,445,-0.8083496,-0.6387329,0.20941162
1602329964817,446,-0.8095703,-0.63409424,0.20770264
1602329964817,447,-0.810791,-0.6382446,0.20599365
1602329964817,448,-0.8095703,-0.63848877,0.20452881
1602329964817,449,-0.8095703,-0.63848877,0.20452881
1602329964817,450,-0.8095703,-0.63409424,0.20770264
1602329964817,451,-0.8137207,-0.6362915,0.20184326
1602329964817,452,-0.8137207,-0.6362915,0.20184326
1602329964817,453,-0.810791,-0.6382446,0.20599365
1602329964817,454,-0.81274414,-0.6367798,0.2033081
1602329964817,455,-0.81274414,-0.6367798,0.2033081
1602329964817,456,-0.8137207,-0.63531494,0.199646
1602329964817,457,-0.8095703,-0.63848877,0.20452881
1602329964817,458,-0.8137207,-0.63531494,0.199646
1602329964817,459,-0.8137207,-0.6362915,0.20184326
1602329964817,460,-0.81103516,-0.6367798,0.20135498
1602329964817,461,-0.81274414,-0.6367798,0.2033081
1602329964817,462,-0.81225586,-0.63604736,0.20111084
1602329964817,463,-0.81103516,-0.6367798,0.20135498
1602329964817,464,-0.8105469,-0.6367798,0.20672607
1602329964817,465,-0.8137207,-0.63531494,0.199646
1602329964817,466,-0.8083496,-0.6370239,0.20648193
1602329964817,467,-0.81225586,-0.63604736,0.20111084
1602329964817,468,-0.81103516,-0.6367798,0.20135498
1602329964817,469,-0.8105469,-0.6367798,0.20672607
1602329964817,470,-0.81225586,-0.63604736,0.20111084
1602329964817,471,-0.81274414,-0.6370239,0.2062378
1602329964817,472,-0.81103516,-0.6382446,0.19915771
1602329964817,473,-0.8083496,-0.6370239,0.20648193
1602329964817,474,-0.8105469,-0.6367798,0.20672607
1602329964817,475,-0.81274414,-0.6370239,0.2062378
1602329964817,476,-0.8083496,-0.6370239,0.20648193
1602329964817,477,-0.81103516,-0.6382446,0.19915771
1602329964817,478,-0.81274414,-0.6370239,0.2062378
1602329964817,479,-0.81103516,-0.6382446,0.19915771
1602329964817,480,-0.8095703,-0.63531494,0.20574951
1602329967337,481,-0.8095703,-0.63531494,0.20574951
1602329967403,482,-0.8095703,-0.63531494,0.20574951
1602329967403,483,-0.81103516,-0.6358032,0.20428467
1602329967403,484,-0.81103516,-0.6358032,0.20428467
1602329967403,485,-0.8117676,-0.6355591,0.20355225
1602329967403,486,-0.81103516,-0.6358032,0.20428467
1602329967403,487,-0.80981445,-0.6367798,0.2062378
1602329967403,488,-0.8117676,-0.6355591,0.20355225
1602329967403,489,-0.8117676,-0.6355591,0.20355225
1602329967403,490,-0.8117676,-0.6338501,0.20648193
1602329967403,491,-0.80981445,-0.6367798,0.2062378
1602329967403,492,-0.80981445,-0.6367798,0.2062378
1602329967403,493,-0.8117676,-0.6338501,0.20648193
1602329967403,494,-0.8100586,-0.63726807,0.20965576
1602329967403,495,-0.8117676,-0.6338501,0.20648193
1602329967403,496,-0.8100586,-0.6326294,0.20697021
1602329967403,497,-0.8100586,-0.63726807,0.20965576
1602329967403,498,-0.8100586,-0.63775635,0.21453857
1602329967403,499,-0.8100586,-0.63726807,0.20965576
1602329967403,500,-0.8100586,-0.6326294,0.20697021
1602329967403,501,-0.8100586,-0.6355591,0.2062378
1602329967403,502,-0.8100586,-0.63775635,0.21453857
1602329967403,503,-0.8100586,-0.6326294,0.20697021
1602329967403,504,-0.8083496,-0.63531494,0.2074585
1602329967403,505,-0.8100586,-0.6355591,0.2062378
1602329967403,506,-0.8100586,-0.63775635,0.21453857
1602329967403,507,-0.8083496,-0.63531494,0.2074585
1602329967403,508,-0.80859375,-0.6343384,0.20916748
1602329967403,509,-0.8100586,-0.6355591,0.2062378
1602329967403,510,-0.80859375,-0.6343384,0.20916748
1602329967403,511,-0.810791,-0.6338501,0.20794678
1602329967403,512,-0.810791,-0.6338501,0.20794678
1602329967403,513,-0.8083496,-0.63531494,0.2074585
1602329967404,514,-0.8095703,-0.6380005,0.20843506
1602329967404,515,-0.8095703,-0.6380005,0.20843506
1602329967404,516,-0.80859375,-0.6343384,0.20916748
1602329967404,517,-0.8095703,-0.63531494,0.21014404
1602329967404,518,-0.810791,-0.6338501,0.20794678
1602329967404,519,-0.8095703,-0.6380005,0.20843506
1602329967404,520,-0.8095703,-0.63531494,0.21014404
1602329967404,521,-0.81103516,-0.64019775,0.21209717
1602329967404,522,-0.8095703,-0.63531494,0.21014404
1602329967404,523,-0.81152344,-0.6338501,0.20770264
1602329967404,524,-0.81103516,-0.64019775,0.21209717
1602329967404,525,-0.81103516,-0.64019775,0.21209717
1602329967404,526,-0.80810547,-0.63726807,0.20819092
1602329967404,527,-0.81152344,-0.6338501,0.20770264
1602329967404,528,-0.81152344,-0.6338501,0.20770264
1602329967404,529,-0.8088379,-0.6343384,0.20916748
1602329967404,530,-0.8117676,-0.6370239,0.21624756
1602329967404,531,-0.80810547,-0.63726807,0.20819092
1602329967404,532,-0.8093262,-0.63360596,0.20819092
1602329967404,533,-0.80810547,-0.63726807,0.20819092
1602329967404,534,-0.81030273,-0.6355591,0.21209717
1602329967404,535,-0.8088379,-0.6343384,0.20916748
1602329967404,536,-0.8088379,-0.6343384,0.20916748
1602329967404,537,-0.8117676,-0.6370239,0.21624756
1602329967404,538,-0.80981445,-0.63531494,0.20843506
1602329967404,539,-0.8093262,-0.63360596,0.20819092
1602329967404,540,-0.8117676,-0.6370239,0.21624756
1602329967404,541,-0.8078613,-0.63287354,0.20794678
1602329967404,542,-0.8093262,-0.63360596,0.20819092
1602329967404,543,-0.8088379,-0.6387329,0.21258545
1602329967405,544,-0.80908203,-0.63067627,0.2111206
1602329967404,545,-0.81030273,-0.6355591,0.21209717
1602329967405,546,-0.8100586,-0.63409424,0.20892334
1602329967405,547,-0.80981445,-0.63531494,0.20843506
1602329967405,548,-0.810791,-0.6370239,0.20306396
1602329967405,549,-0.8078613,-0.63287354,0.20794678
1602329967404,550,-0.81030273,-0.6355591,0.21209717
1602329967405,551,-0.81396484,-0.63287354,0.20452881
1602329967405,552,-0.8088379,-0.6387329,0.21258545
1602329967405,553,-0.80981445,-0.63531494,0.20843506
1602329967405,554,-0.8078613,-0.63287354,0.20794678
1602329967405,555,-0.8117676,-0.63067627,0.20916748
1602329967405,556,-0.8088379,-0.6387329,0.21258545
1602329967405,557,-0.80908203,-0.63067627,0.2111206
1602329967405,558,-0.8093262,-0.6370239,0.21063232
1602329967405,559,-0.80908203,-0.63067627,0.2111206
1602329967405,560,-0.8066406,-0.64019775,0.20843506
1602329967405,561,-0.8100586,-0.63409424,0.20892334
1602329967405,562,-0.8100586,-0.63409424,0.20892334
1602329967405,563,-0.8051758,-0.6392212,0.20257568
1602329967405,564,-0.810791,-0.6370239,0.20306396
1602329967405,565,-0.810791,-0.6370239,0.20306396
1602329967405,566,-0.81396484,-0.63287354,0.20452881
1602329967405,567,-0.81396484,-0.63287354,0.20452881
1602329967405,568,-0.8117676,-0.63067627,0.20916748
1602329967405,569,-0.8117676,-0.63067627,0.20916748
1602329967405,570,-0.8093262,-0.6370239,0.21063232
1602329967405,571,-0.8093262,-0.6370239,0.21063232
1602329967405,572,-0.8066406,-0.64019775,0.20843506
1602329967405,573,-0.8066406,-0.64019775,0.20843506
1602329967405,574,-0.8051758,-0.6392212,0.20257568
1602329967405,575,-0.8051758,-0.6392212,0.20257568
1602329967404,576,-0.81152344,-0.6445923,0.20648193
1602329969987,577,-0.81152344,-0.6445923,0.20648193
1602329969924,578,-0.81152344,-0.6445923,0.20648193
1602329969987,579,-0.81152344,-0.63653564,0.19989014
1602329969987,580,-0.81152344,-0.63653564,0.19989014
1602329969987,581,-0.81152344,-0.63653564,0.19989014
1602329969987,582,-0.8071289,-0.6382446,0.2033081
1602329969987,583,-0.8071289,-0.6382446,0.2033081
1602329969987,584,-0.8071289,-0.6382446,0.2033081
1602329969987,585,-0.8041992,-0.6409302,0.20355225
1602329969987,586,-0.8041992,-0.6409302,0.20355225
1602329969987,587,-0.8041992,-0.6409302,0.20355225
1602329969987,588,-0.8144531,-0.6358032,0.2033081
1602329969987,589,-0.8144531,-0.6358032,0.2033081
1602329969987,590,-0.8129883,-0.6370239,0.19573975
1602329969987,591,-0.8144531,-0.6358032,0.2033081
1602329969987,592,-0.8120117,-0.63775635,0.19134521
1602329969987,593,-0.8129883,-0.6370239,0.19573975
1602329969987,594,-0.8120117,-0.63775635,0.19134521
1602329969987,595,-0.8129883,-0.6370239,0.19573975
1602329969987,596,-0.81274414,-0.63946533,0.19647217
1602329969987,597,-0.81274414,-0.63946533,0.19647217
1602329969987,598,-0.81225586,-0.6333618,0.20037842
1602329969987,599,-0.8120117,-0.63775635,0.19134521
1602329969987,600,-0.81225586,-0.6333618,0.20037842
1602329969987,601,-0.81274414,-0.63946533,0.19647217
1602329969987,602,-0.8144531,-0.6382446,0.19769287
1602329969987,603,-0.8144531,-0.6382446,0.19769287
1602329969987,604,-0.81225586,-0.6333618,0.20037842
1602329969987,605,-0.8132324,-0.6387329,0.1918335
1602329969987,606,-0.8144531,-0.6382446,0.19769287
1602329969987,607,-0.81469727,-0.6358032,0.18988037
1602329969987,608,-0.8132324,-0.6387329,0.1918335
1602329969987,609,-0.8132324,-0.6387329,0.1918335
1602329969988,610,-0.8137207,-0.63897705,0.1906128
1602329969988,611,-0.81469727,-0.6358032,0.18988037
1602329969988,612,-0.81469727,-0.6358032,0.18988037
1602329969988,613,-0.81347656,-0.63848877,0.19451904
1602329969988,614,-0.8137207,-0.63897705,0.1906128
1602329969988,615,-0.8137207,-0.63897705,0.1906128
1602329969988,616,-0.81347656,-0.63848877,0.19451904
1602329969988,617,-0.8144531,-0.63482666,0.19744873
1602329969988,618,-0.81347656,-0.63848877,0.19451904
1602329969988,619,-0.8144531,-0.63482666,0.19744873
1602329969988,620,-0.81225586,-0.63360596,0.19818115
1602329969988,621,-0.81225586,-0.63360596,0.19818115
1602329969988,622,-0.8144531,-0.63482666,0.19744873
1602329969988,623,-0.81225586,-0.63360596,0.19818115
1602329969988,624,-0.81469727,-0.63775635,0.20281982
1602329969988,625,-0.81469727,-0.63775635,0.20281982
1602329969988,626,-0.81469727,-0.63775635,0.20281982
1602329969988,627,-0.8132324,-0.6350708,0.19866943
1602329969988,628,-0.8132324,-0.6350708,0.19866943
1602329969988,629,-0.8149414,-0.6370239,0.2008667
1602329969988,630,-0.8132324,-0.6350708,0.19866943
1602329969988,631,-0.8149414,-0.6370239,0.2008667
1602329969988,632,-0.8137207,-0.63287354,0.19622803
1602329969988,633,-0.8149414,-0.6370239,0.2008667
1602329969988,634,-0.8137207,-0.63287354,0.19622803
1602329969988,635,-0.81225586,-0.63531494,0.1954956
1602329969988,636,-0.81225586,-0.63531494,0.1954956
1602329969988,637,-0.8137207,-0.63287354,0.19622803
1602329969988,638,-0.81518555,-0.6355591,0.20062256
1602329969988,639,-0.81225586,-0.63531494,0.1954956
1602329969988,640,-0.81518555,-0.6355591,0.20062256
1602329969988,641,-0.81152344,-0.6345825,0.19940186
1602329969989,642,-0.81152344,-0.6345825,0.19940186
1602329969989,643,-0.81225586,-0.63726807,0.20135498
1602329969989,644,-0.81518555,-0.6355591,0.20062256
1602329969989,645,-0.81225586,-0.63726807,0.20135498
1602329969989,646,-0.81152344,-0.6345825,0.19940186
1602329969989,647,-0.814209,-0.6350708,0.19940186
1602329969989,648,-0.814209,-0.6350708,0.19940186
1602329969989,649,-0.81225586,-0.63726807,0.20135498
1602329969989,650,-0.81396484,-0.6362915,0.1984253
1602329969989,651,-0.814209,-0.6350708,0.19940186
1602329969989,652,-0.81396484,-0.6362915,0.1984253
1602329969989,653,-0.814209,-0.6321411,0.19598389
1602329969989,654,-0.814209,-0.6321411,0.19598389
1602329969989,655,-0.81396484,-0.6362915,0.1984253
1602329969989,656,-0.8125,-0.6382446,0.20159912
1602329969989,657,-0.8125,-0.6382446,0.20159912
1602329969989,658,-0.81469727,-0.6338501,0.20111084
1602329969989,659,-0.814209,-0.6321411,0.19598389
1602329969989,660,-0.81469727,-0.6338501,0.20111084
1602329969989,661,-0.8129883,-0.6362915,0.20135498
1602329969989,662,-0.8125,-0.6382446,0.20159912
1602329969989,663,-0.8129883,-0.6362915,0.20135498
1602329969989,664,-0.81396484,-0.63531494,0.19940186
1602329969989,665,-0.8132324,-0.63409424,0.20062256
1602329969989,666,-0.81396484,-0.63531494,0.19940186
1602329969989,667,-0.81469727,-0.6338501,0.20111084
1602329969989,668,-0.8132324,-0.63409424,0.20062256
1602329969989,669,-0.8129883,-0.6362915,0.20135498
1602329969989,670,-0.81396484,-0.63531494,0.19940186
1602329969989,671,-0.8132324,-0.63409424,0.20062256
1602329969988,672,-0.8137207,-0.63409424,0.19891357
1602329972568,673,-0.8137207,-0.63409424,0.19891357
1602329972568,674,-0.8137207,-0.63409424,0.19891357
1602329972568,675,-0.81640625,-0.63604736,0.19769287
1602329972568,676,-0.81640625,-0.63604736,0.19769287
1602329972568,677,-0.81640625,-0.63604736,0.19769287
1602329972568,678,-0.81347656,-0.6362915,0.19940186
1602329972568,679,-0.8137207,-0.6362915,0.19696045
1602329972568,680,-0.81347656,-0.6362915,0.19940186
1602329972568,681,-0.81347656,-0.6362915,0.19940186
1602329972568,682,-0.81225586,-0.6367798,0.20452881
1602329972568,683,-0.8137207,-0.6362915,0.19696045
1602329972568,684,-0.8137207,-0.6362915,0.19696045
1602329972568,685,-0.81225586,-0.6367798,0.20452881
1602329972568,686,-0.8125,-0.6333618,0.20428467
1602329972568,687,-0.81225586,-0.6367798,0.20452881
1602329972568,688,-0.8125,-0.6333618,0.20428467
1602329972568,689,-0.81274414,-0.63775635,0.20111084
1602329972568,690,-0.81274414,-0.63775635,0.20111084
1602329972568,691,-0.8125,-0.6333618,0.20428467
1602329972568,692,-0.8112793,-0.63531494,0.19915771
1602329972568,693,-0.8112793,-0.63531494,0.19915771
1602329972568,694,-0.81225586,-0.6355591,0.20135498
1602329972568,695,-0.81225586,-0.6355591,0.20135498
1602329972568,696,-0.81274414,-0.63775635,0.20111084
1602329972568,697,-0.8129883,-0.6338501,0.20013428
1602329972568,698,-0.8112793,-0.63531494,0.19915771
1602329972568,699,-0.8129883,-0.6338501,0.20013428
1602329972568,700,-0.8149414,-0.6350708,0.19793701
1602329972568,701,-0.81225586,-0.6355591,0.20135498
1602329972568,702,-0.8129883,-0.6338501,0.20013428
1602329972568,703,-0.8149414,-0.6350708,0.19793701
1602329972568,704,-0.8125,-0.63726807,0.20159912
1602329972568,705,-0.8149414,-0.6350708,0.19793701
1602329972568,706,-0.8125,-0.63726807,0.20159912
1602329972568,707,-0.8125,-0.63726807,0.20159912
1602329972568,708,-0.8129883,-0.6350708,0.20355225
1602329972568,709,-0.8129883,-0.6350708,0.20355225
1602329972568,710,-0.8129883,-0.6350708,0.20355225
1602329972568,711,-0.81347656,-0.63165283,0.19989014
1602329972568,712,-0.8156738,-0.6321411,0.19720459
1602329972568,713,-0.81347656,-0.63165283,0.19989014
1602329972568,714,-0.81347656,-0.63165283,0.19989014
1602329972568,715,-0.8156738,-0.6321411,0.19720459
1602329972568,716,-0.8156738,-0.6321411,0.19720459
1602329972568,717,-0.8137207,-0.6358032,0.19818115
1602329972568,718,-0.8137207,-0.6358032,0.19818115
1602329972568,719,-0.8137207,-0.6358032,0.19818115
1602329972568,720,-0.814209,-0.6345825,0.19793701
1602329972568,721,-0.814209,-0.6345825,0.19793701
1602329972568,722,-0.81518555,-0.6350708,0.2020874
1602329972568,723,-0.81518555,-0.6350708,0.2020874
1602329972568,724,-0.814209,-0.6345825,0.19793701
1602329972568,725,-0.8154297,-0.63531494,0.19525146
1602329972568,726,-0.8154297,-0.63531494,0.19525146
1602329972568,727,-0.81518555,-0.6350708,0.2020874
1602329972568,728,-0.81591797,-0.63482666,0.19744873
1602329972568,729,-0.81591797,-0.63482666,0.19744873
1602329972568,730,-0.8129883,-0.6326294,0.20037842
1602329972568,731,-0.8129883,-0.6326294,0.20037842
1602329972568,732,-0.8154297,-0.63775635,0.20037842
1602329972568,733,-0.8154297,-0.63775635,0.20037842
1602329972568,734,-0.8154297,-0.63531494,0.19525146
1602329972568,735,-0.81591797,-0.63482666,0.19744873
1602329972568,736,-0.8129883,-0.63482666,0.20428467
1602329972568,737,-0.8129883,-0.63482666,0.20428467
1602329972568,738,-0.8129883,-0.6326294,0.20037842
1602329972568,739,-0.81347656,-0.6331177,0.19891357
1602329972568,740,-0.8154297,-0.63775635,0.20037842
1602329972568,741,-0.81347656,-0.6331177,0.19891357
1602329972568,742,-0.8129883,-0.63482666,0.20428467
1602329972568,743,-0.8137207,-0.6375122,0.19500732
1602329972568,744,-0.8137207,-0.6375122,0.19500732
1602329972568,745,-0.81347656,-0.6331177,0.19891357
1602329972568,746,-0.81469727,-0.6345825,0.19671631
1602329972568,747,-0.8137207,-0.6375122,0.19500732
1602329972568,748,-0.81469727,-0.6345825,0.19671631
1602329972568,749,-0.8149414,-0.6331177,0.19866943
1602329972568,750,-0.8149414,-0.6331177,0.19866943
1602329972568,751,-0.81274414,-0.6345825,0.2074585
1602329972568,752,-0.81274414,-0.6345825,0.2074585
1602329972568,753,-0.8129883,-0.6362915,0.20233154
1602329972568,754,-0.8129883,-0.6362915,0.20233154
1602329972568,755,-0.81469727,-0.6345825,0.19671631
1602329972568,756,-0.8125,-0.63482666,0.19940186
1602329972568,757,-0.8149414,-0.6331177,0.19866943
1602329972568,758,-0.81396484,-0.63653564,0.20184326
1602329972568,759,-0.81274414,-0.6345825,0.2074585
1602329972568,760,-0.8125,-0.63482666,0.19940186
1602329972568,761,-0.8129883,-0.6362915,0.20233154
1602329972568,762,-0.81396484,-0.63116455,0.20111084
1602329972568,763,-0.81396484,-0.63653564,0.20184326
1602329972568,764,-0.81396484,-0.63116455,0.20111084
1602329972568,765,-0.8125,-0.63482666,0.19940186
1602329972568,766,-0.81396484,-0.63653564,0.20184326
1602329972568,767,-0.81396484,-0.63116455,0.20111084
1602329975088,768,-0.8117676,-0.6382446,0.20501709
1602329975152,769,-0.8117676,-0.6382446,0.20501709
1602329972568,770,-0.8117676,-0.6382446,0.20501709
1602329975152,771,-0.8137207,-0.63360596,0.19476318
1602329975152,772,-0.8137207,-0.63360596,0.19476318
1602329975152,773,-0.8125,-0.6355591,0.20037842
1602329975152,774,-0.8137207,-0.63360596,0.19476318
1602329975152,775,-0.8125,-0.6355591,0.20037842
1602329975152,776,-0.8144531,-0.6333618,0.19915771
1602329975152,777,-0.8125,-0.6355591,0.20037842
1602329975152,778,-0.8149414,-0.6362915,0.20159912
1602329975152,779,-0.8144531,-0.6333618,0.19915771
1602329975152,780,-0.8144531,-0.6333618,0.19915771
1602329975152,781,-0.8144531,-0.63409424,0.1984253
1602329975152,782,-0.8149414,-0.6362915,0.20159912
1602329975152,783,-0.8149414,-0.6362915,0.20159912
1602329975152,784,-0.8129883,-0.63287354,0.2008667
1602329975152,785,-0.8144531,-0.63409424,0.1984253
1602329975152,786,-0.8144531,-0.63409424,0.1984253
1602329975152,787,-0.8129883,-0.63287354,0.2008667
1602329975152,788,-0.8129883,-0.63287354,0.2008667
1602329975152,789,-0.8112793,-0.6345825,0.20428467
1602329975152,790,-0.8112793,-0.6345825,0.20428467
1602329975152,791,-0.8112793,-0.6345825,0.20428467
1602329975152,792,-0.8129883,-0.63067627,0.20281982
1602329975152,793,-0.8129883,-0.63067627,0.20281982
1602329975152,794,-0.8129883,-0.63067627,0.20281982
1602329975152,795,-0.8137207,-0.631897,0.2020874
1602329975152,796,-0.8137207,-0.631897,0.2020874
1602329975152,797,-0.8137207,-0.631897,0.2020874
1602329975152,798,-0.8137207,-0.63531494,0.199646
1602329975152,799,-0.8137207,-0.63531494,0.199646
1602329975152,800,-0.8137207,-0.63531494,0.199646
1602329975152,801,-0.81347656,-0.6331177,0.1942749
1602329975152,802,-0.81347656,-0.6331177,0.1942749
1602329975152,803,-0.81347656,-0.6331177,0.1942749
1602329975152,804,-0.814209,-0.6321411,0.20233154
1602329975152,805,-0.814209,-0.6321411,0.20233154
1602329975152,806,-0.81640625,-0.6333618,0.20184326
1602329975152,807,-0.814209,-0.6321411,0.20233154
1602329975152,808,-0.81640625,-0.6333618,0.20184326
1602329975152,809,-0.8132324,-0.6345825,0.19793701
1602329975152,810,-0.81640625,-0.6333618,0.20184326
1602329975152,811,-0.8132324,-0.6345825,0.19793701
1602329975152,812,-0.81469727,-0.6331177,0.19891357
1602329975152,813,-0.8132324,-0.6345825,0.19793701
1602329975152,814,-0.8173828,-0.63238525,0.20062256
1602329975152,815,-0.81469727,-0.6331177,0.19891357
1602329975152,816,-0.81469727,-0.6331177,0.19891357
1602329975152,817,-0.81396484,-0.6321411,0.19793701
1602329975152,818,-0.8173828,-0.63238525,0.20062256
1602329975152,819,-0.8173828,-0.63238525,0.20062256
1602329975152,820,-0.8154297,-0.6345825,0.20257568
1602329975152,821,-0.81396484,-0.6321411,0.19793701
1602329975152,822,-0.81396484,-0.6321411,0.19793701
1602329975152,823,-0.81518555,-0.6362915,0.20062256
1602329975152,824,-0.8154297,-0.6345825,0.20257568
1602329975152,825,-0.8144531,-0.63165283,0.19476318
1602329975152,826,-0.8154297,-0.6345825,0.20257568
1602329975152,827,-0.81518555,-0.6362915,0.20062256
1602329975152,828,-0.8173828,-0.63238525,0.19891357
1602329975152,829,-0.81518555,-0.6362915,0.20062256
1602329975152,830,-0.8144531,-0.63165283,0.19476318
1602329975152,831,-0.81396484,-0.63360596,0.20062256
1602329975152,832,-0.8161621,-0.631897,0.19818115
1602329975152,833,-0.8173828,-0.63238525,0.19891357
1602329975152,834,-0.8144531,-0.63165283,0.19476318
1602329975152,835,-0.8161621,-0.63116455,0.19281006
1602329975152,836,-0.8173828,-0.63238525,0.19891357
1602329975152,837,-0.81396484,-0.63360596,0.20062256
1602329975152,838,-0.8149414,-0.6350708,0.19622803
1602329975152,839,-0.8161621,-0.631897,0.19818115
1602329975152,840,-0.81396484,-0.63360596,0.20062256
1602329975152,841,-0.81591797,-0.6331177,0.1984253
1602329975152,842,-0.8161621,-0.631897,0.19818115
1602329975152,843,-0.81518555,-0.6333618,0.20111084
1602329975152,844,-0.8161621,-0.63116455,0.19281006
1602329975152,845,-0.8149414,-0.6350708,0.19622803
1602329975152,846,-0.8161621,-0.63116455,0.19281006
1602329975152,847,-0.8156738,-0.6333618,0.19622803
1602329975152,848,-0.81591797,-0.6331177,0.1984253
1602329975152,849,-0.8149414,-0.6350708,0.19622803
1602329975152,850,-0.81518555,-0.6333618,0.20111084
1602329975152,851,-0.81591797,-0.6331177,0.1984253
1602329975152,852,-0.8156738,-0.6333618,0.19622803
1602329975152,853,-0.81518555,-0.6333618,0.20111084
1602329975152,854,-0.8156738,-0.63482666,0.19573975
1602329975152,855,-0.8156738,-0.63482666,0.19573975
1602329975152,856,-0.8156738,-0.6333618,0.19622803
1602329975152,857,-0.8156738,-0.6350708,0.19696045
1602329975152,858,-0.8156738,-0.63482666,0.19573975
1602329975152,859,-0.8156738,-0.6350708,0.19696045
1602329975152,860,-0.8178711,-0.630188,0.19525146
1602329975152,861,-0.8156738,-0.6350708,0.19696045
1602329975152,862,-0.8178711,-0.630188,0.19525146
1602329975152,863,-0.8178711,-0.630188,0.19525146
1602329975152,864,-0.81591797,-0.6333618,0.19378662
1602329977672,865,-0.81591797,-0.6333618,0.19378662
1602329977738,866,-0.81591797,-0.6333618,0.19378662
1602329977738,867,-0.8173828,-0.6309204,0.18548584
1602329977738,868,-0.8173828,-0.6309204,0.18548584
1602329977738,869,-0.8154297,-0.63238525,0.19207764
1602329977738,870,-0.8173828,-0.6309204,0.18548584
1602329977738,871,-0.8154297,-0.63238525,0.19207764
1602329977738,872,-0.81518555,-0.6343384,0.19866943
1602329977738,873,-0.8154297,-0.63238525,0.19207764
1602329977738,874,-0.81518555,-0.6343384,0.19866943
1602329977738,875,-0.8154297,-0.63287354,0.19573975
1602329977738,876,-0.81518555,-0.6343384,0.19866943
1602329977738,877,-0.8154297,-0.63287354,0.19573975
1602329977738,878,-0.8154297,-0.63287354,0.19573975
1602329977738,879,-0.81762695,-0.63482666,0.1954956
1602329977738,880,-0.81762695,-0.63482666,0.1954956
1602329977738,881,-0.81518555,-0.6355591,0.19866943
1602329977738,882,-0.81762695,-0.63482666,0.1954956
1602329977738,883,-0.81518555,-0.6355591,0.19866943
1602329977738,884,-0.81518555,-0.6314087,0.19744873
1602329977738,885,-0.81518555,-0.6314087,0.19744873
1602329977738,886,-0.81518555,-0.6355591,0.19866943
1602329977738,887,-0.8161621,-0.63360596,0.199646
1602329977738,888,-0.8161621,-0.63360596,0.199646
1602329977738,889,-0.81518555,-0.6314087,0.19744873
1602329977738,890,-0.81518555,-0.6314087,0.19500732
1602329977738,891,-0.81518555,-0.6314087,0.19500732
1602329977738,892,-0.8161621,-0.63360596,0.199646
1602329977738,893,-0.81518555,-0.6314087,0.19500732
1602329977738,894,-0.8144531,-0.63360596,0.1984253
1602329977738,895,-0.8144531,-0.63360596,0.1984253
1602329977738,896,-0.8161621,-0.63067627,0.1942749
1602329977738,897,-0.8144531,-0.63360596,0.1984253
1602329977739,898,-0.8161621,-0.63067627,0.1942749
1602329977739,899,-0.81518555,-0.6370239,0.19866943
1602329977739,900,-0.81518555,-0.6370239,0.19866943
1602329977739,901,-0.81396484,-0.62994385,0.19989014
1602329977739,902,-0.81396484,-0.62994385,0.19989014
1602329977739,903,-0.8161621,-0.63067627,0.1942749
1602329977739,904,-0.8144531,-0.6333618,0.20404053
1602329977739,905,-0.8144531,-0.6333618,0.20404053
1602329977739,906,-0.81518555,-0.6370239,0.19866943
1602329977739,907,-0.81762695,-0.6314087,0.19622803
1602329977739,908,-0.81762695,-0.6314087,0.19622803
1602329977739,909,-0.81396484,-0.62994385,0.19989014
1602329977739,910,-0.8171387,-0.6345825,0.19110107
1602329977739,911,-0.8171387,-0.6345825,0.19110107
1602329977739,912,-0.8173828,-0.62945557,0.19769287
1602329977739,913,-0.8144531,-0.6333618,0.20404053
1602329977739,914,-0.8173828,-0.62945557,0.19769287
1602329977739,915,-0.8173828,-0.6331177,0.19793701
1602329977739,916,-0.81762695,-0.6314087,0.19622803
1602329977739,917,-0.8171387,-0.6345825,0.19110107
1602329977739,918,-0.81518555,-0.6358032,0.19696045
1602329977739,919,-0.8173828,-0.6331177,0.19793701
1602329977739,920,-0.8161621,-0.63116455,0.19378662
1602329977739,921,-0.81518555,-0.6358032,0.19696045
1602329977739,922,-0.8173828,-0.62945557,0.19769287
1602329977739,923,-0.81762695,-0.6345825,0.19598389
1602329977739,924,-0.8161621,-0.63116455,0.19378662
1602329977739,925,-0.8173828,-0.6331177,0.19793701
1602329977739,926,-0.81518555,-0.6358032,0.19696045
1602329977739,927,-0.8161621,-0.62945557,0.19256592
1602329977739,928,-0.81762695,-0.6345825,0.19598389
1602329977739,929,-0.8161621,-0.63116455,0.19378662
1602329977740,930,-0.8203125,-0.63360596,0.1918335
1602329977740,931,-0.8161621,-0.62945557,0.19256592
1602329977740,932,-0.81762695,-0.6345825,0.19598389
1602329977740,933,-0.81518555,-0.6321411,0.18743896
1602329977740,934,-0.8203125,-0.63360596,0.1918335
1602329977740,935,-0.8161621,-0.62945557,0.19256592
1602329977740,936,-0.8171387,-0.63409424,0.19281006
1602329977740,937,-0.81518555,-0.6321411,0.18743896
1602329977740,938,-0.8203125,-0.63360596,0.1918335
1602329977740,939,-0.8161621,-0.6321411,0.19720459
1602329977740,940,-0.8171387,-0.63409424,0.19281006
1602329977740,941,-0.8154297,-0.63287354,0.19622803
1602329977740,942,-0.81518555,-0.6321411,0.18743896
1602329977740,943,-0.8171387,-0.63409424,0.19281006
1602329977740,944,-0.81518555,-0.63287354,0.1984253
1602329977740,945,-0.8161621,-0.6321411,0.19720459
1602329977740,946,-0.8161621,-0.6321411,0.19720459
1602329977740,947,-0.81811523,-0.6296997,0.19476318
1602329977740,948,-0.8154297,-0.63287354,0.19622803
1602329977740,949,-0.8154297,-0.63287354,0.19622803
1602329977740,950,-0.81518555,-0.63287354,0.1984253
1602329977740,951,-0.81689453,-0.6343384,0.19573975
1602329977740,952,-0.81518555,-0.63287354,0.1984253
1602329977740,953,-0.81811523,-0.6296997,0.19476318
1602329977740,954,-0.81811523,-0.6296997,0.19476318
1602329977740,955,-0.8154297,-0.6304321,0.18914795
1602329977740,956,-0.81689453,-0.6343384,0.19573975
1602329977740,957,-0.81689453,-0.6343384,0.19573975
1602329977740,958,-0.8154297,-0.6304321,0.18914795
1602329977740,959,-0.8154297,-0.6304321,0.18914795
1602329977739,960,-0.81811523,-0.6338501,0.19647217
1602329980319,961,-0.81811523,-0.6338501,0.19647217
1602329980259,962,-0.81811523,-0.6338501,0.19647217
1602329980319,963,-0.8183594,-0.63067627,0.18328857
1602329980319,964,-0.8183594,-0.63067627,0.18328857
1602329980319,965,-0.8183594,-0.63067627,0.18328857
1602329980319,966,-0.8203125,-0.63287354,0.19012451
1602329980319,967,-0.8203125,-0.63287354,0.19012451
1602329980319,968,-0.8203125,-0.63287354,0.19012451
1602329980319,969,-0.81811523,-0.6333618,0.19158936
1602329980319,970,-0.81811523,-0.6333618,0.19158936
1602329980319,971,-0.81811523,-0.6333618,0.19158936
1602329980319,972,-0.8156738,-0.6314087,0.19622803
1602329980319,973,-0.8156738,-0.6314087,0.19622803
1602329980319,974,-0.8156738,-0.6314087,0.19622803
1602329980319,975,-0.81933594,-0.6321411,0.19866943
1602329980319,976,-0.81933594,-0.6321411,0.19866943
1602329980319,977,-0.81933594,-0.6321411,0.19866943
1602329980319,978,-0.81640625,-0.62945557,0.19012451
1602329980319,979,-0.81640625,-0.62945557,0.19012451
1602329980319,980,-0.81640625,-0.62945557,0.19012451
1602329980319,981,-0.81762695,-0.6333618,0.19769287
1602329980319,982,-0.81762695,-0.6333618,0.19769287
1602329980319,983,-0.8166504,-0.63287354,0.19744873
1602329980319,984,-0.81762695,-0.6333618,0.19769287
1602329980319,985,-0.8166504,-0.631897,0.19696045
1602329980319,986,-0.8166504,-0.63287354,0.19744873
1602329980319,987,-0.8166504,-0.63287354,0.19744873
1602329980319,988,-0.8161621,-0.63409424,0.19232178
1602329980319,989,-0.8166504,-0.631897,0.19696045
1602329980319,990,-0.81933594,-0.6333618,0.19476318
1602329980319,991,-0.8166504,-0.631897,0.19696045
1602329980319,992,-0.8161621,-0.63409424,0.19232178
1602329980319,993,-0.8161621,-0.63409424,0.19232178
1602329980319,994,-0.8183594,-0.631897,0.19403076
1602329980319,995,-0.81933594,-0.6333618,0.19476318
1602329980319,996,-0.8183594,-0.63067627,0.19744873
1602329980319,997,-0.81933594,-0.6333618,0.19476318
1602329980319,998,-0.81591797,-0.6289673,0.19793701
1602329980319,999,-0.8183594,-0.631897,0.19403076
1602329980319,1000,-0.8183594,-0.631897,0.19403076
1602329980319,1001,-0.81396484,-0.63409424,0.19915771
1602329980319,1002,-0.8183594,-0.63067627,0.19744873
1602329980319,1003,-0.8183594,-0.63067627,0.19744873
1602329980319,1004,-0.8171387,-0.63067627,0.19793701
1602329980319,1005,-0.81591797,-0.6289673,0.19793701
1602329980319,1006,-0.8154297,-0.6338501,0.19647217
1602329980319,1007,-0.81591797,-0.6289673,0.19793701
1602329980319,1008,-0.81518555,-0.62994385,0.19696045
1602329980319,1009,-0.81396484,-0.63409424,0.19915771
1602329980319,1010,-0.81396484,-0.63409424,0.19915771
1602329980319,1011,-0.8166504,-0.62994385,0.19720459
1602329980319,1012,-0.8171387,-0.63067627,0.19793701
1602329980319,1013,-0.8171387,-0.63067627,0.19793701
1602329980319,1014,-0.81640625,-0.6314087,0.19647217
1602329980319,1015,-0.8154297,-0.6338501,0.19647217
1602329980319,1016,-0.81689453,-0.6296997,0.19793701
1602329980319,1017,-0.8154297,-0.6338501,0.19647217
1602329980319,1018,-0.81518555,-0.62994385,0.19696045
1602329980319,1019,-0.8178711,-0.631897,0.19744873
1602329980319,1020,-0.8166504,-0.62994385,0.19720459
1602329980319,1021,-0.81518555,-0.62994385,0.19696045
1602329980319,1022,-0.8154297,-0.6279907,0.19671631
1602329980319,1023,-0.81884766,-0.631897,0.19671631
1602329980319,1024,-0.81640625,-0.6314087,0.19647217
1602329980319,1025,-0.8166504,-0.62994385,0.19720459
1602329980319,1026,-0.81640625,-0.631897,0.19622803
1602329980319,1027,-0.81689453,-0.6296997,0.19793701
1602329980319,1028,-0.8178711,-0.63482666,0.20184326
1602329980319,1029,-0.81640625,-0.6314087,0.19647217
1602329980319,1030,-0.8178711,-0.631897,0.19744873
1602329980319,1031,-0.81689453,-0.6296997,0.19793701
1602329980319,1032,-0.81884766,-0.62701416,0.19769287
1602329980319,1033,-0.8154297,-0.6279907,0.19671631
1602329980319,1034,-0.8178711,-0.631897,0.19744873
1602329980319,1035,-0.8195801,-0.6314087,0.19329834
1602329980319,1036,-0.8154297,-0.6279907,0.19671631
1602329980319,1037,-0.81884766,-0.631897,0.19671631
1602329980319,1038,-0.82055664,-0.62994385,0.1942749
1602329980319,1039,-0.81884766,-0.631897,0.19671631
1602329980319,1040,-0.81640625,-0.631897,0.19622803
1602329980319,1041,-0.8156738,-0.63360596,0.19573975
1602329980319,1042,-0.8178711,-0.63482666,0.20184326
1602329980319,1043,-0.8166504,-0.62945557,0.19525146
1602329980319,1044,-0.81640625,-0.631897,0.19622803
1602329980319,1045,-0.81884766,-0.62701416,0.19769287
1602329980319,1046,-0.8178711,-0.63482666,0.20184326
1602329980319,1047,-0.8195801,-0.6314087,0.19329834
1602329980319,1048,-0.82055664,-0.62994385,0.1942749
1602329980319,1049,-0.81884766,-0.62701416,0.19769287
1602329980319,1050,-0.8156738,-0.63360596,0.19573975
1602329980319,1051,-0.8195801,-0.6314087,0.19329834
1602329980319,1052,-0.8166504,-0.62945557,0.19525146
1602329980319,1053,-0.82055664,-0.62994385,0.1942749
1602329980319,1054,-0.8156738,-0.63360596,0.19573975
1602329980319,1055,-0.8166504,-0.62945557,0.19525146
1602329982839,1056,-0.8171387,-0.6304321,0.19989014
1602329982903,1057,-0.8171387,-0.6304321,0.19989014
1602329980319,1058,-0.8171387,-0.6304321,0.19989014
1602329982903,1059,-0.81640625,-0.62994385,0.19378662
1602329982903,1060,-0.81640625,-0.62994385,0.19378662
1602329982903,1061,-0.81640625,-0.62994385,0.19378662
1602329982903,1062,-0.81640625,-0.6279907,0.19818115
1602329982903,1063,-0.81640625,-0.6279907,0.19818115
1602329982903,1064,-0.81640625,-0.6279907,0.19818115
1602329982903,1065,-0.81469727,-0.63531494,0.20013428
1602329982903,1066,-0.81469727,-0.63531494,0.20013428
1602329982903,1067,-0.81469727,-0.63531494,0.20013428
1602329982903,1068,-0.8166504,-0.62677,0.19793701
1602329982903,1069,-0.8166504,-0.62677,0.19793701
1602329982903,1070,-0.8166504,-0.62677,0.19793701
1602329982903,1071,-0.8190918,-0.63116455,0.19940186
1602329982903,1072,-0.8190918,-0.63116455,0.19940186
1602329982903,1073,-0.8190918,-0.63116455,0.19940186
1602329982903,1074,-0.8173828,-0.63238525,0.18963623
1602329982903,1075,-0.8173828,-0.63238525,0.18963623
1602329982903,1076,-0.8173828,-0.63238525,0.18963623
1602329982903,1077,-0.81762695,-0.6309204,0.19036865
1602329982903,1078,-0.81762695,-0.6309204,0.19036865
1602329982903,1079,-0.81762695,-0.6309204,0.19036865
1602329982903,1080,-0.8183594,-0.6289673,0.19451904
1602329982903,1081,-0.8183594,-0.6289673,0.19451904
1602329982903,1082,-0.81640625,-0.62750244,0.19696045
1602329982903,1083,-0.8178711,-0.6326294,0.19329834
1602329982903,1084,-0.8183594,-0.6289673,0.19451904
1602329982903,1085,-0.8173828,-0.62994385,0.1954956
1602329982903,1086,-0.81640625,-0.62750244,0.19696045
1602329982903,1087,-0.8178711,-0.63287354,0.19647217
1602329982903,1088,-0.81640625,-0.62750244,0.19696045
1602329982903,1089,-0.8178711,-0.6326294,0.19329834
1602329982904,1090,-0.81884766,-0.628479,0.19940186
1602329982904,1091,-0.8178711,-0.6326294,0.19329834
1602329982904,1092,-0.8173828,-0.62994385,0.1954956
1602329982904,1093,-0.81762695,-0.6321411,0.19647217
1602329982904,1094,-0.8173828,-0.62994385,0.1954956
1602329982904,1095,-0.8178711,-0.63287354,0.19647217
1602329982904,1096,-0.8178711,-0.63287354,0.19647217
1602329982904,1097,-0.8154297,-0.63116455,0.19354248
1602329982904,1098,-0.81884766,-0.628479,0.19940186
1602329982904,1099,-0.8178711,-0.62945557,0.19720459
1602329982904,1100,-0.81884766,-0.628479,0.19940186
1602329982904,1101,-0.81762695,-0.6321411,0.19647217
1602329982904,1102,-0.8178711,-0.62872314,0.19744873
1602329982904,1103,-0.81762695,-0.6321411,0.19647217
1602329982904,1104,-0.8154297,-0.63116455,0.19354248
1602329982904,1105,-0.8154297,-0.63116455,0.19354248
1602329982904,1106,-0.8178711,-0.62945557,0.19720459
1602329982904,1107,-0.81469727,-0.63238525,0.19793701
1602329982904,1108,-0.8178711,-0.62945557,0.19720459
1602329982904,1109,-0.8166504,-0.62945557,0.1942749
1602329982904,1110,-0.8178711,-0.62872314,0.19744873
1602329982904,1111,-0.8161621,-0.63165283,0.20111084
1602329982904,1112,-0.8178711,-0.62872314,0.19744873
1602329982904,1113,-0.8186035,-0.62945557,0.20111084
1602329982904,1114,-0.81469727,-0.63238525,0.19793701
1602329982904,1115,-0.81469727,-0.63238525,0.19793701
1602329982904,1116,-0.8166504,-0.62945557,0.1942749
1602329982904,1117,-0.8149414,-0.63116455,0.20355225
1602329982904,1118,-0.8166504,-0.62945557,0.1942749
1602329982904,1119,-0.8154297,-0.6279907,0.19720459
1602329982904,1120,-0.8161621,-0.63165283,0.20111084
1602329982904,1121,-0.8161621,-0.63165283,0.20111084
1602329982905,1122,-0.8186035,-0.62945557,0.20111084
1602329982905,1123,-0.82055664,-0.628479,0.19671631
1602329982905,1124,-0.8186035,-0.62945557,0.20111084
1602329982905,1125,-0.8149414,-0.63116455,0.20355225
1602329982905,1126,-0.8154297,-0.62872314,0.19476318
1602329982905,1127,-0.8154297,-0.6279907,0.19720459
1602329982905,1128,-0.81689453,-0.62823486,0.20135498
1602329982905,1129,-0.8149414,-0.63116455,0.20355225
1602329982905,1130,-0.8154297,-0.6279907,0.19720459
1602329982905,1131,-0.82055664,-0.628479,0.19671631
1602329982905,1132,-0.8173828,-0.63067627,0.20159912
1602329982905,1133,-0.82055664,-0.628479,0.19671631
1602329982905,1134,-0.8154297,-0.62872314,0.19476318
1602329982905,1135,-0.8186035,-0.62628174,0.19891357
1602329982905,1136,-0.81689453,-0.62823486,0.20135498
1602329982905,1137,-0.8186035,-0.6289673,0.19647217
1602329982905,1138,-0.8154297,-0.62872314,0.19476318
1602329982905,1139,-0.8173828,-0.63067627,0.20159912
1602329982905,1140,-0.81811523,-0.6277466,0.19793701
1602329982905,1141,-0.81689453,-0.62823486,0.20135498
1602329982905,1142,-0.8186035,-0.62628174,0.19891357
1602329982905,1143,-0.8178711,-0.63238525,0.20306396
1602329982905,1144,-0.8173828,-0.63067627,0.20159912
1602329982905,1145,-0.8186035,-0.6289673,0.19647217
1602329982905,1146,-0.81811523,-0.6277466,0.19793701
1602329982905,1147,-0.8186035,-0.62628174,0.19891357
1602329982905,1148,-0.8186035,-0.6289673,0.19647217
1602329982905,1149,-0.8178711,-0.63238525,0.20306396
1602329982905,1150,-0.81811523,-0.6277466,0.19793701
1602329982905,1151,-0.8178711,-0.63238525,0.20306396
1602329982904,1152,-0.81689453,-0.6253052,0.19989014
1602329985489,1153,-0.81689453,-0.6253052,0.19989014
1602329985489,1154,-0.81689453,-0.6253052,0.19989014
1602329985489,1155,-0.81884766,-0.631897,0.19989014
1602329985489,1156,-0.81884766,-0.631897,0.19989014
1602329985489,1157,-0.81884766,-0.631897,0.19989014
1602329985489,1158,-0.81933594,-0.62823486,0.19256592
1602329985489,1159,-0.81933594,-0.62823486,0.19256592
1602329985489,1160,-0.82006836,-0.6248169,0.1954956
1602329985489,1161,-0.81933594,-0.62823486,0.19256592
1602329985489,1162,-0.82006836,-0.6248169,0.1954956
1602329985489,1163,-0.8183594,-0.6289673,0.19818115
1602329985489,1164,-0.82006836,-0.6248169,0.1954956
1602329985489,1165,-0.8161621,-0.6309204,0.1942749
1602329985489,1166,-0.8183594,-0.6289673,0.19818115
1602329985489,1167,-0.81933594,-0.63287354,0.19769287
1602329985489,1168,-0.8183594,-0.6289673,0.19818115
1602329985489,1169,-0.8173828,-0.628479,0.19696045
1602329985489,1170,-0.8161621,-0.6309204,0.1942749
1602329985489,1171,-0.8161621,-0.6309204,0.1942749
1602329985489,1172,-0.81933594,-0.6304321,0.19744873
1602329985489,1173,-0.81933594,-0.63287354,0.19769287
1602329985489,1174,-0.81933594,-0.63287354,0.19769287
1602329985489,1175,-0.81640625,-0.62945557,0.19769287
1602329985489,1176,-0.8173828,-0.628479,0.19696045
1602329985489,1177,-0.8173828,-0.628479,0.19696045
1602329985489,1178,-0.8173828,-0.6321411,0.19525146
1602329985489,1179,-0.81933594,-0.6304321,0.19744873
1602329985489,1180,-0.81933594,-0.6304321,0.19744873
1602329985489,1181,-0.8183594,-0.6326294,0.1942749
1602329985489,1182,-0.81640625,-0.62945557,0.19769287
1602329985489,1183,-0.81640625,-0.62945557,0.19769287
1602329985489,1184,-0.8173828,-0.6321411,0.19525146
1602329985489,1185,-0.8173828,-0.6321411,0.19525146
1602329985489,1186,-0.82128906,-0.62872314,0.19158936
1602329985489,1187,-0.8183594,-0.6326294,0.1942749
1602329985489,1188,-0.82128906,-0.62872314,0.19158936
1602329985489,1189,-0.8183594,-0.6326294,0.1942749
1602329985489,1190,-0.8178711,-0.62579346,0.19134521
1602329985489,1191,-0.82128906,-0.62872314,0.19158936
1602329985489,1192,-0.8186035,-0.628479,0.19500732
1602329985489,1193,-0.8178711,-0.62579346,0.19134521
1602329985489,1194,-0.82055664,-0.62701416,0.19110107
1602329985489,1195,-0.8186035,-0.628479,0.19500732
1602329985489,1196,-0.8178711,-0.62579346,0.19134521
1602329985489,1197,-0.82055664,-0.62701416,0.19110107
1602329985489,1198,-0.8186035,-0.628479,0.19500732
1602329985489,1199,-0.81933594,-0.62750244,0.19012451
1602329985489,1200,-0.8203125,-0.6255493,0.1918335
1602329985489,1201,-0.82055664,-0.62701416,0.19110107
1602329985489,1202,-0.81933594,-0.62750244,0.19012451
1602329985489,1203,-0.8195801,-0.62994385,0.199646
1602329985489,1204,-0.8203125,-0.6255493,0.1918335
1602329985489,1205,-0.81933594,-0.62750244,0.19012451
1602329985489,1206,-0.8195801,-0.62994385,0.199646
1602329985489,1207,-0.81884766,-0.6248169,0.19158936
1602329985489,1208,-0.81884766,-0.6248169,0.19158936
1602329985489,1209,-0.82128906,-0.6277466,0.19525146
1602329985489,1210,-0.8203125,-0.6255493,0.1918335
1602329985489,1211,-0.8208008,-0.62677,0.19232178
1602329985489,1212,-0.82128906,-0.6277466,0.19525146
1602329985489,1213,-0.8195801,-0.62994385,0.199646
1602329985489,1214,-0.8186035,-0.6272583,0.19573975
1602329985489,1215,-0.81884766,-0.6248169,0.19158936
1602329985489,1216,-0.8208008,-0.62677,0.19232178
1602329985489,1217,-0.8171387,-0.62872314,0.199646
1602329985489,1218,-0.8186035,-0.6272583,0.19573975
1602329985489,1219,-0.82128906,-0.6277466,0.19525146
1602329985489,1220,-0.82128906,-0.62872314,0.19476318
1602329985489,1221,-0.8171387,-0.62872314,0.199646
1602329985489,1222,-0.8208008,-0.62677,0.19232178
1602329985489,1223,-0.82128906,-0.62872314,0.19476318
1602329985489,1224,-0.8171387,-0.6279907,0.19622803
1602329985489,1225,-0.8186035,-0.6272583,0.19573975
1602329985489,1226,-0.81933594,-0.6289673,0.19573975
1602329985489,1227,-0.8171387,-0.6279907,0.19622803
1602329985489,1228,-0.8171387,-0.62872314,0.199646
1602329985489,1229,-0.8195801,-0.6309204,0.19818115
1602329985489,1230,-0.81933594,-0.6289673,0.19573975
1602329985489,1231,-0.82128906,-0.62872314,0.19476318
1602329985489,1232,-0.81884766,-0.6279907,0.20111084
1602329985489,1233,-0.8195801,-0.6309204,0.19818115
1602329985489,1234,-0.81811523,-0.6292114,0.20184326
1602329985489,1235,-0.8171387,-0.6279907,0.19622803
1602329985489,1236,-0.81884766,-0.6279907,0.20111084
1602329985489,1237,-0.8166504,-0.6265259,0.19915771
1602329985489,1238,-0.81933594,-0.6289673,0.19573975
1602329985489,1239,-0.81811523,-0.6292114,0.20184326
1602329985489,1240,-0.8195801,-0.6309204,0.19818115
1602329985489,1241,-0.8166504,-0.6265259,0.19915771
1602329985489,1242,-0.81689453,-0.6296997,0.20159912
1602329985489,1243,-0.81884766,-0.6279907,0.20111084
1602329985489,1244,-0.81689453,-0.6296997,0.20159912
1602329985489,1245,-0.81811523,-0.6292114,0.20184326
1602329985489,1246,-0.8166504,-0.6265259,0.19915771
1602329985489,1247,-0.81689453,-0.6296997,0.20159912
