# Sensor position: Wrist
# Sensor side: Left
# Activity type: Sitting bent backward
# Activity code: 5
# Subject id: s1642301
timestamp,seq,accel_x,accel_y,accel_z
1602330295529,0,0.21728516,-0.94000244,0.16204834
1602330298112,1,0.21728516,-0.94000244,0.16204834
1602330298049,2,0.21728516,-0.94000244,0.16204834
1602330298112,3,0.17236328,-0.88726807,0.16497803
1602330298112,4,0.17236328,-0.88726807,0.16497803
1602330298112,5,0.17236328,-0.88726807,0.16497803
1602330298112,6,0.1430664,-0.9985962,-0.13165283
1602330298112,7,0.1430664,-0.9985962,-0.13165283
1602330298112,8,0.1430664,-0.9985962,-0.13165283
1602330298112,9,0.20776367,-1.0847778,-0.41656494
1602330298112,10,0.20776367,-1.0847778,-0.41656494
1602330298112,11,0.20776367,-1.0847778,-0.41656494
1602330298112,12,0.14477539,-1.017395,-0.3665161
1602330298112,13,0.14477539,-1.017395,-0.3665161
1602330298112,14,0.14477539,-1.017395,-0.3665161
1602330298112,15,0.12524414,-0.98760986,-0.19683838
1602330298112,16,0.12524414,-0.98760986,-0.19683838
1602330298113,17,0.12524414,-0.98760986,-0.19683838
1602330298113,18,0.08959961,-0.98638916,-0.12677002
1602330298113,19,0.08959961,-0.98638916,-0.12677002
1602330298113,20,0.083984375,-1.0081177,-0.12530518
1602330298113,21,0.09765625,-1.0274048,-0.1272583
1602330298113,22,0.08959961,-0.98638916,-0.12677002
1602330298113,23,0.083984375,-1.0081177,-0.12530518
1602330298113,24,0.11669922,-0.99542236,-0.08477783
1602330298113,25,0.09765625,-1.0274048,-0.1272583
1602330298113,26,0.083984375,-1.0081177,-0.12530518
1602330298113,27,0.11669922,-0.99542236,-0.08477783
1602330298113,28,0.12841797,-1.0049438,-0.08087158
1602330298113,29,0.09765625,-1.0274048,-0.1272583
1602330298113,30,0.15209961,-1.0044556,-0.074279785
1602330298113,31,0.11669922,-0.99542236,-0.08477783
1602330298114,32,0.12841797,-1.0049438,-0.08087158
1602330298113,33,0.15307617,-0.99468994,-0.061340332
1602330298113,34,0.12841797,-1.0049438,-0.08087158
1602330298114,35,0.15209961,-1.0044556,-0.074279785
1602330298114,36,0.16015625,-0.99884033,-0.051330566
1602330298114,37,0.15307617,-0.99468994,-0.061340332
1602330298114,38,0.15209961,-1.0044556,-0.074279785
1602330298114,39,0.16210938,-0.99346924,-0.039123535
1602330298114,40,0.16015625,-0.99884033,-0.051330566
1602330298114,41,0.15307617,-0.99468994,-0.061340332
1602330298114,42,0.1586914,-0.98272705,-0.018859863
1602330298114,43,0.16015625,-0.99884033,-0.051330566
1602330298114,44,0.16503906,-1.0005493,-0.03643799
1602330298114,45,0.16210938,-0.99346924,-0.039123535
1602330298114,46,0.16210938,-0.986145,-0.026672363
1602330298114,47,0.16210938,-0.99346924,-0.039123535
1602330298114,48,0.15698242,-1.00177,-0.058166504
1602330298114,49,0.1586914,-0.98272705,-0.018859863
1602330298115,50,0.1586914,-0.98272705,-0.018859863
1602330298115,51,0.14672852,-1.0137329,-0.0713501
1602330298115,52,0.16503906,-1.0005493,-0.03643799
1602330298115,53,0.14501953,-1.006897,-0.06793213
1602330298115,54,0.16210938,-0.986145,-0.026672363
1602330298115,55,0.16503906,-1.0005493,-0.03643799
1602330298115,56,0.15698242,-1.00177,-0.058166504
1602330298115,57,0.16210938,-0.986145,-0.026672363
1602330298115,58,0.14428711,-1.0025024,-0.06036377
1602330298115,59,0.14672852,-1.0137329,-0.0713501
1602330298115,60,0.15698242,-1.00177,-0.058166504
1602330298115,61,0.14672852,-1.0137329,-0.0713501
1602330298115,62,0.14501953,-1.006897,-0.06793213
1602330298115,63,0.14013672,-1.0059204,-0.066711426
1602330298115,64,0.14501953,-1.006897,-0.06793213
1602330298115,65,0.14428711,-1.0025024,-0.06036377
1602330298116,66,0.14428711,-0.99591064,-0.058410645
1602330298116,67,0.14428711,-1.0025024,-0.06036377
1602330298116,68,0.14013672,-1.0059204,-0.066711426
1602330298116,69,0.14428711,-0.99591064,-0.058410645
1602330298116,70,0.14941406,-1.0078735,-0.069885254
1602330298116,71,0.14013672,-1.0059204,-0.066711426
1602330298116,72,0.14941406,-1.0078735,-0.069885254
1602330298116,73,0.15039062,-1.0003052,-0.062072754
1602330298116,74,0.15039062,-1.0003052,-0.062072754
1602330298116,75,0.14428711,-0.99591064,-0.058410645
1602330298116,76,0.14697266,-1.0064087,-0.06744385
1602330298116,77,0.14697266,-1.0064087,-0.06744385
1602330298116,78,0.14892578,-0.9973755,-0.06304932
1602330298116,79,0.14892578,-0.9973755,-0.06304932
1602330298116,80,0.15161133,-1.00177,-0.061584473
1602330298116,81,0.14941406,-1.0078735,-0.069885254
1602330298117,82,0.15161133,-1.00177,-0.061584473
1602330298117,83,0.15039062,-1.0003052,-0.062072754
1602330298117,84,0.14746094,-1.0032349,-0.0647583
1602330298117,85,0.14746094,-1.0032349,-0.0647583
1602330298117,86,0.14697266,-1.0049438,-0.062561035
1602330298117,87,0.14697266,-1.0064087,-0.06744385
1602330298117,88,0.14697266,-1.0049438,-0.062561035
1602330298117,89,0.14282227,-1.0042114,-0.06085205
1602330298117,90,0.14892578,-0.9973755,-0.06304932
1602330298117,91,0.14282227,-1.0042114,-0.06085205
1602330298117,92,0.15161133,-1.00177,-0.061584473
1602330298117,93,0.14746094,-1.0032349,-0.0647583
1602330298117,94,0.14697266,-1.0049438,-0.062561035
1602330298117,95,0.14282227,-1.0042114,-0.06085205
1602330298114,96,0.14355469,-1.0010376,-0.066711426
1602330300892,97,0.14257812,-1.0046997,-0.058166504
1602330300892,98,0.14355469,-1.0010376,-0.066711426
1602330300892,99,0.14355469,-1.0010376,-0.066711426
1602330300892,100,0.14257812,-1.0046997,-0.058166504
1602330300892,101,0.14331055,-1.0015259,-0.062072754
1602330300892,102,0.14331055,-1.0015259,-0.062072754
1602330300892,103,0.14257812,-1.0046997,-0.058166504
1602330300892,104,0.1459961,-1.0059204,-0.06085205
1602330300892,105,0.1459961,-1.0059204,-0.06085205
1602330300892,106,0.1496582,-1.0003052,-0.06304932
1602330300892,107,0.14331055,-1.0015259,-0.062072754
1602330300892,108,0.14770508,-1.0046997,-0.061584473
1602330300892,109,0.1496582,-1.0003052,-0.06304932
1602330300892,110,0.1459961,-1.0059204,-0.06085205
1602330300892,111,0.1430664,-1.0005493,-0.058654785
1602330300892,112,0.1496582,-1.0003052,-0.06304932
1602330300892,113,0.14770508,-1.0046997,-0.061584473
1602330300892,114,0.14770508,-1.0046997,-0.061584473
1602330300892,115,0.1430664,-1.0005493,-0.058654785
1602330300892,116,0.1430664,-1.0005493,-0.058654785
1602330300892,117,0.14501953,-1.0032349,-0.06500244
1602330300892,118,0.14501953,-1.0032349,-0.06500244
1602330300892,119,0.14453125,-1.0025024,-0.062561035
1602330300892,120,0.14501953,-1.0032349,-0.06500244
1602330300892,121,0.14501953,-1.0020142,-0.06329346
1602330300892,122,0.14575195,-1.00177,-0.061828613
1602330300892,123,0.14453125,-1.0025024,-0.062561035
1602330300892,124,0.14355469,-1.0010376,-0.06085205
1602330300892,125,0.14501953,-1.0020142,-0.06329346
1602330300892,126,0.14575195,-1.00177,-0.061828613
1602330300892,127,0.14453125,-1.0025024,-0.062561035
1602330300892,128,0.14355469,-1.0010376,-0.06085205
1602330300892,129,0.14453125,-1.0042114,-0.06500244
1602330300892,130,0.14501953,-1.0020142,-0.06329346
1602330300892,131,0.14575195,-1.00177,-0.061828613
1602330300892,132,0.14453125,-1.0042114,-0.06500244
1602330300892,133,0.14355469,-1.0010376,-0.06085205
1602330300892,134,0.14550781,-1.0059204,-0.06329346
1602330300892,135,0.14550781,-1.0059204,-0.06329346
1602330300892,136,0.14453125,-1.0042114,-0.06500244
1602330300892,137,0.1430664,-1.0046997,-0.058898926
1602330300892,138,0.1430664,-1.0046997,-0.058898926
1602330300892,139,0.1459961,-1.0020142,-0.0635376
1602330300892,140,0.14550781,-1.0059204,-0.06329346
1602330300892,141,0.1459961,-1.0020142,-0.0635376
1602330300892,142,0.1430664,-1.0046997,-0.058898926
1602330300892,143,0.1430664,-1.0010376,-0.06109619
1602330300892,144,0.1430664,-1.0010376,-0.06109619
1602330300892,145,0.1459961,-1.0020142,-0.0635376
1602330300892,146,0.14355469,-1.0005493,-0.059143066
1602330300892,147,0.14355469,-1.0005493,-0.059143066
1602330300892,148,0.1430664,-1.0010376,-0.06109619
1602330300892,149,0.14404297,-0.9993286,-0.061340332
1602330300892,150,0.14404297,-0.9993286,-0.061340332
1602330300892,151,0.14355469,-1.0005493,-0.059143066
1602330300892,152,0.15039062,-1.0037231,-0.062561035
1602330300892,153,0.15039062,-1.0037231,-0.062561035
1602330300892,154,0.14526367,-1.0027466,-0.06304932
1602330300892,155,0.14404297,-0.9993286,-0.061340332
1602330300892,156,0.14526367,-1.0027466,-0.06304932
1602330300892,157,0.1472168,-1.0010376,-0.06524658
1602330300892,158,0.15039062,-1.0037231,-0.062561035
1602330300892,159,0.1472168,-1.0010376,-0.06524658
1602330300892,160,0.14526367,-1.0027466,-0.06304932
1602330300892,161,0.14648438,-1.0003052,-0.058166504
1602330300892,162,0.1472168,-1.0010376,-0.06524658
1602330300892,163,0.14501953,-1.0027466,-0.062561035
1602330300892,164,0.14648438,-1.0003052,-0.058166504
1602330300892,165,0.14648438,-1.0003052,-0.058166504
1602330300892,166,0.14501953,-1.0027466,-0.062561035
1602330300892,167,0.15283203,-1.003479,-0.062805176
1602330300892,168,0.14501953,-1.0027466,-0.062561035
1602330300892,169,0.15283203,-1.003479,-0.062805176
1602330300892,170,0.15283203,-1.003479,-0.062805176
1602330300892,171,0.15185547,-1.0029907,-0.057922363
1602330300892,172,0.15185547,-1.0029907,-0.057922363
1602330300892,173,0.15185547,-1.0029907,-0.057922363
1602330300892,174,0.15136719,-0.9963989,-0.057922363
1602330300892,175,0.15136719,-0.9963989,-0.057922363
1602330300892,176,0.15136719,-0.9963989,-0.057922363
1602330300892,177,0.14990234,-1.0003052,-0.058410645
1602330300892,178,0.15234375,-0.9990845,-0.058654785
1602330300892,179,0.14990234,-1.0003052,-0.058410645
1602330300892,180,0.14990234,-1.0003052,-0.058410645
1602330300892,181,0.15161133,-1.0010376,-0.058410645
1602330300892,182,0.15234375,-0.9990845,-0.058654785
1602330300892,183,0.14892578,-1.0005493,-0.062561035
1602330300892,184,0.15234375,-0.9990845,-0.058654785
1602330300892,185,0.14672852,-1.006897,-0.059387207
1602330300892,186,0.15161133,-1.0010376,-0.058410645
1602330300892,187,0.14892578,-1.0005493,-0.062561035
1602330300892,188,0.15161133,-1.0010376,-0.058410645
1602330300892,189,0.14672852,-1.006897,-0.059387207
1602330300892,190,0.14892578,-1.0005493,-0.062561035
1602330300892,191,0.14672852,-1.006897,-0.059387207
1602330303412,192,0.14941406,-1.0015259,-0.06085205
1602330300892,193,0.14941406,-1.0015259,-0.06085205
1602330303280,194,0.14941406,-1.0015259,-0.06085205
1602330303280,195,0.15063477,-1.0012817,-0.05987549
1602330303280,196,0.15063477,-1.0012817,-0.05987549
1602330303280,197,0.14916992,-0.9985962,-0.061340332
1602330303280,198,0.15063477,-1.0012817,-0.05987549
1602330303280,199,0.14916992,-0.9985962,-0.061340332
1602330303280,200,0.14648438,-1.0027466,-0.06500244
1602330303280,201,0.14916992,-0.9985962,-0.061340332
1602330303280,202,0.14379883,-1.0059204,-0.06036377
1602330303280,203,0.14648438,-1.0027466,-0.06500244
1602330303280,204,0.14648438,-1.0027466,-0.06500244
1602330303280,205,0.1459961,-1.0022583,-0.06402588
1602330303280,206,0.14379883,-1.0059204,-0.06036377
1602330303280,207,0.14379883,-1.0059204,-0.06036377
1602330303280,208,0.14404297,-1.0003052,-0.06500244
1602330303280,209,0.1459961,-1.0022583,-0.06402588
1602330303280,210,0.1459961,-1.0022583,-0.06402588
1602330303280,211,0.14404297,-1.0003052,-0.06500244
1602330303280,212,0.14526367,-1.00177,-0.06402588
1602330303280,213,0.14526367,-1.00177,-0.06402588
1602330303280,214,0.14404297,-1.0003052,-0.06500244
1602330303280,215,0.1484375,-1.0022583,-0.06036377
1602330303280,216,0.1484375,-1.0022583,-0.06036377
1602330303280,217,0.14379883,-1.0039673,-0.05987549
1602330303280,218,0.14526367,-1.00177,-0.06402588
1602330303280,219,0.1418457,-1.0005493,-0.06524658
1602330303280,220,0.1484375,-1.0022583,-0.06036377
1602330303280,221,0.14282227,-1.0025024,-0.062805176
1602330303280,222,0.14379883,-1.0039673,-0.05987549
1602330303280,223,0.14379883,-1.0039673,-0.05987549
1602330303280,224,0.1430664,-1.0032349,-0.061828613
1602330303280,225,0.14379883,-1.005188,-0.06719971
1602330303280,226,0.1418457,-1.0005493,-0.06524658
1602330303280,227,0.1418457,-1.0005493,-0.06524658
1602330303280,228,0.14282227,-1.0025024,-0.062805176
1602330303280,229,0.14526367,-1.00177,-0.062072754
1602330303280,230,0.1430664,-1.0032349,-0.061828613
1602330303280,231,0.14233398,-1.0025024,-0.061340332
1602330303280,232,0.14282227,-1.0025024,-0.062805176
1602330303280,233,0.14404297,-1.0032349,-0.066223145
1602330303280,234,0.1430664,-1.0032349,-0.061828613
1602330303280,235,0.14379883,-1.005188,-0.06719971
1602330303280,236,0.1430664,-1.0007935,-0.061584473
1602330303280,237,0.14379883,-1.005188,-0.06719971
1602330303280,238,0.14233398,-1.0020142,-0.06060791
1602330303280,239,0.14526367,-1.00177,-0.062072754
1602330303280,240,0.14526367,-1.00177,-0.062072754
1602330303280,241,0.14233398,-1.0025024,-0.061340332
1602330303280,242,0.14111328,-1.0015259,-0.06402588
1602330303280,243,0.14233398,-1.0025024,-0.061340332
1602330303280,244,0.14404297,-1.0032349,-0.066223145
1602330303280,245,0.14453125,-1.0042114,-0.062805176
1602330303280,246,0.14404297,-1.0032349,-0.066223145
1602330303280,247,0.1430664,-1.0007935,-0.061584473
1602330303280,248,0.14282227,-1.00177,-0.06402588
1602330303280,249,0.14233398,-1.0020142,-0.06060791
1602330303280,250,0.1459961,-1.0015259,-0.062561035
1602330303280,251,0.1430664,-1.0007935,-0.061584473
1602330303280,252,0.14111328,-1.0015259,-0.06402588
1602330303280,253,0.14233398,-1.0020142,-0.06060791
1602330303280,254,0.14453125,-1.0042114,-0.062805176
1602330303280,255,0.14282227,-1.0071411,-0.06378174
1602330303280,256,0.14111328,-1.0015259,-0.06402588
1602330303280,257,0.14282227,-1.00177,-0.06402588
1602330303280,258,0.14550781,-1.0005493,-0.06451416
1602330303280,259,0.14453125,-1.0042114,-0.062805176
1602330303280,260,0.1459961,-1.0015259,-0.062561035
1602330303280,261,0.14331055,-1.0037231,-0.059387207
1602330303280,262,0.14282227,-1.0071411,-0.06378174
1602330303280,263,0.14282227,-1.00177,-0.06402588
1602330303280,264,0.14355469,-1.0003052,-0.062805176
1602330303280,265,0.1472168,-1.0022583,-0.06085205
1602330303280,266,0.1459961,-1.0015259,-0.062561035
1602330303280,267,0.14550781,-1.0005493,-0.06451416
1602330303280,268,0.14550781,-1.0029907,-0.062561035
1602330303280,269,0.14331055,-1.0037231,-0.059387207
1602330303280,270,0.14282227,-1.0071411,-0.06378174
1602330303280,271,0.14355469,-1.0015259,-0.061828613
1602330303280,272,0.14355469,-1.0003052,-0.062805176
1602330303280,273,0.14550781,-1.0005493,-0.06451416
1602330303280,274,0.1472168,-1.0022583,-0.06085205
1602330303280,275,0.14794922,-1.00177,-0.062072754
1602330303280,276,0.14331055,-1.0037231,-0.059387207
1602330303280,277,0.14550781,-1.0029907,-0.062561035
1602330303280,278,0.1472168,-1.0005493,-0.06109619
1602330303280,279,0.14355469,-1.0015259,-0.061828613
1602330303280,280,0.14794922,-1.00177,-0.062072754
1602330303280,281,0.14355469,-1.0003052,-0.062805176
1602330303280,282,0.1472168,-1.0022583,-0.06085205
1602330303280,283,0.1472168,-1.0005493,-0.06109619
1602330303280,284,0.14550781,-1.0029907,-0.062561035
1602330303280,285,0.14355469,-1.0015259,-0.061828613
1602330303280,286,0.14794922,-1.00177,-0.062072754
1602330303280,287,0.1472168,-1.0005493,-0.06109619
1602330305800,288,0.14697266,-1.0010376,-0.062316895
1602330305863,289,0.14697266,-1.0010376,-0.062316895
1602330303280,290,0.14697266,-1.0010376,-0.062316895
1602330305863,291,0.14794922,-1.0039673,-0.062561035
1602330305863,292,0.14794922,-1.0039673,-0.062561035
1602330305863,293,0.14794922,-1.0039673,-0.062561035
1602330305863,294,0.14990234,-1.0012817,-0.06085205
1602330305863,295,0.14990234,-1.0012817,-0.06085205
1602330305863,296,0.14990234,-1.0012817,-0.06085205
1602330305863,297,0.14941406,-1.0032349,-0.06060791
1602330305863,298,0.14941406,-1.0032349,-0.06060791
1602330305863,299,0.14941406,-1.0032349,-0.06060791
1602330305863,300,0.14990234,-1.0010376,-0.06011963
1602330305863,301,0.14990234,-1.0010376,-0.06011963
1602330305863,302,0.14868164,-1.0010376,-0.062316895
1602330305863,303,0.14990234,-1.0010376,-0.06011963
1602330305863,304,0.14868164,-1.0010376,-0.062316895
1602330305863,305,0.14355469,-1.000061,-0.06329346
1602330305863,306,0.14868164,-1.0010376,-0.062316895
1602330305863,307,0.14697266,-1.0027466,-0.062561035
1602330305863,308,0.14355469,-1.000061,-0.06329346
1602330305863,309,0.14355469,-1.000061,-0.06329346
1602330305863,310,0.14794922,-1.00177,-0.062805176
1602330305863,311,0.14624023,-0.99884033,-0.062072754
1602330305863,312,0.14697266,-1.0027466,-0.062561035
1602330305863,313,0.14697266,-1.0027466,-0.062561035
1602330305863,314,0.14794922,-1.00177,-0.062805176
1602330305863,315,0.14526367,-1.0025024,-0.061340332
1602330305863,316,0.14794922,-1.00177,-0.062805176
1602330305863,317,0.14428711,-1.0046997,-0.066223145
1602330305863,318,0.14624023,-0.99884033,-0.062072754
1602330305863,319,0.14379883,-1.0003052,-0.059387207
1602330305863,320,0.14624023,-0.99884033,-0.062072754
1602330305863,321,0.14526367,-1.0025024,-0.061340332
1602330305864,322,0.14526367,-1.0025024,-0.061340332
1602330305864,323,0.140625,-1.0032349,-0.061340332
1602330305864,324,0.14428711,-1.0046997,-0.066223145
1602330305864,325,0.14428711,-1.0046997,-0.066223145
1602330305864,326,0.14282227,-1.0005493,-0.062805176
1602330305864,327,0.14379883,-1.0003052,-0.059387207
1602330305864,328,0.14379883,-1.0003052,-0.059387207
1602330305864,329,0.14379883,-1.0022583,-0.06304932
1602330305864,330,0.140625,-1.0032349,-0.061340332
1602330305864,331,0.140625,-1.0032349,-0.061340332
1602330305864,332,0.14282227,-1.0005493,-0.062805176
1602330305864,333,0.14257812,-1.0044556,-0.06329346
1602330305864,334,0.14379883,-1.0022583,-0.06304932
1602330305864,335,0.14282227,-1.0005493,-0.062805176
1602330305864,336,0.1430664,-1.0029907,-0.062561035
1602330305864,337,0.14257812,-1.0044556,-0.06329346
1602330305864,338,0.14208984,-1.0039673,-0.06036377
1602330305864,339,0.14379883,-1.0022583,-0.06304932
1602330305864,340,0.14331055,-1.0005493,-0.06549072
1602330305864,341,0.14257812,-1.0044556,-0.06329346
1602330305864,342,0.1430664,-1.0029907,-0.062561035
1602330305864,343,0.1418457,-1.003479,-0.06378174
1602330305864,344,0.1430664,-1.0029907,-0.062561035
1602330305864,345,0.14208984,-1.0039673,-0.06036377
1602330305864,346,0.14331055,-1.0005493,-0.06549072
1602330305864,347,0.13989258,-1.0032349,-0.065979004
1602330305864,348,0.1418457,-1.003479,-0.06378174
1602330305864,349,0.14208984,-1.0039673,-0.06036377
1602330305864,350,0.14013672,-1.0022583,-0.066467285
1602330305864,351,0.13989258,-1.0032349,-0.065979004
1602330305864,352,0.1430664,-1.0042114,-0.06060791
1602330305865,353,0.14013672,-1.0022583,-0.066467285
1602330305865,354,0.14331055,-1.0005493,-0.06549072
1602330305865,355,0.14282227,-1.0029907,-0.061828613
1602330305865,356,0.1418457,-1.003479,-0.06378174
1602330305865,357,0.1430664,-1.0003052,-0.06549072
1602330305865,358,0.1430664,-1.0042114,-0.06060791
1602330305865,359,0.13989258,-1.0032349,-0.065979004
1602330305865,360,0.1430664,-1.0025024,-0.06451416
1602330305865,361,0.14282227,-1.0029907,-0.061828613
1602330305865,362,0.1430664,-1.0003052,-0.06549072
1602330305865,363,0.14013672,-1.0022583,-0.066467285
1602330305865,364,0.14038086,-1.0012817,-0.06549072
1602330305865,365,0.1430664,-1.0025024,-0.06451416
1602330305865,366,0.14038086,-1.0012817,-0.06549072
1602330305865,367,0.1430664,-1.0042114,-0.06060791
1602330305865,368,0.14282227,-1.003479,-0.061340332
1602330305865,369,0.14282227,-1.003479,-0.061340332
1602330305865,370,0.14282227,-1.0029907,-0.061828613
1602330305865,371,0.14233398,-1.0039673,-0.0635376
1602330305865,372,0.14233398,-1.0039673,-0.0635376
1602330305865,373,0.14331055,-1.0066528,-0.06500244
1602330305865,374,0.1430664,-1.0003052,-0.06549072
1602330305865,375,0.14624023,-1.0025024,-0.06549072
1602330305865,376,0.14331055,-1.0066528,-0.06500244
1602330305865,377,0.1430664,-1.0025024,-0.06451416
1602330305865,378,0.14624023,-1.0025024,-0.06549072
1602330305865,379,0.14038086,-1.0012817,-0.06549072
1602330305865,380,0.14282227,-1.003479,-0.061340332
1602330305865,381,0.14233398,-1.0039673,-0.0635376
1602330305865,382,0.14331055,-1.0066528,-0.06500244
1602330305865,383,0.14624023,-1.0025024,-0.06549072
1602330305864,384,0.14038086,-1.003479,-0.06524658
1602330308384,385,0.14038086,-1.003479,-0.06524658
1602330308249,386,0.14038086,-1.003479,-0.06524658
1602330308249,387,0.14282227,-1.0005493,-0.061828613
1602330308249,388,0.14282227,-1.0005493,-0.061828613
1602330308249,389,0.14331055,-1.0049438,-0.062805176
1602330308249,390,0.14282227,-1.0005493,-0.061828613
1602330308249,391,0.14575195,-1.000061,-0.06500244
1602330308249,392,0.14331055,-1.0049438,-0.062805176
1602330308249,393,0.14575195,-1.000061,-0.06500244
1602330308249,394,0.14331055,-1.0049438,-0.062805176
1602330308249,395,0.14770508,-1.0015259,-0.06500244
1602330308249,396,0.14770508,-1.0015259,-0.06500244
1602330308249,397,0.14575195,-1.000061,-0.06500244
1602330308249,398,0.14550781,-1.0044556,-0.0635376
1602330308249,399,0.14550781,-1.0044556,-0.0635376
1602330308249,400,0.14697266,-1.0037231,-0.062072754
1602330308249,401,0.14697266,-1.0037231,-0.062072754
1602330308249,402,0.14770508,-1.0015259,-0.06500244
1602330308249,403,0.14697266,-0.9985962,-0.06427002
1602330308249,404,0.14550781,-1.0044556,-0.0635376
1602330308249,405,0.14697266,-0.9985962,-0.06427002
1602330308249,406,0.1484375,-1.0015259,-0.062561035
1602330308249,407,0.14697266,-1.0037231,-0.062072754
1602330308249,408,0.1484375,-1.0015259,-0.062561035
1602330308249,409,0.14477539,-1.000061,-0.065979004
1602330308249,410,0.14697266,-0.9985962,-0.06427002
1602330308249,411,0.1459961,-1.0046997,-0.06402588
1602330308249,412,0.1484375,-1.0015259,-0.062561035
1602330308249,413,0.14477539,-1.000061,-0.065979004
1602330308249,414,0.14404297,-1.000061,-0.0635376
1602330308249,415,0.1459961,-1.0046997,-0.06402588
1602330308249,416,0.14477539,-1.000061,-0.065979004
1602330308249,417,0.14404297,-1.000061,-0.0635376
1602330308249,418,0.14477539,-1.0039673,-0.06109619
1602330308249,419,0.1459961,-1.0046997,-0.06402588
1602330308249,420,0.14477539,-1.0039673,-0.06109619
1602330308249,421,0.14550781,-1.0025024,-0.06427002
1602330308249,422,0.14404297,-1.000061,-0.0635376
1602330308249,423,0.14550781,-1.0025024,-0.06427002
1602330308249,424,0.14477539,-1.0039673,-0.06109619
1602330308249,425,0.14624023,-1.0032349,-0.06402588
1602330308249,426,0.14624023,-1.0032349,-0.06402588
1602330308249,427,0.14331055,-1.0032349,-0.062316895
1602330308249,428,0.14550781,-1.0025024,-0.06427002
1602330308249,429,0.14624023,-1.0032349,-0.06402588
1602330308249,430,0.14331055,-1.0032349,-0.062316895
1602330308249,431,0.14697266,-1.00177,-0.06378174
1602330308249,432,0.14697266,-1.00177,-0.06378174
1602330308249,433,0.14331055,-1.0032349,-0.062316895
1602330308249,434,0.14526367,-1.003479,-0.06549072
1602330308249,435,0.14526367,-1.003479,-0.06549072
1602330308249,436,0.14477539,-1.0005493,-0.06060791
1602330308249,437,0.14697266,-1.00177,-0.06378174
1602330308249,438,0.14477539,-1.0005493,-0.06060791
1602330308249,439,0.14526367,-1.003479,-0.06549072
1602330308249,440,0.14355469,-0.9993286,-0.06109619
1602330308249,441,0.14355469,-0.9993286,-0.06109619
1602330308249,442,0.14355469,-1.0042114,-0.062316895
1602330308249,443,0.14477539,-1.0005493,-0.06060791
1602330308249,444,0.14355469,-1.0042114,-0.062316895
1602330308249,445,0.14428711,-1.0020142,-0.06085205
1602330308249,446,0.14428711,-1.0020142,-0.06085205
1602330308249,447,0.1430664,-1.0025024,-0.061340332
1602330308249,448,0.1430664,-1.0025024,-0.061340332
1602330308249,449,0.14355469,-0.9993286,-0.06109619
1602330308249,450,0.14038086,-1.0027466,-0.062072754
1602330308249,451,0.14038086,-1.0027466,-0.062072754
1602330308249,452,0.14355469,-1.0042114,-0.062316895
1602330308249,453,0.14160156,-1.0029907,-0.06060791
1602330308249,454,0.14160156,-1.0029907,-0.06060791
1602330308249,455,0.14428711,-1.0020142,-0.06085205
1602330308249,456,0.14208984,-1.0066528,-0.059631348
1602330308249,457,0.14208984,-1.0066528,-0.059631348
1602330308249,458,0.14135742,-1.0037231,-0.06060791
1602330308249,459,0.14208984,-1.0015259,-0.06060791
1602330308249,460,0.1430664,-1.0025024,-0.061340332
1602330308249,461,0.14135742,-1.0037231,-0.06060791
1602330308249,462,0.1418457,-1.0029907,-0.06451416
1602330308249,463,0.14038086,-1.0027466,-0.062072754
1602330308249,464,0.14208984,-1.0015259,-0.06060791
1602330308249,465,0.14208984,-1.0007935,-0.06329346
1602330308249,466,0.1418457,-1.0029907,-0.06451416
1602330308249,467,0.14160156,-1.0029907,-0.06060791
1602330308249,468,0.14331055,-1.0015259,-0.062561035
1602330308249,469,0.14208984,-1.0007935,-0.06329346
1602330308249,470,0.14208984,-1.0066528,-0.059631348
1602330308249,471,0.14135742,-1.0037231,-0.06060791
1602330308249,472,0.1418457,-0.99957275,-0.061584473
1602330308249,473,0.14331055,-1.0015259,-0.062561035
1602330308249,474,0.14208984,-1.0015259,-0.06060791
1602330308249,475,0.1418457,-0.99957275,-0.061584473
1602330308249,476,0.1418457,-1.0029907,-0.06451416
1602330308249,477,0.14208984,-1.0007935,-0.06329346
1602330308249,478,0.14331055,-1.0015259,-0.062561035
1602330308249,479,0.1418457,-0.99957275,-0.061584473
1602330308249,480,0.14135742,-1.005188,-0.06011963
1602330310769,481,0.14135742,-1.005188,-0.06011963
1602330310833,482,0.14135742,-1.005188,-0.06011963
1602330310833,483,0.14086914,-1.0039673,-0.06695557
1602330310833,484,0.14086914,-1.0039673,-0.06695557
1602330310833,485,0.14257812,-1.0042114,-0.062072754
1602330310833,486,0.14086914,-1.0039673,-0.06695557
1602330310833,487,0.14257812,-1.0042114,-0.062072754
1602330310833,488,0.1418457,-0.9998169,-0.061340332
1602330310833,489,0.14257812,-1.0042114,-0.062072754
1602330310833,490,0.13989258,-1.0042114,-0.058898926
1602330310833,491,0.1418457,-0.9998169,-0.061340332
1602330310833,492,0.14160156,-1.0020142,-0.062561035
1602330310833,493,0.13989258,-1.0042114,-0.058898926
1602330310833,494,0.1418457,-0.9998169,-0.061340332
1602330310833,495,0.14160156,-1.0020142,-0.062561035
1602330310833,496,0.14086914,-1.0064087,-0.06329346
1602330310833,497,0.13989258,-1.0042114,-0.058898926
1602330310833,498,0.14086914,-1.0064087,-0.06329346
1602330310833,499,0.14038086,-1.0032349,-0.057434082
1602330310833,500,0.14160156,-1.0020142,-0.062561035
1602330310833,501,0.14038086,-1.0032349,-0.057434082
1602330310833,502,0.14379883,-1.000061,-0.06011963
1602330310833,503,0.14379883,-1.000061,-0.06011963
1602330310833,504,0.14086914,-1.0064087,-0.06329346
1602330310833,505,0.140625,-1.003479,-0.058410645
1602330310833,506,0.140625,-1.003479,-0.058410645
1602330310833,507,0.14257812,-1.000061,-0.058166504
1602330310833,508,0.14038086,-1.0032349,-0.057434082
1602330310833,509,0.14257812,-1.000061,-0.058166504
1602330310833,510,0.14086914,-1.0059204,-0.058166504
1602330310833,511,0.13891602,-1.0015259,-0.058898926
1602330310833,512,0.14086914,-1.0059204,-0.058166504
1602330310833,513,0.14379883,-1.000061,-0.06011963
1602330310834,514,0.1418457,-1.0059204,-0.05987549
1602330310834,515,0.1418457,-1.0032349,-0.06036377
1602330310834,516,0.13891602,-1.0015259,-0.058898926
1602330310834,517,0.140625,-1.003479,-0.058410645
1602330310834,518,0.14257812,-1.000061,-0.0569458
1602330310834,519,0.1418457,-1.0059204,-0.05987549
1602330310834,520,0.13964844,-1.0046997,-0.061340332
1602330310834,521,0.14257812,-1.000061,-0.058166504
1602330310834,522,0.1418457,-1.0032349,-0.06036377
1602330310834,523,0.14086914,-1.0059204,-0.058166504
1602330310834,524,0.14038086,-1.0015259,-0.06036377
1602330310834,525,0.14355469,-1.003479,-0.058410645
1602330310834,526,0.14257812,-1.000061,-0.0569458
1602330310834,527,0.13891602,-1.0015259,-0.058898926
1602330310834,528,0.14013672,-1.0020142,-0.059143066
1602330310834,529,0.1418457,-1.0059204,-0.05987549
1602330310834,530,0.13964844,-1.0046997,-0.061340332
1602330310834,531,0.13842773,-1.0003052,-0.05670166
1602330310834,532,0.13916016,-1.0032349,-0.05718994
1602330310834,533,0.1418457,-1.0032349,-0.06036377
1602330310834,534,0.14038086,-1.0015259,-0.06036377
1602330310834,535,0.1430664,-1.0046997,-0.058410645
1602330310834,536,0.14257812,-1.000061,-0.0569458
1602330310834,537,0.14355469,-1.003479,-0.058410645
1602330310834,538,0.13964844,-1.0046997,-0.061340332
1602330310834,539,0.14013672,-1.0054321,-0.06036377
1602330310834,540,0.14038086,-1.0015259,-0.06036377
1602330310834,541,0.140625,-1.00177,-0.062561035
1602330310834,542,0.14013672,-1.0020142,-0.059143066
1602330310834,543,0.14038086,-1.0039673,-0.05645752
1602330310834,544,0.14355469,-1.003479,-0.058410645
1602330310834,545,0.13842773,-1.0003052,-0.05670166
1602330310835,546,0.14013672,-1.0020142,-0.059143066
1602330310835,547,0.14086914,-1.0015259,-0.05718994
1602330310835,548,0.13916016,-1.0032349,-0.05718994
1602330310835,549,0.14135742,-1.0020142,-0.057678223
1602330310835,550,0.13842773,-1.0003052,-0.05670166
1602330310835,551,0.1430664,-1.0046997,-0.058410645
1602330310835,552,0.13916016,-1.0032349,-0.05718994
1602330310835,553,0.14013672,-1.0054321,-0.06036377
1602330310835,554,0.1430664,-1.0046997,-0.058410645
1602330310835,555,0.14379883,-1.0012817,-0.05670166
1602330310835,556,0.140625,-1.00177,-0.062561035
1602330310835,557,0.13964844,-1.0056763,-0.05621338
1602330310835,558,0.14038086,-1.0039673,-0.05645752
1602330310835,559,0.14013672,-1.0054321,-0.06036377
1602330310835,560,0.13964844,-1.0066528,-0.058410645
1602330310835,561,0.14086914,-1.0015259,-0.05718994
1602330310835,562,0.140625,-1.00177,-0.062561035
1602330310835,563,0.14038086,-1.0039673,-0.05645752
1602330310835,564,0.14135742,-1.0020142,-0.057678223
1602330310835,565,0.1430664,-1.0025024,-0.055725098
1602330310835,566,0.14086914,-1.0015259,-0.05718994
1602330310835,567,0.14379883,-1.0012817,-0.05670166
1602330310835,568,0.14135742,-1.0020142,-0.057678223
1602330310835,569,0.13964844,-1.0056763,-0.05621338
1602330310835,570,0.14379883,-1.0012817,-0.05670166
1602330310835,571,0.13964844,-1.0066528,-0.058410645
1602330310835,572,0.13964844,-1.0056763,-0.05621338
1602330310835,573,0.1430664,-1.0025024,-0.055725098
1602330310835,574,0.13964844,-1.0066528,-0.058410645
1602330310835,575,0.1430664,-1.0025024,-0.055725098
1602330313811,576,0.14111328,-1.0049438,-0.059631348
1602330310834,577,0.14111328,-1.0049438,-0.059631348
1602330313811,578,0.14111328,-1.0049438,-0.059631348
1602330313811,579,0.14575195,-1.003479,-0.058166504
1602330313811,580,0.14575195,-1.003479,-0.058166504
1602330313811,581,0.14575195,-1.003479,-0.058166504
1602330313811,582,0.1459961,-1.000061,-0.058898926
1602330313811,583,0.1459961,-1.000061,-0.058898926
1602330313811,584,0.1459961,-1.000061,-0.058898926
1602330313811,585,0.1459961,-1.0010376,-0.059631348
1602330313811,586,0.1459961,-1.0010376,-0.059631348
1602330313811,587,0.14672852,-1.0010376,-0.059631348
1602330313811,588,0.1459961,-1.0010376,-0.059631348
1602330313811,589,0.14770508,-1.0039673,-0.06036377
1602330313811,590,0.14672852,-1.0010376,-0.059631348
1602330313811,591,0.14672852,-1.0010376,-0.059631348
1602330313811,592,0.14746094,-1.0027466,-0.05303955
1602330313811,593,0.14770508,-1.0039673,-0.06036377
1602330313811,594,0.14770508,-0.9990845,-0.059387207
1602330313811,595,0.14770508,-1.0039673,-0.06036377
1602330313811,596,0.14746094,-1.0027466,-0.05303955
1602330313811,597,0.15112305,-0.9998169,-0.057434082
1602330313811,598,0.14746094,-1.0027466,-0.05303955
1602330313811,599,0.14770508,-0.9990845,-0.059387207
1602330313811,600,0.14770508,-0.9990845,-0.059387207
1602330313811,601,0.15112305,-0.9998169,-0.057434082
1602330313811,602,0.15063477,-1.0027466,-0.05718994
1602330313811,603,0.15112305,-0.9998169,-0.057434082
1602330313811,604,0.15063477,-1.0027466,-0.05718994
1602330313811,605,0.14990234,-1.0007935,-0.054504395
1602330313811,606,0.14990234,-1.0007935,-0.054504395
1602330313811,607,0.15136719,-1.0012817,-0.058410645
1602330313811,608,0.15063477,-1.0027466,-0.05718994
1602330313811,609,0.15136719,-1.0012817,-0.058410645
1602330313811,610,0.15014648,-0.9985962,-0.059631348
1602330313811,611,0.15014648,-0.9985962,-0.059631348
1602330313811,612,0.14990234,-1.0007935,-0.054504395
1602330313811,613,0.14892578,-1.0039673,-0.054992676
1602330313811,614,0.14892578,-1.0039673,-0.054992676
1602330313811,615,0.15136719,-1.0012817,-0.058410645
1602330313811,616,0.14892578,-1.0007935,-0.0569458
1602330313811,617,0.14892578,-1.0007935,-0.0569458
1602330313811,618,0.15014648,-0.9985962,-0.059631348
1602330313811,619,0.14672852,-1.0022583,-0.057678223
1602330313811,620,0.14892578,-1.0039673,-0.054992676
1602330313811,621,0.14672852,-1.0022583,-0.057678223
1602330313811,622,0.14892578,-1.0007935,-0.0569458
1602330313811,623,0.14697266,-1.0007935,-0.057678223
1602330313811,624,0.14672852,-1.0022583,-0.057678223
1602330313811,625,0.14697266,-1.0007935,-0.057678223
1602330313811,626,0.14868164,-1.0044556,-0.05645752
1602330313811,627,0.14697266,-1.0007935,-0.057678223
1602330313811,628,0.14868164,-1.0044556,-0.05645752
1602330313811,629,0.14868164,-1.0044556,-0.05645752
1602330313811,630,0.14672852,-1.0003052,-0.058410645
1602330313811,631,0.14672852,-1.0003052,-0.058410645
1602330313811,632,0.14428711,-1.0037231,-0.05621338
1602330313811,633,0.14428711,-1.0037231,-0.05621338
1602330313811,634,0.14672852,-1.0003052,-0.058410645
1602330313811,635,0.1459961,-1.0029907,-0.058898926
1602330313811,636,0.14428711,-1.0037231,-0.05621338
1602330313811,637,0.14575195,-1.000061,-0.05645752
1602330313811,638,0.1459961,-1.0029907,-0.058898926
1602330313811,639,0.1459961,-1.0029907,-0.058898926
1602330313811,640,0.14379883,-1.000061,-0.058898926
1602330313811,641,0.14575195,-1.000061,-0.05645752
1602330313811,642,0.14404297,-1.0037231,-0.05645752
1602330313811,643,0.14575195,-1.000061,-0.05645752
1602330313811,644,0.14379883,-1.000061,-0.058898926
1602330313811,645,0.14379883,-1.000061,-0.058898926
1602330313811,646,0.14282227,-1.0042114,-0.057922363
1602330313811,647,0.14404297,-1.0037231,-0.05645752
1602330313811,648,0.14404297,-1.0037231,-0.05645752
1602330313811,649,0.14208984,-1.0012817,-0.058654785
1602330313811,650,0.14282227,-1.0042114,-0.057922363
1602330313811,651,0.14282227,-1.0042114,-0.057922363
1602330313811,652,0.14111328,-1.0015259,-0.058166504
1602330313811,653,0.14208984,-1.0012817,-0.058654785
1602330313811,654,0.14013672,-1.0059204,-0.059143066
1602330313811,655,0.14208984,-1.0012817,-0.058654785
1602330313811,656,0.14111328,-1.0015259,-0.058166504
1602330313811,657,0.14282227,-0.9990845,-0.057434082
1602330313811,658,0.14111328,-1.0015259,-0.058166504
1602330313811,659,0.14013672,-1.0059204,-0.059143066
1602330313811,660,0.14013672,-1.0059204,-0.059143066
1602330313811,661,0.14282227,-0.9990845,-0.057434082
1602330313811,662,0.14282227,-0.9990845,-0.057434082
1602330313811,663,0.140625,-1.0029907,-0.058898926
1602330313811,664,0.140625,-1.0029907,-0.058898926
1602330313811,665,0.140625,-1.0029907,-0.058898926
1602330313811,666,0.14404297,-1.0044556,-0.06085205
1602330313811,667,0.14404297,-1.0044556,-0.06085205
1602330313811,668,0.14355469,-1.0020142,-0.05987549
1602330313811,669,0.14404297,-1.0044556,-0.06085205
1602330313811,670,0.14355469,-1.0020142,-0.05987549
1602330313811,671,0.14355469,-1.0020142,-0.05987549
1602330313811,672,0.1430664,-1.00177,-0.05621338
1602330316331,673,0.1430664,-1.00177,-0.05621338
1602330315999,674,0.14160156,-1.0029907,-0.0569458
1602330315999,675,0.1430664,-1.00177,-0.05621338
1602330315999,676,0.14160156,-1.0029907,-0.0569458
1602330315999,677,0.14379883,-1.0029907,-0.058410645
1602330315999,678,0.14160156,-1.0029907,-0.0569458
1602330315999,679,0.14550781,-1.0049438,-0.059143066
1602330315999,680,0.14379883,-1.0029907,-0.058410645
1602330315999,681,0.14379883,-1.0029907,-0.058410645
1602330315999,682,0.14453125,-1.0022583,-0.059387207
1602330315999,683,0.14550781,-1.0049438,-0.059143066
1602330315999,684,0.14550781,-1.0049438,-0.059143066
1602330315999,685,0.14453125,-1.0032349,-0.058166504
1602330315999,686,0.14453125,-1.0022583,-0.059387207
1602330315999,687,0.14453125,-1.0022583,-0.059387207
1602330315999,688,0.14575195,-1.0007935,-0.059387207
1602330316000,689,0.14453125,-1.0032349,-0.058166504
1602330316000,690,0.14453125,-1.0032349,-0.058166504
1602330316000,691,0.1459961,-1.0003052,-0.0647583
1602330316000,692,0.14575195,-1.0007935,-0.059387207
1602330316000,693,0.14575195,-1.0007935,-0.059387207
1602330316000,694,0.1459961,-1.0003052,-0.0647583
1602330316000,695,0.14404297,-1.0046997,-0.06060791
1602330316000,696,0.1459961,-1.0003052,-0.0647583
1602330316000,697,0.14404297,-1.0046997,-0.06060791
1602330316000,698,0.14404297,-1.0046997,-0.06060791
1602330316000,699,0.14624023,-1.0029907,-0.057922363
1602330316000,700,0.14624023,-1.0029907,-0.057922363
1602330316000,701,0.14697266,-1.0025024,-0.057434082
1602330316000,702,0.14624023,-1.0029907,-0.057922363
1602330316000,703,0.14697266,-1.0025024,-0.057434082
1602330316000,704,0.14697266,-1.0025024,-0.057434082
1602330316000,705,0.14672852,-1.0027466,-0.06036377
1602330316001,706,0.14672852,-1.0027466,-0.06036377
1602330316001,707,0.14672852,-1.0027466,-0.06036377
1602330316001,708,0.1472168,-1.0029907,-0.06109619
1602330316001,709,0.1472168,-1.0029907,-0.06109619
1602330316001,710,0.1472168,-1.0029907,-0.06109619
1602330316001,711,0.14575195,-1.003479,-0.05670166
1602330316001,712,0.14916992,-0.9993286,-0.059387207
1602330316001,713,0.14575195,-1.003479,-0.05670166
1602330316001,714,0.14575195,-1.003479,-0.05670166
1602330316001,715,0.14892578,-1.0003052,-0.05670166
1602330316001,716,0.14916992,-0.9993286,-0.059387207
1602330316001,717,0.14672852,-1.00177,-0.057678223
1602330316001,718,0.14916992,-0.9993286,-0.059387207
1602330316001,719,0.14892578,-1.0003052,-0.05670166
1602330316001,720,0.14892578,-1.0012817,-0.058166504
1602330316001,721,0.14892578,-1.0003052,-0.05670166
1602330316002,722,0.14672852,-1.00177,-0.057678223
1602330316002,723,0.14624023,-1.0012817,-0.05718994
1602330316002,724,0.14892578,-1.0012817,-0.058166504
1602330316002,725,0.14672852,-1.00177,-0.057678223
1602330316002,726,0.14624023,-1.0012817,-0.05718994
1602330316002,727,0.1472168,-1.0015259,-0.057922363
1602330316002,728,0.1472168,-1.0015259,-0.057922363
1602330316002,729,0.14526367,-1.0007935,-0.055725098
1602330316002,730,0.14892578,-1.0012817,-0.058166504
1602330316002,731,0.14526367,-1.0007935,-0.055725098
1602330316002,732,0.14379883,-1.0010376,-0.058654785
1602330316002,733,0.14379883,-1.0010376,-0.058654785
1602330316002,734,0.14624023,-1.0012817,-0.05718994
1602330316002,735,0.14575195,-1.003479,-0.05670166
1602330316002,736,0.1472168,-1.0015259,-0.057922363
1602330316003,737,0.14282227,-1.0056763,-0.053527832
1602330316002,738,0.14575195,-1.003479,-0.05670166
1602330316003,739,0.14526367,-1.0007935,-0.055725098
1602330316003,740,0.14575195,-1.0054321,-0.06011963
1602330316003,741,0.14282227,-1.0056763,-0.053527832
1602330316003,742,0.14379883,-1.0010376,-0.058654785
1602330316003,743,0.14282227,-1.0027466,-0.058898926
1602330316003,744,0.14575195,-1.003479,-0.05670166
1602330316003,745,0.14208984,-1.0012817,-0.054260254
1602330316003,746,0.14575195,-1.0054321,-0.06011963
1602330316003,747,0.14282227,-1.0056763,-0.053527832
1602330316003,748,0.14282227,-1.0027466,-0.058898926
1602330316003,749,0.14575195,-1.0054321,-0.06011963
1602330316003,750,0.14208984,-1.0012817,-0.054260254
1602330316003,751,0.14355469,-1.0037231,-0.058410645
1602330316003,752,0.14282227,-1.0027466,-0.058898926
1602330316003,753,0.14355469,-1.0037231,-0.058410645
1602330316004,754,0.14257812,-0.9998169,-0.057922363
1602330316004,755,0.14208984,-1.0012817,-0.054260254
1602330316004,756,0.14257812,-0.9998169,-0.057922363
1602330316004,757,0.14453125,-1.003479,-0.05670166
1602330316004,758,0.14355469,-1.0037231,-0.058410645
1602330316004,759,0.14453125,-1.003479,-0.05670166
1602330316004,760,0.14208984,-1.006897,-0.054992676
1602330316004,761,0.14257812,-0.9998169,-0.057922363
1602330316004,762,0.14453125,-1.003479,-0.05670166
1602330316004,763,0.14208984,-1.006897,-0.054992676
1602330316004,764,0.14282227,-0.99957275,-0.057434082
1602330316004,765,0.14208984,-1.006897,-0.054992676
1602330316004,766,0.14282227,-0.99957275,-0.057434082
1602330316004,767,0.14282227,-0.99957275,-0.057434082
1602330316001,768,0.14648438,-1.0039673,-0.061828613
1602330318584,769,0.14648438,-1.0039673,-0.061828613
1602330318521,770,0.14648438,-1.0039673,-0.061828613
1602330318584,771,0.14013672,-1.0071411,-0.059631348
1602330318584,772,0.14013672,-1.0071411,-0.059631348
1602330318584,773,0.14013672,-1.0071411,-0.059631348
1602330318584,774,0.14086914,-0.99786377,-0.05670166
1602330318584,775,0.14086914,-0.99786377,-0.05670166
1602330318584,776,0.14086914,-0.99786377,-0.05670166
1602330318584,777,0.14233398,-1.0044556,-0.058410645
1602330318584,778,0.14233398,-1.0044556,-0.058410645
1602330318584,779,0.1430664,-1.0012817,-0.05718994
1602330318584,780,0.1430664,-1.0012817,-0.05718994
1602330318584,781,0.14233398,-1.0044556,-0.058410645
1602330318584,782,0.1418457,-1.0022583,-0.059387207
1602330318584,783,0.1418457,-1.0022583,-0.059387207
1602330318584,784,0.1430664,-1.0012817,-0.05718994
1602330318584,785,0.14135742,-1.0012817,-0.059631348
1602330318584,786,0.14135742,-1.0012817,-0.059631348
1602330318584,787,0.14160156,-1.0010376,-0.05718994
1602330318584,788,0.14160156,-1.0010376,-0.05718994
1602330318584,789,0.1418457,-1.0022583,-0.059387207
1602330318584,790,0.14501953,-1.0037231,-0.058166504
1602330318584,791,0.14501953,-1.0037231,-0.058166504
1602330318584,792,0.14526367,-1.0022583,-0.061584473
1602330318584,793,0.14135742,-1.0012817,-0.059631348
1602330318584,794,0.14526367,-1.0022583,-0.061584473
1602330318584,795,0.14526367,-1.0012817,-0.058898926
1602330318584,796,0.14526367,-1.0012817,-0.058898926
1602330318584,797,0.14160156,-1.0010376,-0.05718994
1602330318584,798,0.14501953,-1.0037231,-0.058166504
1602330318584,799,0.1459961,-1.0039673,-0.05596924
1602330318584,800,0.14648438,-1.0010376,-0.057678223
1602330318584,801,0.14526367,-1.0022583,-0.061584473
1602330318584,802,0.1459961,-1.0039673,-0.05596924
1602330318584,803,0.14648438,-1.0010376,-0.057678223
1602330318584,804,0.14526367,-1.0012817,-0.058898926
1602330318584,805,0.14916992,-1.0056763,-0.058898926
1602330318584,806,0.14916992,-1.0056763,-0.058898926
1602330318584,807,0.14526367,-1.0005493,-0.059387207
1602330318584,808,0.14526367,-1.0005493,-0.059387207
1602330318584,809,0.1496582,-1.0012817,-0.05621338
1602330318584,810,0.1459961,-1.0039673,-0.05596924
1602330318584,811,0.14648438,-1.0003052,-0.058166504
1602330318584,812,0.14648438,-1.0010376,-0.057678223
1602330318584,813,0.1496582,-1.0012817,-0.05621338
1602330318584,814,0.14648438,-1.0003052,-0.058166504
1602330318584,815,0.14916992,-1.0056763,-0.058898926
1602330318584,816,0.14746094,-1.0005493,-0.054748535
1602330318584,817,0.14526367,-1.0005493,-0.059387207
1602330318584,818,0.14746094,-1.0005493,-0.054748535
1602330318584,819,0.14990234,-1.0029907,-0.059143066
1602330318584,820,0.14990234,-1.0029907,-0.059143066
1602330318584,821,0.15283203,-1.0039673,-0.054992676
1602330318584,822,0.1496582,-1.0012817,-0.05621338
1602330318584,823,0.14868164,-1.000061,-0.05596924
1602330318584,824,0.14648438,-1.0003052,-0.058166504
1602330318584,825,0.15283203,-1.0039673,-0.054992676
1602330318584,826,0.15063477,-1.0003052,-0.059387207
1602330318584,827,0.14746094,-1.0005493,-0.054748535
1602330318584,828,0.14868164,-1.000061,-0.05596924
1602330318584,829,0.1508789,-1.003479,-0.057678223
1602330318584,830,0.15063477,-1.0003052,-0.059387207
1602330318584,831,0.14990234,-1.0029907,-0.059143066
1602330318584,832,0.1508789,-1.003479,-0.057678223
1602330318584,833,0.14550781,-1.0044556,-0.059631348
1602330318584,834,0.14550781,-1.0044556,-0.059631348
1602330318584,835,0.14746094,-0.99835205,-0.05621338
1602330318584,836,0.14746094,-0.99835205,-0.05621338
1602330318584,837,0.15283203,-1.0039673,-0.054992676
1602330318584,838,0.1459961,-1.0005493,-0.054016113
1602330318584,839,0.14868164,-1.000061,-0.05596924
1602330318584,840,0.1459961,-1.0005493,-0.054016113
1602330318584,841,0.14916992,-1.00177,-0.05621338
1602330318584,842,0.1459961,-1.0012817,-0.058654785
1602330318584,843,0.15063477,-1.0003052,-0.059387207
1602330318584,844,0.14916992,-1.00177,-0.05621338
1602330318584,845,0.1459961,-1.0012817,-0.058654785
1602330318584,846,0.14477539,-1.0027466,-0.058654785
1602330318584,847,0.14477539,-1.0027466,-0.058654785
1602330318584,848,0.1508789,-1.003479,-0.057678223
1602330318584,849,0.14575195,-1.0010376,-0.059143066
1602330318584,850,0.14550781,-1.0044556,-0.059631348
1602330318584,851,0.14624023,-1.0022583,-0.05718994
1602330318584,852,0.14575195,-1.0010376,-0.059143066
1602330318584,853,0.14501953,-1.0012817,-0.05670166
1602330318584,854,0.14746094,-0.99835205,-0.05621338
1602330318584,855,0.14624023,-1.0022583,-0.05718994
1602330318584,856,0.1459961,-1.0005493,-0.054016113
1602330318584,857,0.14501953,-1.0012817,-0.05670166
1602330318584,858,0.14916992,-1.00177,-0.05621338
1602330318584,859,0.1459961,-1.0012817,-0.058654785
1602330318584,860,0.14477539,-1.0027466,-0.058654785
1602330318584,861,0.14575195,-1.0010376,-0.059143066
1602330318584,862,0.14624023,-1.0022583,-0.05718994
1602330318584,863,0.14501953,-1.0012817,-0.05670166
1602330318584,864,0.14160156,-1.0022583,-0.05670166
1602330321168,865,0.14160156,-1.0022583,-0.05670166
1602330321168,866,0.14160156,-1.0022583,-0.05670166
1602330321168,867,0.14428711,-0.99884033,-0.057922363
1602330321168,868,0.14428711,-0.99884033,-0.057922363
1602330321168,869,0.14672852,-1.005188,-0.061828613
1602330321168,870,0.14428711,-0.99884033,-0.057922363
1602330321168,871,0.14672852,-1.005188,-0.061828613
1602330321168,872,0.1430664,-1.0007935,-0.05718994
1602330321168,873,0.14672852,-1.005188,-0.061828613
1602330321168,874,0.14453125,-1.0039673,-0.058410645
1602330321168,875,0.1430664,-1.0007935,-0.05718994
1602330321168,876,0.14257812,-1.00177,-0.057434082
1602330321168,877,0.1430664,-1.0007935,-0.05718994
1602330321168,878,0.14453125,-1.0039673,-0.058410645
1602330321168,879,0.14453125,-1.0039673,-0.058410645
1602330321168,880,0.14135742,-1.0007935,-0.05596924
1602330321168,881,0.14257812,-1.00177,-0.057434082
1602330321168,882,0.14257812,-1.00177,-0.057434082
1602330321168,883,0.14135742,-1.0007935,-0.05596924
1602330321168,884,0.14135742,-1.0007935,-0.05596924
1602330321168,885,0.14208984,-1.0042114,-0.058410645
1602330321168,886,0.14208984,-1.0042114,-0.058410645
1602330321168,887,0.14208984,-1.0042114,-0.058410645
1602330321168,888,0.14331055,-1.0015259,-0.058654785
1602330321168,889,0.14331055,-1.0015259,-0.058654785
1602330321168,890,0.14331055,-1.0015259,-0.058654785
1602330321168,891,0.14501953,-1.0003052,-0.06060791
1602330321168,892,0.14501953,-1.0003052,-0.06060791
1602330321168,893,0.14208984,-1.000061,-0.054504395
1602330321168,894,0.14501953,-1.0003052,-0.06060791
1602330321168,895,0.14208984,-1.000061,-0.054504395
1602330321168,896,0.14331055,-1.0027466,-0.061828613
1602330321168,897,0.14208984,-1.000061,-0.054504395
1602330321168,898,0.14331055,-1.0027466,-0.061828613
1602330321168,899,0.14404297,-1.0049438,-0.058898926
1602330321168,900,0.14404297,-1.0049438,-0.058898926
1602330321168,901,0.14550781,-1.0010376,-0.05621338
1602330321168,902,0.14331055,-1.0027466,-0.061828613
1602330321168,903,0.14550781,-1.0010376,-0.05621338
1602330321168,904,0.14404297,-1.0049438,-0.058898926
1602330321168,905,0.14477539,-1.0042114,-0.05596924
1602330321168,906,0.14477539,-1.0042114,-0.05596924
1602330321168,907,0.14550781,-1.0015259,-0.06060791
1602330321168,908,0.14550781,-1.0015259,-0.06060791
1602330321168,909,0.14550781,-1.0010376,-0.05621338
1602330321168,910,0.1459961,-1.0005493,-0.059387207
1602330321168,911,0.14477539,-1.0042114,-0.05596924
1602330321168,912,0.1459961,-1.0005493,-0.059387207
1602330321168,913,0.14746094,-1.0012817,-0.054016113
1602330321168,914,0.14550781,-1.0015259,-0.06060791
1602330321168,915,0.14746094,-1.0012817,-0.054016113
1602330321168,916,0.1459961,-1.0005493,-0.059387207
1602330321168,917,0.1472168,-1.0010376,-0.057434082
1602330321168,918,0.1472168,-1.0010376,-0.057434082
1602330321168,919,0.14746094,-1.0012817,-0.054016113
1602330321168,920,0.14819336,-1.0020142,-0.057922363
1602330321168,921,0.14819336,-1.0020142,-0.057922363
1602330321168,922,0.1472168,-1.0010376,-0.057434082
1602330321168,923,0.14550781,-1.0032349,-0.057434082
1602330321168,924,0.14550781,-1.0032349,-0.057434082
1602330321168,925,0.15185547,-0.99957275,-0.057434082
1602330321168,926,0.15185547,-0.99957275,-0.057434082
1602330321168,927,0.14990234,-1.0003052,-0.059143066
1602330321168,928,0.14819336,-1.0020142,-0.057922363
1602330321168,929,0.15136719,-0.99957275,-0.055725098
1602330321168,930,0.14990234,-1.0003052,-0.059143066
1602330321168,931,0.15258789,-1.003479,-0.0569458
1602330321168,932,0.14550781,-1.0032349,-0.057434082
1602330321168,933,0.15136719,-0.99957275,-0.055725098
1602330321168,934,0.15258789,-1.003479,-0.0569458
1602330321168,935,0.15185547,-0.99957275,-0.057434082
1602330321168,936,0.15209961,-1.0003052,-0.059143066
1602330321168,937,0.15209961,-1.0003052,-0.059143066
1602330321168,938,0.14990234,-1.0003052,-0.059143066
1602330321168,939,0.15063477,-1.000061,-0.057922363
1602330321168,940,0.15136719,-0.99957275,-0.055725098
1602330321168,941,0.15014648,-1.0020142,-0.057922363
1602330321168,942,0.15063477,-1.000061,-0.057922363
1602330321168,943,0.15258789,-1.003479,-0.0569458
1602330321168,944,0.15014648,-1.0020142,-0.057922363
1602330321168,945,0.14916992,-1.0020142,-0.058654785
1602330321168,946,0.15161133,-1.0012817,-0.0569458
1602330321168,947,0.15209961,-1.0003052,-0.059143066
1602330321168,948,0.14916992,-1.0020142,-0.058654785
1602330321168,949,0.14501953,-1.003479,-0.059387207
1602330321168,950,0.15063477,-1.000061,-0.057922363
1602330321168,951,0.15161133,-1.0012817,-0.0569458
1602330321168,952,0.15014648,-1.0020142,-0.057922363
1602330321168,953,0.1496582,-1.0007935,-0.059631348
1602330321168,954,0.14916992,-1.0020142,-0.058654785
1602330321168,955,0.14501953,-1.003479,-0.059387207
1602330321168,956,0.15161133,-1.0012817,-0.0569458
1602330321168,957,0.1496582,-1.0007935,-0.059631348
1602330321168,958,0.14501953,-1.003479,-0.059387207
1602330321168,959,0.1496582,-1.0007935,-0.059631348
1602330321168,960,0.14746094,-1.0025024,-0.06036377
1602330323688,961,0.14746094,-1.0025024,-0.06036377
1602330323751,962,0.14624023,-0.9993286,-0.05596924
1602330323751,963,0.14624023,-0.9993286,-0.05596924
1602330323751,964,0.14746094,-1.0025024,-0.06036377
1602330323751,965,0.14892578,-1.0015259,-0.058654785
1602330323751,966,0.14892578,-1.0015259,-0.058654785
1602330323751,967,0.14624023,-0.9993286,-0.05596924
1602330323751,968,0.14379883,-1.0029907,-0.05621338
1602330323751,969,0.14379883,-1.0029907,-0.05621338
1602330323751,970,0.14892578,-1.0015259,-0.058654785
1602330323751,971,0.15063477,-1.0010376,-0.059387207
1602330323751,972,0.14379883,-1.0029907,-0.05621338
1602330323751,973,0.15063477,-1.0010376,-0.059387207
1602330323751,974,0.15063477,-1.0010376,-0.059387207
1602330323751,975,0.14355469,-0.9998169,-0.055480957
1602330323751,976,0.14355469,-0.9998169,-0.055480957
1602330323751,977,0.14355469,-0.9998169,-0.055480957
1602330323751,978,0.14672852,-1.0032349,-0.058166504
1602330323751,979,0.14672852,-1.0032349,-0.058166504
1602330323751,980,0.14672852,-1.0032349,-0.058166504
1602330323751,981,0.14477539,-1.005188,-0.06011963
1602330323751,982,0.14477539,-1.005188,-0.06011963
1602330323751,983,0.14477539,-1.005188,-0.06011963
1602330323751,984,0.14208984,-1.0020142,-0.058410645
1602330323751,985,0.14208984,-1.0020142,-0.058410645
1602330323751,986,0.1430664,-1.0039673,-0.054992676
1602330323751,987,0.14208984,-1.0020142,-0.058410645
1602330323751,988,0.14453125,-1.0029907,-0.057922363
1602330323751,989,0.1430664,-1.0039673,-0.054992676
1602330323751,990,0.1430664,-1.0039673,-0.054992676
1602330323751,991,0.14453125,-1.0029907,-0.057922363
1602330323751,992,0.14770508,-0.99957275,-0.057434082
1602330323751,993,0.14453125,-1.0029907,-0.057922363
1602330323752,994,0.14648438,-1.0042114,-0.05987549
1602330323752,995,0.14770508,-0.99957275,-0.057434082
1602330323752,996,0.14770508,-0.99957275,-0.057434082
1602330323752,997,0.14477539,-1.0020142,-0.05645752
1602330323752,998,0.14648438,-1.0042114,-0.05987549
1602330323752,999,0.14648438,-1.0042114,-0.05987549
1602330323752,1000,0.14404297,-1.0027466,-0.05670166
1602330323752,1001,0.14477539,-1.0020142,-0.05645752
1602330323752,1002,0.14477539,-1.0020142,-0.05645752
1602330323752,1003,0.14575195,-1.0044556,-0.05670166
1602330323752,1004,0.14404297,-1.0027466,-0.05670166
1602330323752,1005,0.14404297,-1.0027466,-0.05670166
1602330323752,1006,0.14575195,-1.0044556,-0.05670166
1602330323752,1007,0.1472168,-1.003479,-0.05596924
1602330323752,1008,0.14575195,-1.0044556,-0.05670166
1602330323752,1009,0.1472168,-1.003479,-0.05596924
1602330323752,1010,0.1472168,-1.003479,-0.05596924
1602330323752,1011,0.14526367,-1.0015259,-0.0569458
1602330323752,1012,0.14526367,-1.0015259,-0.0569458
1602330323752,1013,0.14233398,-1.0015259,-0.05645752
1602330323752,1014,0.14526367,-1.0015259,-0.0569458
1602330323752,1015,0.14233398,-1.0015259,-0.05645752
1602330323752,1016,0.14501953,-1.0027466,-0.0569458
1602330323752,1017,0.14233398,-1.0015259,-0.05645752
1602330323752,1018,0.14501953,-1.0027466,-0.0569458
1602330323752,1019,0.14501953,-1.0027466,-0.0569458
1602330323752,1020,0.14404297,-1.0039673,-0.058654785
1602330323752,1021,0.14404297,-1.0039673,-0.058654785
1602330323752,1022,0.14404297,-1.0039673,-0.058654785
1602330323752,1023,0.14648438,-0.9990845,-0.054748535
1602330323752,1024,0.14648438,-0.9990845,-0.054748535
1602330323752,1025,0.14648438,-0.9990845,-0.054748535
1602330323753,1026,0.14379883,-1.0027466,-0.057678223
1602330323753,1027,0.14379883,-1.0027466,-0.057678223
1602330323753,1028,0.14379883,-1.0027466,-0.057678223
1602330323753,1029,0.14794922,-1.0003052,-0.057678223
1602330323753,1030,0.14794922,-1.0003052,-0.057678223
1602330323753,1031,0.14794922,-1.0003052,-0.057678223
1602330323753,1032,0.1484375,-0.9993286,-0.0569458
1602330323753,1033,0.1484375,-0.9993286,-0.0569458
1602330323753,1034,0.1484375,-0.9993286,-0.0569458
1602330323753,1035,0.14697266,-1.0029907,-0.054748535
1602330323753,1036,0.14697266,-1.0029907,-0.054748535
1602330323753,1037,0.15112305,-1.0032349,-0.055480957
1602330323753,1038,0.14697266,-1.0029907,-0.054748535
1602330323753,1039,0.15112305,-1.0032349,-0.055480957
1602330323753,1040,0.15112305,-1.0032349,-0.055480957
1602330323753,1041,0.14819336,-1.0022583,-0.055480957
1602330323753,1042,0.14819336,-1.0022583,-0.055480957
1602330323753,1043,0.14819336,-1.0022583,-0.055480957
1602330323753,1044,0.15112305,-1.0022583,-0.0569458
1602330323753,1045,0.15112305,-1.0022583,-0.0569458
1602330323753,1046,0.15112305,-1.0022583,-0.0569458
1602330323753,1047,0.1484375,-1.000061,-0.0569458
1602330323753,1048,0.1484375,-1.000061,-0.0569458
1602330323753,1049,0.1484375,-1.000061,-0.0569458
1602330323753,1050,0.1484375,-1.0015259,-0.058898926
1602330323753,1051,0.1484375,-1.0015259,-0.058898926
1602330323753,1052,0.15112305,-0.99835205,-0.054992676
1602330323753,1053,0.15112305,-0.99835205,-0.054992676
1602330323753,1054,0.1484375,-1.0015259,-0.058898926
1602330323753,1055,0.15112305,-0.99835205,-0.054992676
1602330326272,1056,0.14916992,-1.0029907,-0.05645752
1602330326335,1057,0.14916992,-1.0029907,-0.05645752
1602330323752,1058,0.14916992,-1.0029907,-0.05645752
1602330326335,1059,0.1484375,-1.0029907,-0.05621338
1602330326335,1060,0.1484375,-1.0029907,-0.05621338
1602330326335,1061,0.1484375,-1.0029907,-0.05621338
1602330326335,1062,0.14746094,-1.0027466,-0.05645752
1602330326335,1063,0.14746094,-1.0027466,-0.05645752
1602330326335,1064,0.14746094,-1.0027466,-0.05645752
1602330326335,1065,0.14794922,-1.0025024,-0.057434082
1602330326335,1066,0.14794922,-1.0025024,-0.057434082
1602330326335,1067,0.14794922,-1.0025024,-0.057434082
1602330326335,1068,0.14770508,-1.0032349,-0.057678223
1602330326335,1069,0.14770508,-1.0032349,-0.057678223
1602330326335,1070,0.14819336,-1.0020142,-0.05718994
1602330326335,1071,0.14819336,-1.0020142,-0.05718994
1602330326335,1072,0.14770508,-1.0032349,-0.057678223
1602330326335,1073,0.14624023,-1.0037231,-0.05621338
1602330326335,1074,0.14624023,-1.0037231,-0.05621338
1602330326335,1075,0.14819336,-1.0020142,-0.05718994
1602330326335,1076,0.1484375,-0.99957275,-0.058654785
1602330326335,1077,0.1484375,-0.99957275,-0.058654785
1602330326335,1078,0.14624023,-1.0037231,-0.05621338
1602330326335,1079,0.1484375,-0.99957275,-0.058654785
1602330326335,1080,0.14575195,-1.0037231,-0.055480957
1602330326335,1081,0.14575195,-1.0037231,-0.055480957
1602330326335,1082,0.14672852,-0.99957275,-0.053527832
1602330326335,1083,0.14575195,-1.0037231,-0.055480957
1602330326335,1084,0.14672852,-0.99957275,-0.053527832
1602330326335,1085,0.14672852,-0.99957275,-0.053527832
1602330326335,1086,0.14794922,-1.0039673,-0.058898926
1602330326335,1087,0.14794922,-1.0039673,-0.058898926
1602330326335,1088,0.14794922,-1.0039673,-0.058898926
1602330326335,1089,0.14575195,-1.00177,-0.05596924
1602330326335,1090,0.14575195,-1.00177,-0.05596924
1602330326335,1091,0.14575195,-1.00177,-0.05596924
1602330326335,1092,0.14501953,-1.0010376,-0.05596924
1602330326335,1093,0.14501953,-1.0010376,-0.05596924
1602330326335,1094,0.14501953,-1.0010376,-0.05596924
1602330326335,1095,0.14453125,-1.00177,-0.055480957
1602330326335,1096,0.14453125,-1.00177,-0.055480957
1602330326335,1097,0.14453125,-1.00177,-0.055480957
1602330326335,1098,0.14819336,-1.0007935,-0.055236816
1602330326335,1099,0.14819336,-1.0007935,-0.055236816
1602330326335,1100,0.14819336,-1.0007935,-0.055236816
1602330326335,1101,0.14331055,-1.0025024,-0.059143066
1602330326335,1102,0.14331055,-1.0025024,-0.059143066
1602330326335,1103,0.14331055,-1.0025024,-0.059143066
1602330326335,1104,0.14355469,-1.000061,-0.05621338
1602330326335,1105,0.14355469,-1.000061,-0.05621338
1602330326335,1106,0.14355469,-1.000061,-0.05621338
1602330326335,1107,0.14526367,-1.000061,-0.058654785
1602330326335,1108,0.14526367,-1.000061,-0.058654785
1602330326335,1109,0.14526367,-1.000061,-0.058654785
1602330326335,1110,0.1459961,-1.0027466,-0.057434082
1602330326335,1111,0.1459961,-1.0027466,-0.057434082
1602330326335,1112,0.1459961,-1.0027466,-0.057434082
1602330326335,1113,0.14770508,-0.9993286,-0.057434082
1602330326335,1114,0.14770508,-0.9993286,-0.057434082
1602330326335,1115,0.14770508,-0.9993286,-0.057434082
1602330326335,1116,0.14526367,-1.0059204,-0.055725098
1602330326335,1117,0.14526367,-1.0059204,-0.055725098
1602330326335,1118,0.1459961,-1.0020142,-0.054260254
1602330326335,1119,0.14526367,-1.0059204,-0.055725098
1602330326335,1120,0.14477539,-1.0012817,-0.057434082
1602330326335,1121,0.1459961,-1.0020142,-0.054260254
1602330326335,1122,0.1459961,-1.0020142,-0.054260254
1602330326335,1123,0.14526367,-1.0025024,-0.055480957
1602330326335,1124,0.14477539,-1.0012817,-0.057434082
1602330326335,1125,0.14477539,-1.0012817,-0.057434082
1602330326335,1126,0.14526367,-1.0025024,-0.055480957
1602330326335,1127,0.14526367,-1.0025024,-0.055480957
1602330326335,1128,0.14550781,-1.0007935,-0.058654785
1602330326335,1129,0.14550781,-1.0007935,-0.058654785
1602330326335,1130,0.14550781,-1.0007935,-0.058654785
1602330326335,1131,0.14428711,-1.0037231,-0.05670166
1602330326335,1132,0.14428711,-1.0037231,-0.05670166
1602330326335,1133,0.14428711,-1.0037231,-0.05670166
1602330326335,1134,0.14428711,-1.00177,-0.0569458
1602330326335,1135,0.14428711,-1.00177,-0.0569458
1602330326335,1136,0.14428711,-1.00177,-0.0569458
1602330326335,1137,0.1459961,-1.0020142,-0.058898926
1602330326335,1138,0.1459961,-1.0020142,-0.058898926
1602330326335,1139,0.1459961,-1.0020142,-0.058898926
1602330326335,1140,0.14672852,-1.0056763,-0.058166504
1602330326335,1141,0.14672852,-1.0056763,-0.058166504
1602330326335,1142,0.14672852,-1.0056763,-0.058166504
1602330326335,1143,0.14428711,-1.0015259,-0.054016113
1602330326335,1144,0.14428711,-1.0015259,-0.054016113
1602330326335,1145,0.14428711,-1.0015259,-0.054016113
1602330326335,1146,0.14501953,-1.0022583,-0.055725098
1602330326335,1147,0.14501953,-1.0022583,-0.055725098
1602330326335,1148,0.14770508,-1.0037231,-0.054504395
1602330326335,1149,0.14501953,-1.0022583,-0.055725098
1602330326335,1150,0.14770508,-1.0037231,-0.054504395
1602330326335,1151,0.14770508,-1.0037231,-0.054504395
