# Sensor position: Front pocket (trouser)
# Sensor side: Left
# Activity type: Sitting bent backward
# Activity code: 5
# Subject id: s1642301
timestamp,seq,accel_x,accel_y,accel_z
1602328191016,0,-0.67211914,-0.22125244,0.73358154
1602328193536,1,-0.67211914,-0.22125244,0.73358154
1602328193538,2,-0.63793945,-0.32281494,0.7020874
1602328193540,3,-0.63793945,-0.32281494,0.7020874
1602328193542,4,-0.67993164,-0.28179932,0.72698975
1602328193544,5,-0.67993164,-0.28179932,0.72698975
1602328193546,6,-0.5769043,-0.26348877,0.7496948
1602328193548,7,-0.5769043,-0.26348877,0.7496948
1602328193550,8,-0.5410156,-0.3106079,0.78240967
1602328193552,9,-0.5410156,-0.3106079,0.78240967
1602328193554,10,-0.5895996,-0.26226807,0.7333374
1602328193556,11,-0.5895996,-0.26226807,0.7333374
1602328193560,12,-0.5979004,-0.23321533,0.80511475
1602328193558,13,-0.5979004,-0.23321533,0.80511475
1602328193562,14,-0.5498047,-0.22442627,0.7477417
1602328193566,15,-0.6203613,-0.26055908,0.7477417
1602328193564,16,-0.5498047,-0.22442627,0.7477417
1602328193570,17,-0.65234375,-0.27301025,0.73651123
1602328193570,18,-0.6203613,-0.26055908,0.7477417
1602328193572,19,-0.61938477,-0.284729,0.75115967
1602328193574,20,-0.65234375,-0.27301025,0.73651123
1602328193576,21,-0.62280273,-0.29205322,0.74090576
1602328193580,22,-0.6237793,-0.28497314,0.7453003
1602328193578,23,-0.61938477,-0.284729,0.75115967
1602328193582,24,-0.61157227,-0.26934814,0.74823
1602328193584,25,-0.62280273,-0.29205322,0.74090576
1602328193586,26,-0.6184082,-0.2630005,0.74139404
1602328193588,27,-0.6237793,-0.28497314,0.7453003
1602328193590,28,-0.6142578,-0.2649536,0.74798584
1602328193594,29,-0.61743164,-0.2695923,0.74627686
1602328193592,30,-0.61157227,-0.26934814,0.74823
1602328193596,31,-0.62402344,-0.27130127,0.7394409
1602328193598,32,-0.6184082,-0.2630005,0.74139404
1602328193600,33,-0.6359863,-0.27227783,0.74334717
1602328193602,34,-0.6142578,-0.2649536,0.74798584
1602328193604,35,-0.6323242,-0.269104,0.73895264
1602328193606,36,-0.61743164,-0.2695923,0.74627686
1602328193608,37,-0.62402344,-0.27130127,0.7394409
1602328193610,38,-0.62939453,-0.26568604,0.74139404
1602328193612,39,-0.6359863,-0.27227783,0.74334717
1602328193614,40,-0.6237793,-0.2678833,0.744812
1602328193616,41,-0.6323242,-0.269104,0.73895264
1602328193620,42,-0.62939453,-0.26568604,0.74139404
1602328193620,43,-0.6225586,-0.27105713,0.7399292
1602328193622,44,-0.6237793,-0.2678833,0.744812
1602328193626,45,-0.6225586,-0.27105713,0.7399292
1602328193624,46,-0.6218262,-0.27349854,0.7406616
1602328193628,47,-0.6218262,-0.27349854,0.7406616
1602328193630,48,-0.62280273,-0.26837158,0.7445679
1602328193632,49,-0.62280273,-0.26837158,0.7445679
1602328193634,50,-0.62719727,-0.26983643,0.74017334
1602328193636,51,-0.62719727,-0.26983643,0.74017334
1602328193638,52,-0.6286621,-0.2695923,0.7411499
1602328193640,53,-0.6286621,-0.2695923,0.7411499
1602328193642,54,-0.625,-0.26617432,0.7387085
1602328193644,55,-0.625,-0.26617432,0.7387085
1602328193648,56,-0.62890625,-0.26885986,0.7440796
1602328193648,57,-0.62890625,-0.26885986,0.7440796
1602328193650,58,-0.6269531,-0.2666626,0.7362671
1602328193652,59,-0.6269531,-0.2666626,0.7362671
1602328193654,60,-0.6274414,-0.27008057,0.7362671
1602328193656,61,-0.6274414,-0.27008057,0.7362671
1602328193660,62,-0.6262207,-0.26885986,0.73895264
1602328193658,63,-0.6262207,-0.26885986,0.73895264
1602328193600,64,-0.62646484,-0.26861572,0.73846436
1602328196120,65,-0.62646484,-0.26861572,0.73846436
1602328196121,66,-0.62841797,-0.2678833,0.7399292
1602328196125,67,-0.62597656,-0.2695923,0.7367554
1602328196123,68,-0.62841797,-0.2678833,0.7399292
1602328196127,69,-0.6269531,-0.26739502,0.73724365
1602328196129,70,-0.62597656,-0.2695923,0.7367554
1602328196131,71,-0.6291504,-0.26812744,0.73773193
1602328196135,72,-0.6269531,-0.26739502,0.73724365
1602328196133,73,-0.62890625,-0.2666626,0.7369995
1602328196137,74,-0.6291504,-0.26812744,0.73773193
1602328196139,75,-0.6308594,-0.26861572,0.7387085
1602328196141,76,-0.62890625,-0.2666626,0.7369995
1602328196143,77,-0.62719727,-0.26885986,0.7367554
1602328196145,78,-0.6308594,-0.26861572,0.7387085
1602328196147,79,-0.6303711,-0.26739502,0.7369995
1602328196149,80,-0.62719727,-0.26885986,0.7367554
1602328196151,81,-0.6335449,-0.2703247,0.73431396
1602328196153,82,-0.6303711,-0.26739502,0.7369995
1602328196155,83,-0.6333008,-0.2715454,0.73480225
1602328196157,84,-0.6335449,-0.2703247,0.73431396
1602328196159,85,-0.63183594,-0.26837158,0.73358154
1602328196161,86,-0.6333008,-0.2715454,0.73480225
1602328196163,87,-0.6315918,-0.26690674,0.7350464
1602328196165,88,-0.63183594,-0.26837158,0.73358154
1602328196167,89,-0.63183594,-0.26861572,0.73309326
1602328196169,90,-0.6315918,-0.26690674,0.7350464
1602328196171,91,-0.6323242,-0.26934814,0.7357788
1602328196173,92,-0.63183594,-0.26861572,0.73309326
1602328196175,93,-0.63183594,-0.26885986,0.7367554
1602328196177,94,-0.6323242,-0.26934814,0.7357788
1602328196181,95,-0.63183594,-0.26885986,0.7367554
1602328196181,96,-0.6352539,-0.2666626,0.73651123
1602328196184,97,-0.6352539,-0.2666626,0.73651123
1602328196184,98,-0.6328125,-0.26617432,0.73846436
1602328196186,99,-0.6328125,-0.26617432,0.73846436
1602328196188,100,-0.6340332,-0.2703247,0.73236084
1602328196190,101,-0.6340332,-0.2703247,0.73236084
1602328196194,102,-0.6320801,-0.26983643,0.7352905
1602328196194,103,-0.6320801,-0.26983643,0.7352905
1602328196198,104,-0.63134766,-0.27008057,0.732605
1602328196198,105,-0.63134766,-0.27008057,0.732605
1602328196200,106,-0.6311035,-0.270813,0.7333374
1602328196202,107,-0.6311035,-0.270813,0.7333374
1602328196204,108,-0.63305664,-0.27252197,0.7321167
1602328196206,109,-0.63305664,-0.27252197,0.7321167
1602328196208,110,-0.6328125,-0.26934814,0.73431396
1602328196210,111,-0.6328125,-0.26934814,0.73431396
1602328196214,112,-0.63305664,-0.27349854,0.732605
1602328196214,113,-0.63305664,-0.27349854,0.732605
1602328196216,114,-0.63256836,-0.27252197,0.7313843
1602328196218,115,-0.63256836,-0.27252197,0.7313843
1602328196220,116,-0.6328125,-0.27716064,0.73114014
1602328196222,117,-0.6328125,-0.27716064,0.73114014
1602328196224,118,-0.6345215,-0.2769165,0.73358154
1602328196226,119,-0.6345215,-0.2769165,0.73358154
1602328196228,120,-0.6352539,-0.27496338,0.73114014
1602328196230,121,-0.6352539,-0.27496338,0.73114014
1602328196232,122,-0.6364746,-0.2732544,0.730896
1602328196234,123,-0.6364746,-0.2732544,0.730896
1602328196238,124,-0.6364746,-0.27593994,0.730896
1602328196238,125,-0.6364746,-0.27593994,0.730896
1602328196240,126,-0.63549805,-0.27642822,0.73431396
1602328196242,127,-0.63549805,-0.27642822,0.73431396
1602328196183,128,-0.63305664,-0.27105713,0.730896
1602328198703,129,-0.63305664,-0.27105713,0.730896
1602328198705,130,-0.6347656,-0.27008057,0.73236084
1602328198707,131,-0.6347656,-0.27008057,0.73236084
1602328198709,132,-0.63427734,-0.2744751,0.7316284
1602328198711,133,-0.63427734,-0.2744751,0.7316284
1602328198713,134,-0.6364746,-0.27301025,0.732605
1602328198715,135,-0.6364746,-0.27301025,0.732605
1602328198717,136,-0.6374512,-0.26934814,0.73309326
1602328198719,137,-0.6374512,-0.26934814,0.73309326
1602328198721,138,-0.63720703,-0.27227783,0.729187
1602328198723,139,-0.63720703,-0.27227783,0.729187
1602328198725,140,-0.6347656,-0.270813,0.7296753
1602328198727,141,-0.6347656,-0.270813,0.7296753
1602328198731,142,-0.6359863,-0.27252197,0.73187256
1602328198729,143,-0.6359863,-0.27252197,0.73187256
1602328198733,144,-0.6357422,-0.27105713,0.7316284
1602328198735,145,-0.6357422,-0.27105713,0.7316284
1602328198737,146,-0.6359863,-0.269104,0.73309326
1602328198739,147,-0.6359863,-0.269104,0.73309326
1602328198741,148,-0.63720703,-0.27008057,0.73187256
1602328198743,149,-0.63720703,-0.27008057,0.73187256
1602328198745,150,-0.63793945,-0.27105713,0.7333374
1602328198747,151,-0.63793945,-0.27105713,0.7333374
1602328198749,152,-0.63671875,-0.2695923,0.7313843
1602328198751,153,-0.63671875,-0.2695923,0.7313843
1602328198753,154,-0.6398926,-0.26934814,0.7340698
1602328198757,155,-0.6374512,-0.26934814,0.7328491
1602328198759,156,-0.63964844,-0.2703247,0.72991943
1602328198759,157,-0.6398926,-0.26934814,0.7340698
1602328198763,158,-0.6374512,-0.26934814,0.7328491
1602328198761,159,-0.63500977,-0.27008057,0.7289429
1602328198765,160,-0.63964844,-0.2703247,0.72991943
1602328198767,161,-0.6369629,-0.27227783,0.73236084
1602328198769,162,-0.63500977,-0.27008057,0.7289429
1602328198771,163,-0.63964844,-0.269104,0.732605
1602328198773,164,-0.6369629,-0.27227783,0.73236084
1602328198775,165,-0.6381836,-0.26885986,0.7338257
1602328198777,166,-0.63964844,-0.269104,0.732605
1602328198779,167,-0.6394043,-0.270813,0.73187256
1602328198781,168,-0.6381836,-0.26885986,0.7338257
1602328198783,169,-0.6374512,-0.27056885,0.73236084
1602328198785,170,-0.6394043,-0.270813,0.73187256
1602328198789,171,-0.63793945,-0.2720337,0.73187256
1602328198789,172,-0.6374512,-0.27056885,0.73236084
1602328198791,173,-0.6364746,-0.27520752,0.72991943
1602328198793,174,-0.63793945,-0.2720337,0.73187256
1602328198795,175,-0.64160156,-0.2732544,0.7301636
1602328198797,176,-0.63793945,-0.27105713,0.73114014
1602328198799,177,-0.6364746,-0.27520752,0.72991943
1602328198801,178,-0.6364746,-0.27349854,0.73236084
1602328198803,179,-0.64160156,-0.2732544,0.7301636
1602328198805,180,-0.63549805,-0.27496338,0.7304077
1602328198807,181,-0.63793945,-0.27105713,0.73114014
1602328198809,182,-0.6374512,-0.27716064,0.730896
1602328198811,183,-0.6364746,-0.27349854,0.73236084
1602328198813,184,-0.6357422,-0.27618408,0.73236084
1602328198815,185,-0.63549805,-0.27496338,0.7304077
1602328198817,186,-0.6335449,-0.27911377,0.7296753
1602328198819,187,-0.6374512,-0.27716064,0.730896
1602328198821,188,-0.6347656,-0.2769165,0.7301636
1602328198823,189,-0.6357422,-0.27618408,0.73236084
1602328198825,190,-0.6335449,-0.27911377,0.7296753
1602328198829,191,-0.6347656,-0.2769165,0.7301636
1602328201287,192,-0.6352539,-0.27838135,0.7272339
1602328201287,193,-0.6352539,-0.27838135,0.7272339
1602328201289,194,-0.6359863,-0.27886963,0.7316284
1602328201291,195,-0.6359863,-0.27886963,0.7316284
1602328201295,196,-0.63427734,-0.27838135,0.7313843
1602328201293,197,-0.63427734,-0.27838135,0.7313843
1602328201297,198,-0.63623047,-0.27374268,0.73236084
1602328201301,199,-0.63623047,-0.27374268,0.73236084
1602328201301,200,-0.63549805,-0.27764893,0.73065186
1602328201305,201,-0.63623047,-0.27960205,0.7304077
1602328201303,202,-0.63549805,-0.27764893,0.73065186
1602328201309,203,-0.63623047,-0.27960205,0.7304077
1602328201307,204,-0.6374512,-0.27667236,0.732605
1602328201311,205,-0.6374512,-0.27667236,0.732605
1602328201313,206,-0.63671875,-0.2786255,0.73236084
1602328201315,207,-0.63671875,-0.2786255,0.73236084
1602328201317,208,-0.6381836,-0.2756958,0.732605
1602328201319,209,-0.6381836,-0.2756958,0.732605
1602328201321,210,-0.6398926,-0.27593994,0.7296753
1602328201323,211,-0.6398926,-0.27593994,0.7296753
1602328201325,212,-0.63793945,-0.27471924,0.73065186
1602328201327,213,-0.63793945,-0.27471924,0.73065186
1602328201329,214,-0.6381836,-0.27471924,0.7301636
1602328201331,215,-0.6381836,-0.27471924,0.7301636
1602328201333,216,-0.6394043,-0.2715454,0.7316284
1602328201337,217,-0.6394043,-0.2727661,0.727478
1602328201337,218,-0.6394043,-0.2715454,0.7316284
1602328201339,219,-0.6394043,-0.2727661,0.727478
1602328201341,220,-0.63916016,-0.2727661,0.72991943
1602328201343,221,-0.63916016,-0.2727661,0.72991943
1602328201345,222,-0.6413574,-0.2715454,0.7289429
1602328201347,223,-0.6413574,-0.2715454,0.7289429
1602328201351,224,-0.6359863,-0.270813,0.727478
1602328201349,225,-0.6359863,-0.270813,0.727478
1602328201353,226,-0.6381836,-0.27227783,0.732605
1602328201355,227,-0.6381836,-0.27227783,0.732605
1602328201359,228,-0.6418457,-0.27130127,0.72869873
1602328201357,229,-0.6418457,-0.27130127,0.72869873
1602328201361,230,-0.6386719,-0.2744751,0.7296753
1602328201363,231,-0.6386719,-0.2744751,0.7296753
1602328201367,232,-0.6376953,-0.27008057,0.7296753
1602328201367,233,-0.6376953,-0.27008057,0.7296753
1602328201369,234,-0.6394043,-0.2727661,0.72991943
1602328201371,235,-0.6394043,-0.2727661,0.72991943
1602328201373,236,-0.64038086,-0.27008057,0.72943115
1602328201375,237,-0.64038086,-0.27008057,0.72943115
1602328201377,238,-0.640625,-0.27130127,0.7304077
1602328201379,239,-0.640625,-0.27130127,0.7304077
1602328201381,240,-0.64086914,-0.27105713,0.72991943
1602328201383,241,-0.64086914,-0.27105713,0.72991943
1602328201385,242,-0.6381836,-0.27496338,0.72698975
1602328201387,243,-0.6381836,-0.27496338,0.72698975
1602328201389,244,-0.6394043,-0.27545166,0.7296753
1602328201391,245,-0.6394043,-0.27545166,0.7296753
1602328201393,246,-0.642334,-0.27471924,0.72772217
1602328201395,247,-0.642334,-0.27471924,0.72772217
1602328201397,248,-0.6357422,-0.2756958,0.7301636
1602328201399,249,-0.6357422,-0.2756958,0.7301636
1602328201401,250,-0.6381836,-0.27496338,0.730896
1602328201403,251,-0.6381836,-0.27496338,0.730896
1602328201405,252,-0.63842773,-0.27838135,0.73065186
1602328201407,253,-0.63842773,-0.27838135,0.73065186
1602328201409,254,-0.6411133,-0.27545166,0.7313843
1602328201411,255,-0.6411133,-0.27545166,0.7313843
1602328201351,256,-0.6364746,-0.28253174,0.7255249
1602328203871,257,-0.6364746,-0.28253174,0.7255249
1602328203872,258,-0.63793945,-0.27471924,0.72698975
1602328203874,259,-0.63793945,-0.27471924,0.72698975
1602328203876,260,-0.6394043,-0.27667236,0.729187
1602328203878,261,-0.6394043,-0.27667236,0.729187
1602328203880,262,-0.63793945,-0.27496338,0.7243042
1602328203882,263,-0.63793945,-0.27496338,0.7243042
1602328203884,264,-0.63720703,-0.2786255,0.7279663
1602328203886,265,-0.63720703,-0.2786255,0.7279663
1602328203890,266,-0.63623047,-0.27838135,0.7301636
1602328203888,267,-0.63623047,-0.27838135,0.7301636
1602328203892,268,-0.6398926,-0.2727661,0.7284546
1602328203894,269,-0.6398926,-0.2727661,0.7284546
1602328203896,270,-0.6398926,-0.27838135,0.7284546
1602328203898,271,-0.6398926,-0.27838135,0.7284546
1602328203900,272,-0.6381836,-0.28253174,0.72772217
1602328203902,273,-0.63964844,-0.27398682,0.7296753
1602328203904,274,-0.6381836,-0.28253174,0.72772217
1602328203906,275,-0.63964844,-0.27398682,0.7296753
1602328203908,276,-0.640625,-0.27911377,0.7296753
1602328203912,277,-0.63964844,-0.27520752,0.72698975
1602328203910,278,-0.640625,-0.27911377,0.7296753
1602328203914,279,-0.6411133,-0.27618408,0.72576904
1602328203916,280,-0.63793945,-0.2793579,0.7260132
1602328203918,281,-0.63964844,-0.27520752,0.72698975
1602328203920,282,-0.6394043,-0.27593994,0.72991943
1602328203924,283,-0.6411133,-0.27593994,0.7272339
1602328203922,284,-0.6411133,-0.27618408,0.72576904
1602328203926,285,-0.64208984,-0.27374268,0.7284546
1602328203928,286,-0.63793945,-0.2793579,0.7260132
1602328203930,287,-0.63916016,-0.2727661,0.7289429
1602328203932,288,-0.6394043,-0.27593994,0.72991943
1602328203934,289,-0.6413574,-0.2720337,0.73187256
1602328203935,290,-0.6411133,-0.27593994,0.7272339
1602328203937,291,-0.64086914,-0.27374268,0.7304077
1602328203939,292,-0.64208984,-0.27374268,0.7284546
1602328203941,293,-0.6376953,-0.2727661,0.7279663
1602328203945,294,-0.64038086,-0.27130127,0.7279663
1602328203947,295,-0.63720703,-0.27496338,0.73114014
1602328203943,296,-0.63916016,-0.2727661,0.7289429
1602328203951,297,-0.6413574,-0.2720337,0.73187256
1602328203951,298,-0.6376953,-0.2781372,0.72869873
1602328203953,299,-0.64086914,-0.27374268,0.7304077
1602328203955,300,-0.6381836,-0.2744751,0.7272339
1602328203957,301,-0.6376953,-0.2727661,0.7279663
1602328203959,302,-0.6374512,-0.2786255,0.73236084
1602328203963,303,-0.63623047,-0.27911377,0.72772217
1602328203963,304,-0.64038086,-0.27130127,0.7279663
1602328203967,305,-0.63720703,-0.27496338,0.73114014
1602328203965,306,-0.6374512,-0.28204346,0.7313843
1602328203969,307,-0.6381836,-0.28009033,0.7313843
1602328203971,308,-0.6376953,-0.2781372,0.72869873
1602328203973,309,-0.6364746,-0.28302002,0.727478
1602328203977,310,-0.6364746,-0.28082275,0.7316284
1602328203975,311,-0.6381836,-0.2744751,0.7272339
1602328203979,312,-0.6352539,-0.2774048,0.73236084
1602328203981,313,-0.6374512,-0.2786255,0.73236084
1602328203985,314,-0.63623047,-0.27911377,0.72772217
1602328203987,315,-0.6374512,-0.28204346,0.7313843
1602328203989,316,-0.6381836,-0.28009033,0.7313843
1602328203991,317,-0.6364746,-0.28302002,0.727478
1602328203993,318,-0.6364746,-0.28082275,0.7316284
1602328203995,319,-0.6352539,-0.2774048,0.73236084
1602328203934,320,-0.63427734,-0.2835083,0.7321167
1602328206454,321,-0.63427734,-0.2835083,0.7321167
1602328206456,322,-0.6352539,-0.28326416,0.72772217
1602328206458,323,-0.6352539,-0.28326416,0.72772217
1602328206460,324,-0.6359863,-0.2859497,0.7316284
1602328206462,325,-0.6359863,-0.2859497,0.7316284
1602328206464,326,-0.63500977,-0.27667236,0.73187256
1602328206468,327,-0.6357422,-0.27838135,0.72991943
1602328206468,328,-0.63500977,-0.27667236,0.73187256
1602328206470,329,-0.6357422,-0.27838135,0.72991943
1602328206472,330,-0.6386719,-0.2786255,0.72991943
1602328206474,331,-0.6386719,-0.2786255,0.72991943
1602328206476,332,-0.64160156,-0.28277588,0.72991943
1602328206478,333,-0.64160156,-0.28277588,0.72991943
1602328206482,334,-0.642334,-0.27398682,0.7301636
1602328206482,335,-0.642334,-0.27398682,0.7301636
1602328206484,336,-0.6374512,-0.28155518,0.7289429
1602328206486,337,-0.6374512,-0.28155518,0.7289429
1602328206488,338,-0.63500977,-0.28497314,0.72821045
1602328206490,339,-0.63500977,-0.28497314,0.72821045
1602328206492,340,-0.6369629,-0.28033447,0.7313843
1602328206494,341,-0.6381836,-0.28009033,0.729187
1602328206496,342,-0.6369629,-0.28033447,0.7313843
1602328206498,343,-0.63842773,-0.27911377,0.72650146
1602328206500,344,-0.6381836,-0.28009033,0.729187
1602328206504,345,-0.63842773,-0.27911377,0.72650146
1602328206502,346,-0.63793945,-0.2727661,0.7289429
1602328206508,347,-0.63793945,-0.2727661,0.7289429
1602328206506,348,-0.6394043,-0.28448486,0.7255249
1602328206510,349,-0.6394043,-0.28448486,0.7255249
1602328206512,350,-0.6401367,-0.27716064,0.73114014
1602328206514,351,-0.6401367,-0.27716064,0.73114014
1602328206516,352,-0.640625,-0.27301025,0.72698975
1602328206518,353,-0.640625,-0.27301025,0.72698975
1602328206520,354,-0.6411133,-0.27911377,0.72772217
1602328206522,355,-0.6411133,-0.27911377,0.72772217
1602328206524,356,-0.64038086,-0.27618408,0.7313843
1602328206526,357,-0.64038086,-0.27618408,0.7313843
1602328206528,358,-0.63964844,-0.2744751,0.7262573
1602328206530,359,-0.63964844,-0.2744751,0.7262573
1602328206532,360,-0.6437988,-0.27496338,0.72943115
1602328206534,361,-0.6437988,-0.27496338,0.72943115
1602328206536,362,-0.6394043,-0.27301025,0.72943115
1602328206538,363,-0.6394043,-0.27301025,0.72943115
1602328206540,364,-0.6401367,-0.27423096,0.72869873
1602328206542,365,-0.6401367,-0.27423096,0.72869873
1602328206544,366,-0.64160156,-0.270813,0.72991943
1602328206548,367,-0.64160156,-0.270813,0.72991943
1602328206548,368,-0.6376953,-0.27374268,0.7289429
1602328206552,369,-0.63964844,-0.27667236,0.7279663
1602328206552,370,-0.6376953,-0.27374268,0.7289429
1602328206554,371,-0.6401367,-0.2781372,0.7301636
1602328206558,372,-0.6398926,-0.27911377,0.7313843
1602328206556,373,-0.63964844,-0.27667236,0.7279663
1602328206560,374,-0.6369629,-0.2774048,0.7262573
1602328206562,375,-0.6401367,-0.2781372,0.7301636
1602328206564,376,-0.6398926,-0.27911377,0.7313843
1602328206566,377,-0.6364746,-0.27764893,0.73065186
1602328206568,378,-0.6369629,-0.2774048,0.7262573
1602328206570,379,-0.63720703,-0.2774048,0.7260132
1602328206572,380,-0.6364746,-0.27764893,0.73065186
1602328206574,381,-0.63793945,-0.28204346,0.729187
1602328206576,382,-0.63720703,-0.2774048,0.7260132
1602328206580,383,-0.63793945,-0.28204346,0.729187
1602328209038,384,-0.6345215,-0.28277588,0.730896
1602328206518,385,-0.6345215,-0.28277588,0.730896
1602328209041,386,-0.6364746,-0.28253174,0.72943115
1602328209041,387,-0.6364746,-0.28253174,0.72943115
1602328209045,388,-0.6357422,-0.284729,0.73114014
1602328209043,389,-0.6357422,-0.284729,0.73114014
1602328209047,390,-0.63623047,-0.28570557,0.7296753
1602328209049,391,-0.63623047,-0.28570557,0.7296753
1602328209051,392,-0.6364746,-0.2805786,0.730896
1602328209053,393,-0.6364746,-0.2805786,0.730896
1602328209055,394,-0.6381836,-0.28204346,0.7272339
1602328209059,395,-0.6364746,-0.2786255,0.7304077
1602328209059,396,-0.6381836,-0.28204346,0.7272339
1602328209061,397,-0.6364746,-0.2786255,0.7304077
1602328209065,398,-0.642334,-0.27642822,0.72698975
1602328209067,399,-0.63623047,-0.28009033,0.7304077
1602328209065,400,-0.642334,-0.27642822,0.72698975
1602328209069,401,-0.6411133,-0.2744751,0.730896
1602328209071,402,-0.63623047,-0.28009033,0.7304077
1602328209073,403,-0.64086914,-0.2786255,0.7272339
1602328209075,404,-0.6411133,-0.2744751,0.730896
1602328209077,405,-0.6401367,-0.27716064,0.72454834
1602328209079,406,-0.64086914,-0.2786255,0.7272339
1602328209081,407,-0.6413574,-0.2769165,0.7284546
1602328209083,408,-0.6401367,-0.27716064,0.72454834
1602328209085,409,-0.6425781,-0.27520752,0.72698975
1602328209089,410,-0.6413574,-0.2769165,0.7284546
1602328209089,411,-0.63964844,-0.2720337,0.7284546
1602328209093,412,-0.6425781,-0.27520752,0.72698975
1602328209093,413,-0.6455078,-0.27398682,0.7267456
1602328209097,414,-0.63964844,-0.2720337,0.7284546
1602328209097,415,-0.6413574,-0.2756958,0.727478
1602328209101,416,-0.64404297,-0.2715454,0.72991943
1602328209101,417,-0.6455078,-0.27398682,0.7267456
1602328209102,418,-0.64282227,-0.27471924,0.73187256
1602328209104,419,-0.6413574,-0.2756958,0.727478
1602328209106,420,-0.6425781,-0.27667236,0.7279663
1602328209108,421,-0.64404297,-0.2715454,0.72991943
1602328209110,422,-0.6394043,-0.27423096,0.7284546
1602328209114,423,-0.64038086,-0.27789307,0.7279663
1602328209112,424,-0.64282227,-0.27471924,0.73187256
1602328209118,425,-0.6425781,-0.27667236,0.7279663
1602328209120,426,-0.6394043,-0.27423096,0.7284546
1602328209118,427,-0.6401367,-0.27471924,0.729187
1602328209122,428,-0.6401367,-0.2781372,0.7272339
1602328209124,429,-0.64038086,-0.27789307,0.7279663
1602328209126,430,-0.63964844,-0.28399658,0.72772217
1602328209128,431,-0.6401367,-0.27471924,0.729187
1602328209132,432,-0.6401367,-0.2781372,0.7272339
1602328209132,433,-0.6381836,-0.28155518,0.7289429
1602328209134,434,-0.63964844,-0.28399658,0.72772217
1602328209136,435,-0.63964844,-0.2822876,0.7296753
1602328209138,436,-0.6381836,-0.28155518,0.7289429
1602328209140,437,-0.6394043,-0.28253174,0.72821045
1602328209142,438,-0.63964844,-0.2822876,0.7296753
1602328209144,439,-0.6364746,-0.28277588,0.72869873
1602328209148,440,-0.63671875,-0.28253174,0.72650146
1602328209146,441,-0.6394043,-0.28253174,0.72821045
1602328209150,442,-0.6369629,-0.284729,0.729187
1602328209152,443,-0.6364746,-0.28277588,0.72869873
1602328209154,444,-0.6374512,-0.28009033,0.7313843
1602328209156,445,-0.63671875,-0.28253174,0.72650146
1602328209160,446,-0.6369629,-0.284729,0.729187
1602328209162,447,-0.6374512,-0.28009033,0.7313843
1602328209101,448,-0.6411133,-0.27838135,0.7304077
1602328211621,449,-0.6411133,-0.27838135,0.7304077
1602328211623,450,-0.6374512,-0.28253174,0.7272339
1602328211625,451,-0.6374512,-0.28253174,0.7272339
1602328211629,452,-0.6386719,-0.28399658,0.72869873
1602328211629,453,-0.6386719,-0.28399658,0.72869873
1602328211631,454,-0.6381836,-0.28375244,0.7255249
1602328211633,455,-0.6381836,-0.28375244,0.7255249
1602328211635,456,-0.64160156,-0.2774048,0.7284546
1602328211639,457,-0.63916016,-0.27764893,0.730896
1602328211637,458,-0.64160156,-0.2774048,0.7284546
1602328211644,459,-0.63916016,-0.27764893,0.730896
1602328211641,460,-0.640625,-0.28326416,0.727478
1602328211646,461,-0.640625,-0.28326416,0.727478
1602328211648,462,-0.63964844,-0.28302002,0.72650146
1602328211650,463,-0.63964844,-0.28302002,0.72650146
1602328211652,464,-0.6411133,-0.28204346,0.72454834
1602328211654,465,-0.6411133,-0.28204346,0.72454834
1602328211656,466,-0.6394043,-0.28155518,0.72772217
1602328211658,467,-0.6394043,-0.28155518,0.72772217
1602328211660,468,-0.64038086,-0.27374268,0.727478
1602328211662,469,-0.64038086,-0.27374268,0.727478
1602328211664,470,-0.6386719,-0.2798462,0.72332764
1602328211667,471,-0.6386719,-0.2798462,0.72332764
1602328211669,472,-0.64038086,-0.28326416,0.7218628
1602328211671,473,-0.64038086,-0.28326416,0.7218628
1602328211673,474,-0.6418457,-0.27764893,0.727478
1602328211675,475,-0.6418457,-0.27764893,0.727478
1602328211677,476,-0.64208984,-0.27252197,0.7284546
1602328211681,477,-0.64208984,-0.27252197,0.7284546
1602328211681,478,-0.6442871,-0.27764893,0.7262573
1602328211685,479,-0.6442871,-0.27764893,0.7262573
1602328211685,480,-0.6430664,-0.2793579,0.7289429
1602328211688,481,-0.6430664,-0.2793579,0.7289429
1602328211690,482,-0.6484375,-0.2810669,0.7247925
1602328211692,483,-0.6484375,-0.2810669,0.7247925
1602328211694,484,-0.6437988,-0.27349854,0.7255249
1602328211696,485,-0.6437988,-0.27349854,0.7255249
1602328211698,486,-0.64331055,-0.27423096,0.72576904
1602328211700,487,-0.64331055,-0.27423096,0.72576904
1602328211702,488,-0.6437988,-0.27496338,0.72576904
1602328211704,489,-0.6437988,-0.27496338,0.72576904
1602328211708,490,-0.6430664,-0.27667236,0.7230835
1602328211706,491,-0.6430664,-0.27667236,0.7230835
1602328211711,492,-0.64575195,-0.2781372,0.7267456
1602328211713,493,-0.64575195,-0.2781372,0.7267456
1602328211715,494,-0.64819336,-0.27642822,0.72698975
1602328211717,495,-0.64819336,-0.27642822,0.72698975
1602328211719,496,-0.64331055,-0.27471924,0.7250366
1602328211721,497,-0.64331055,-0.27471924,0.7250366
1602328211723,498,-0.64331055,-0.27642822,0.72406006
1602328211725,499,-0.64331055,-0.27642822,0.72406006
1602328211727,500,-0.6442871,-0.27960205,0.7213745
1602328211729,501,-0.6442871,-0.27960205,0.7213745
1602328211731,502,-0.6386719,-0.27520752,0.7260132
1602328211734,503,-0.6386719,-0.27520752,0.7260132
1602328211736,504,-0.64160156,-0.2786255,0.727478
1602328211738,505,-0.64160156,-0.2786255,0.727478
1602328211740,506,-0.6418457,-0.28131104,0.72454834
1602328211742,507,-0.6418457,-0.28131104,0.72454834
1602328211744,508,-0.64038086,-0.28179932,0.727478
1602328211746,509,-0.64038086,-0.28179932,0.727478
1602328211748,510,-0.6411133,-0.28131104,0.7279663
1602328211750,511,-0.6411133,-0.28131104,0.7279663
1602328211688,512,-0.64086914,-0.28204346,0.72698975
1602328214208,513,-0.64086914,-0.28204346,0.72698975
1602328214209,514,-0.64208984,-0.28131104,0.7267456
1602328214211,515,-0.64208984,-0.28131104,0.7267456
1602328214213,516,-0.6413574,-0.28253174,0.7267456
1602328214215,517,-0.6413574,-0.28253174,0.7267456
1602328214217,518,-0.6413574,-0.28131104,0.72576904
1602328214219,519,-0.6413574,-0.28131104,0.72576904
1602328214223,520,-0.64086914,-0.28082275,0.72821045
1602328214221,521,-0.64086914,-0.28082275,0.72821045
1602328214225,522,-0.6425781,-0.27911377,0.7262573
1602328214227,523,-0.64453125,-0.27911377,0.72650146
1602328214229,524,-0.6425781,-0.27911377,0.7262573
1602328214231,525,-0.6455078,-0.28082275,0.7225952
1602328214233,526,-0.64453125,-0.27911377,0.72650146
1602328214235,527,-0.6435547,-0.2756958,0.7260132
1602328214237,528,-0.6442871,-0.2774048,0.727478
1602328214239,529,-0.6455078,-0.28082275,0.7225952
1602328214242,530,-0.6435547,-0.2756958,0.7260132
1602328214242,531,-0.64160156,-0.2786255,0.72528076
1602328214244,532,-0.6442871,-0.2774048,0.727478
1602328214246,533,-0.6459961,-0.2793579,0.7262573
1602328214248,534,-0.64160156,-0.2786255,0.72528076
1602328214250,535,-0.6459961,-0.2793579,0.7262573
1602328214252,536,-0.642334,-0.2756958,0.72528076
1602328214256,537,-0.64453125,-0.2774048,0.72576904
1602328214256,538,-0.642334,-0.2756958,0.72528076
1602328214258,539,-0.6442871,-0.27960205,0.72528076
1602328214262,540,-0.64501953,-0.2786255,0.72454834
1602328214262,541,-0.64453125,-0.2774048,0.72576904
1602328214264,542,-0.6479492,-0.27642822,0.72650146
1602328214266,543,-0.6442871,-0.27960205,0.72528076
1602328214268,544,-0.64746094,-0.27667236,0.7247925
1602328214270,545,-0.64501953,-0.2786255,0.72454834
1602328214271,546,-0.64453125,-0.27252197,0.72650146
1602328214273,547,-0.6479492,-0.27642822,0.72650146
1602328214275,548,-0.6459961,-0.27764893,0.7235718
1602328214277,549,-0.64746094,-0.27667236,0.7247925
1602328214279,550,-0.6452637,-0.2769165,0.7267456
1602328214281,551,-0.64453125,-0.27252197,0.72650146
1602328214285,552,-0.6459961,-0.27764893,0.7235718
1602328214285,553,-0.64282227,-0.2744751,0.727478
1602328214287,554,-0.6452637,-0.2769165,0.7267456
1602328214289,555,-0.64331055,-0.27423096,0.72576904
1602328214291,556,-0.64282227,-0.2744751,0.727478
1602328214293,557,-0.6430664,-0.2781372,0.72650146
1602328214295,558,-0.64331055,-0.27423096,0.72576904
1602328214297,559,-0.6447754,-0.27960205,0.7235718
1602328214299,560,-0.6430664,-0.2781372,0.72650146
1602328214301,561,-0.6430664,-0.27838135,0.72528076
1602328214302,562,-0.6447754,-0.27960205,0.7235718
1602328214304,563,-0.64208984,-0.2774048,0.72698975
1602328214308,564,-0.6447754,-0.27642822,0.72772217
1602328214306,565,-0.6430664,-0.27838135,0.72528076
1602328214310,566,-0.64208984,-0.2774048,0.72698975
1602328214312,567,-0.64501953,-0.28179932,0.72454834
1602328214314,568,-0.6447754,-0.27642822,0.72772217
1602328214318,569,-0.64501953,-0.28179932,0.72454834
1602328214316,570,-0.640625,-0.28131104,0.7260132
1602328214320,571,-0.640625,-0.28131104,0.7260132
1602328214324,572,-0.6435547,-0.2810669,0.7243042
1602328214322,573,-0.6435547,-0.2810669,0.7243042
1602328214328,574,-0.6425781,-0.27886963,0.72283936
1602328214326,575,-0.6425781,-0.27886963,0.72283936
1602328214270,576,-0.6411133,-0.28302002,0.72454834
1602328216790,577,-0.6411133,-0.28302002,0.72454834
1602328216791,578,-0.64086914,-0.28326416,0.7260132
1602328216793,579,-0.64086914,-0.28326416,0.7260132
1602328216795,580,-0.64404297,-0.28497314,0.7301636
1602328216797,581,-0.64404297,-0.28497314,0.7301636
1602328216799,582,-0.6376953,-0.28277588,0.727478
1602328216801,583,-0.6376953,-0.28277588,0.727478
1602328216803,584,-0.64501953,-0.2810669,0.72283936
1602328216805,585,-0.64501953,-0.2810669,0.72283936
1602328216807,586,-0.64404297,-0.28082275,0.7272339
1602328216809,587,-0.64404297,-0.28082275,0.7272339
1602328216811,588,-0.6411133,-0.28033447,0.72576904
1602328216813,589,-0.6411133,-0.28033447,0.72576904
1602328216815,590,-0.6447754,-0.27496338,0.7255249
1602328216817,591,-0.6447754,-0.27496338,0.7255249
1602328216819,592,-0.64501953,-0.2786255,0.72698975
1602328216821,593,-0.64501953,-0.2786255,0.72698975
1602328216823,594,-0.6447754,-0.27838135,0.727478
1602328216825,595,-0.6447754,-0.27838135,0.727478
1602328216827,596,-0.6452637,-0.27911377,0.72528076
1602328216831,597,-0.64624023,-0.2805786,0.7255249
1602328216831,598,-0.6452637,-0.27911377,0.72528076
1602328216833,599,-0.64697266,-0.28277588,0.72454834
1602328216837,600,-0.6447754,-0.2805786,0.7230835
1602328216837,601,-0.64624023,-0.2805786,0.7255249
1602328216839,602,-0.6425781,-0.27496338,0.7260132
1602328216841,603,-0.64697266,-0.28277588,0.72454834
1602328216843,604,-0.64331055,-0.27667236,0.72161865
1602328216845,605,-0.6447754,-0.2805786,0.7230835
1602328216847,606,-0.6455078,-0.2781372,0.7230835
1602328216849,607,-0.6425781,-0.27496338,0.7260132
1602328216851,608,-0.6459961,-0.27398682,0.7211304
1602328216853,609,-0.64331055,-0.27667236,0.72161865
1602328216854,610,-0.64575195,-0.2732544,0.72406006
1602328216856,611,-0.6455078,-0.2781372,0.7230835
1602328216858,612,-0.6479492,-0.2781372,0.7235718
1602328216860,613,-0.6459961,-0.27398682,0.7211304
1602328216862,614,-0.64453125,-0.2756958,0.7211304
1602328216864,615,-0.64575195,-0.2732544,0.72406006
1602328216868,616,-0.6479492,-0.2781372,0.7235718
1602328216868,617,-0.6491699,-0.27593994,0.7223511
1602328216872,618,-0.642334,-0.27618408,0.7238159
1602328216870,619,-0.64453125,-0.2756958,0.7211304
1602328216876,620,-0.6491699,-0.27593994,0.7223511
1602328216876,621,-0.6452637,-0.27667236,0.7250366
1602328216878,622,-0.642334,-0.27618408,0.7238159
1602328216880,623,-0.6452637,-0.27911377,0.7262573
1602328216882,624,-0.6452637,-0.27667236,0.7250366
1602328216886,625,-0.6452637,-0.27911377,0.7262573
1602328216886,626,-0.64160156,-0.27593994,0.72210693
1602328216890,627,-0.64160156,-0.27593994,0.72210693
1602328216890,628,-0.6447754,-0.27716064,0.7255249
1602328216892,629,-0.6447754,-0.27716064,0.7255249
1602328216894,630,-0.6437988,-0.27960205,0.7260132
1602328216896,631,-0.6437988,-0.27960205,0.7260132
1602328216898,632,-0.6435547,-0.27252197,0.7262573
1602328216900,633,-0.6435547,-0.27252197,0.7262573
1602328216902,634,-0.64501953,-0.27764893,0.7225952
1602328216904,635,-0.64501953,-0.27764893,0.7225952
1602328216906,636,-0.6442871,-0.27960205,0.7235718
1602328216908,637,-0.6442871,-0.27960205,0.7235718
1602328216910,638,-0.6425781,-0.2798462,0.729187
1602328216912,639,-0.6425781,-0.2798462,0.729187
1602328216853,640,-0.6401367,-0.2822876,0.72210693
1602328219373,641,-0.6401367,-0.2822876,0.72210693
1602328219369,642,-0.64208984,-0.28155518,0.72454834
1602328219365,643,-0.64208984,-0.28155518,0.72454834
1602328219361,644,-0.64331055,-0.28302002,0.7255249
1602328219357,645,-0.64331055,-0.28302002,0.7255249
1602328219352,646,-0.6435547,-0.2810669,0.7250366
1602328219348,647,-0.6435547,-0.2810669,0.7250366
1602328219344,648,-0.6442871,-0.28179932,0.7304077
1602328219340,649,-0.6442871,-0.28179932,0.7304077
1602328219336,650,-0.64086914,-0.27911377,0.7267456
1602328219331,651,-0.64086914,-0.27911377,0.7267456
1602328219327,652,-0.64746094,-0.2810669,0.7223511
1602328219323,653,-0.64746094,-0.2810669,0.7223511
1602328219314,654,-0.64501953,-0.27886963,0.72528076
1602328219319,655,-0.64501953,-0.27886963,0.72528076
1602328219310,656,-0.6459961,-0.27667236,0.7260132
1602328219306,657,-0.6459961,-0.27667236,0.7260132
1602328219302,658,-0.64819336,-0.27423096,0.72406006
1602328219298,659,-0.64819336,-0.27423096,0.72406006
1602328219293,660,-0.64941406,-0.27764893,0.72772217
1602328219289,661,-0.64941406,-0.27764893,0.72772217
1602328219281,662,-0.6447754,-0.27838135,0.7230835
1602328219285,663,-0.6447754,-0.27838135,0.7230835
1602328219276,664,-0.6464844,-0.2835083,0.72161865
1602328219272,665,-0.6464844,-0.2835083,0.72161865
1602328219268,666,-0.6452637,-0.27911377,0.7218628
1602328219260,667,-0.6452637,-0.27911377,0.7218628
1602328219260,668,-0.6455078,-0.28179932,0.7194214
1602328219251,669,-0.6464844,-0.2805786,0.7218628
1602328219251,670,-0.6455078,-0.28179932,0.7194214
1602328219247,671,-0.64501953,-0.27789307,0.7247925
1602328219238,672,-0.6455078,-0.27667236,0.72161865
1602328219238,673,-0.6464844,-0.2805786,0.7218628
1602328219230,674,-0.6464844,-0.2822876,0.7194214
1602328219230,675,-0.64501953,-0.27789307,0.7247925
1602328219226,676,-0.6489258,-0.28155518,0.72576904
1602328219222,677,-0.6455078,-0.27667236,0.72161865
1602328219217,678,-0.64453125,-0.28033447,0.7255249
1602328219213,679,-0.6464844,-0.2822876,0.7194214
1602328219209,680,-0.6467285,-0.2805786,0.72210693
1602328219205,681,-0.6489258,-0.28155518,0.72576904
1602328219201,682,-0.6477051,-0.27911377,0.72454834
1602328219196,683,-0.64453125,-0.28033447,0.7255249
1602328219192,684,-0.6484375,-0.28009033,0.7225952
1602328219188,685,-0.6467285,-0.2805786,0.72210693
1602328219184,686,-0.6464844,-0.2798462,0.7218628
1602328219179,687,-0.6477051,-0.27911377,0.72454834
1602328219175,688,-0.6472168,-0.2781372,0.72039795
1602328219171,689,-0.6484375,-0.28009033,0.7225952
1602328219167,690,-0.65063477,-0.27545166,0.72528076
1602328219163,691,-0.6464844,-0.2798462,0.7218628
1602328219158,692,-0.64697266,-0.27716064,0.7238159
1602328219154,693,-0.6472168,-0.2781372,0.72039795
1602328219150,694,-0.6491699,-0.27349854,0.7213745
1602328219146,695,-0.65063477,-0.27545166,0.72528076
1602328219141,696,-0.6455078,-0.27496338,0.7206421
1602328219137,697,-0.64697266,-0.27716064,0.7238159
1602328219133,698,-0.6467285,-0.27471924,0.72088623
1602328219129,699,-0.6491699,-0.27349854,0.7213745
1602328219125,700,-0.6503906,-0.27520752,0.71990967
1602328219120,701,-0.6455078,-0.27496338,0.7206421
1602328219112,702,-0.6467285,-0.27471924,0.72088623
1602328219108,703,-0.6503906,-0.27520752,0.71990967
1602328219238,704,-0.6501465,-0.27789307,0.7194214
1602328221758,705,-0.6501465,-0.27789307,0.7194214
1602328221766,706,-0.64575195,-0.2744751,0.7243042
1602328221774,707,-0.64575195,-0.2744751,0.7243042
1602328221782,708,-0.6491699,-0.27471924,0.7238159
1602328221790,709,-0.6491699,-0.27471924,0.7238159
1602328221798,710,-0.6472168,-0.27960205,0.7225952
1602328221806,711,-0.6472168,-0.27960205,0.7225952
1602328221823,712,-0.64624023,-0.2805786,0.7255249
1602328221823,713,-0.64624023,-0.2805786,0.7255249
1602328221831,714,-0.64746094,-0.28033447,0.7223511
1602328221839,715,-0.64746094,-0.28033447,0.7223511
1602328221847,716,-0.6455078,-0.28033447,0.72576904
1602328221855,717,-0.6455078,-0.28033447,0.72576904
1602328221863,718,-0.64331055,-0.2793579,0.72772217
1602328221879,719,-0.64208984,-0.28277588,0.7213745
1602328221871,720,-0.64331055,-0.2793579,0.72772217
1602328221888,721,-0.64208984,-0.28277588,0.7213745
1602328221896,722,-0.64160156,-0.28497314,0.7243042
1602328221904,723,-0.64160156,-0.28497314,0.7243042
1602328221912,724,-0.6411133,-0.2798462,0.72454834
1602328221928,725,-0.64453125,-0.28204346,0.7260132
1602328221928,726,-0.6411133,-0.2798462,0.72454834
1602328221944,727,-0.64404297,-0.28131104,0.7238159
1602328221944,728,-0.64453125,-0.28204346,0.7260132
1602328221953,729,-0.64282227,-0.28277588,0.7230835
1602328221961,730,-0.64404297,-0.28131104,0.7238159
1602328221969,731,-0.64501953,-0.27960205,0.7238159
1602328221977,732,-0.64282227,-0.28277588,0.7230835
1602328221985,733,-0.64575195,-0.27911377,0.7250366
1602328221993,734,-0.64501953,-0.27960205,0.7238159
1602328222001,735,-0.64624023,-0.2756958,0.72210693
1602328222018,736,-0.6467285,-0.28253174,0.72088623
1602328222009,737,-0.64575195,-0.27911377,0.7250366
1602328222026,738,-0.6459961,-0.27911377,0.7238159
1602328222034,739,-0.64624023,-0.2756958,0.72210693
1602328222042,740,-0.64868164,-0.27520752,0.7262573
1602328222050,741,-0.6467285,-0.28253174,0.72088623
1602328222058,742,-0.6452637,-0.2798462,0.7196655
1602328222066,743,-0.6459961,-0.27911377,0.7238159
1602328222083,744,-0.64868164,-0.27520752,0.7262573
1602328222083,745,-0.64624023,-0.28204346,0.7223511
1602328222091,746,-0.6452637,-0.2798462,0.7196655
1602328222099,747,-0.64990234,-0.2798462,0.7223511
1602328222107,748,-0.64624023,-0.28204346,0.7223511
1602328222115,749,-0.64941406,-0.2786255,0.72283936
1602328222131,750,-0.6479492,-0.2805786,0.7184448
1602328222123,751,-0.64990234,-0.2798462,0.7223511
1602328222139,752,-0.64941406,-0.2786255,0.72283936
1602328222148,753,-0.65234375,-0.27618408,0.7182007
1602328222164,754,-0.65063477,-0.27886963,0.7189331
1602328222164,755,-0.6479492,-0.2805786,0.7184448
1602328222172,756,-0.6501465,-0.27496338,0.72528076
1602328222180,757,-0.65234375,-0.27618408,0.7182007
1602328222188,758,-0.6472168,-0.27886963,0.72332764
1602328222196,759,-0.65063477,-0.27886963,0.7189331
1602328222204,760,-0.64697266,-0.27593994,0.72332764
1602328222221,761,-0.64819336,-0.27838135,0.7211304
1602328222221,762,-0.6501465,-0.27496338,0.72528076
1602328222229,763,-0.65185547,-0.2781372,0.72332764
1602328222237,764,-0.6472168,-0.27886963,0.72332764
1602328222253,765,-0.64697266,-0.27593994,0.72332764
1602328222261,766,-0.64819336,-0.27838135,0.7211304
1602328222269,767,-0.65185547,-0.2781372,0.72332764
